// Start Time: Unknown
// Update Rate: 40.0Hz
// Filter Profile: human (46.1)
// Firmware Version: 4.3.4
PacketCounter	SampleTimeFine	Acc_X	Acc_Y	Acc_Z	Gyr_X	Gyr_Y	Gyr_Z	Mag_X	Mag_Y	Mag_Z	Quat_q0	Quat_q1	Quat_q2	Quat_q3
61647		9.533576	-0.431871	0.762545	0.004443	-0.007183	0.000595	-0.602539	-0.115723	0.511475	-0.082612	-0.669887	0.106690	-0.730098
61648		9.564587	-0.431785	0.733390	0.002216	-0.006059	0.000197	-0.595947	-0.119873	0.511719	-0.082584	-0.669945	0.106678	-0.730051
61649		9.534804	-0.450302	0.771194	0.008539	-0.004584	-0.000998	-0.604492	-0.117920	0.515869	-0.082521	-0.670001	0.106596	-0.730018
61650		9.549526	-0.420508	0.783148	0.007420	-0.004959	-0.002044	-0.595947	-0.119873	0.513916	-0.082470	-0.670057	0.106517	-0.729984
61651		9.534036	-0.455630	0.791869	0.004353	-0.006412	-0.002106	-0.593750	-0.119873	0.511719	-0.082445	-0.670121	0.106465	-0.729936
61652		9.550022	-0.465839	0.804683	0.005304	-0.005680	-0.003275	-0.604492	-0.120117	0.513916	-0.082421	-0.670178	0.106397	-0.729896
61653		9.548010	-0.430946	0.824587	-0.001756	-0.010391	-0.005764	-0.595947	-0.117920	0.513916	-0.082470	-0.670269	0.106379	-0.729809
61654		9.544905	-0.445379	0.779889	-0.006056	-0.013434	-0.004544	-0.600342	-0.117920	0.513672	-0.082541	-0.670374	0.106413	-0.729699
61655		9.537786	-0.435505	0.758095	-0.003518	-0.012899	-0.006097	-0.602295	-0.122070	0.513916	-0.082604	-0.670476	0.106412	-0.729599
61656		9.543688	-0.427489	0.740448	-0.007851	-0.013683	-0.004531	-0.597900	-0.122070	0.518311	-0.082688	-0.670577	0.106466	-0.729489
61657		9.538407	-0.433162	0.751604	-0.007027	-0.012981	-0.006562	-0.597900	-0.119873	0.509521	-0.082783	-0.670680	0.106494	-0.729380
61658		9.521880	-0.427142	0.757510	-0.003089	-0.011210	-0.007184	-0.595703	-0.126221	0.516357	-0.082853	-0.670770	0.106480	-0.729291
61659		9.538137	-0.433094	0.724569	-0.003201	-0.009366	-0.006351	-0.597900	-0.124268	0.511963	-0.082923	-0.670842	0.106473	-0.729217
61660		9.548759	-0.446080	0.706602	0.001266	-0.006677	-0.005360	-0.595703	-0.124268	0.511963	-0.082947	-0.670895	0.106433	-0.729172
61661		9.561538	-0.403161	0.729803	0.003290	-0.005183	-0.006835	-0.595703	-0.124268	0.509766	-0.082966	-0.670946	0.106365	-0.729133
61662		9.535735	-0.423009	0.754740	0.003615	-0.004710	-0.005596	-0.597900	-0.124268	0.516357	-0.082976	-0.670993	0.106300	-0.729097
61663		9.531268	-0.422041	0.744859	0.003054	-0.006428	-0.005370	-0.595703	-0.122070	0.520508	-0.082984	-0.671054	0.106242	-0.729049
61664		9.531687	-0.442325	0.732888	0.002291	-0.008591	-0.005519	-0.593750	-0.122070	0.516113	-0.082990	-0.671142	0.106190	-0.728975
61665		9.543868	-0.424409	0.723544	-0.000248	-0.009129	-0.003962	-0.595947	-0.117920	0.518311	-0.083001	-0.671228	0.106179	-0.728896
61666		9.539407	-0.423958	0.713165	-0.001588	-0.005815	-0.003344	-0.595947	-0.117920	0.516113	-0.083004	-0.671284	0.106180	-0.728844
61667		9.537788	-0.432364	0.713130	0.001337	-0.006263	-0.005845	-0.598145	-0.115723	0.515869	-0.083004	-0.671351	0.106136	-0.728789
61668		9.525786	-0.423115	0.684754	-0.002492	-0.003872	-0.002319	-0.593750	-0.119873	0.513916	-0.082993	-0.671384	0.106155	-0.728757
61669		9.510366	-0.458215	0.694062	-0.001263	-0.002280	-0.003602	-0.597900	-0.119873	0.513916	-0.083010	-0.671417	0.106154	-0.728725
61670		9.516616	-0.425755	0.711153	-0.000626	-0.000146	-0.004316	-0.597900	-0.119873	0.516113	-0.083019	-0.671424	0.106147	-0.728718
61671		9.553835	-0.414623	0.690717	-0.001857	0.001322	-0.004529	-0.597900	-0.119873	0.513916	-0.083038	-0.671424	0.106144	-0.728717
61672		9.541911	-0.430196	0.698311	0.004901	0.001434	-0.005330	-0.595703	-0.122070	0.516113	-0.083013	-0.671428	0.106075	-0.728726
61673		9.528208	-0.455057	0.707628	0.004743	0.003665	-0.005850	-0.602295	-0.120117	0.513916	-0.083010	-0.671428	0.105998	-0.728738
61674		9.523546	-0.453731	0.700510	0.009393	0.007988	-0.007677	-0.602295	-0.122070	0.516113	-0.082966	-0.671366	0.105868	-0.728818
61675		9.535406	-0.438203	0.739654	0.011088	0.005948	-0.008894	-0.598145	-0.117920	0.513672	-0.082923	-0.671336	0.105714	-0.728873
61676		9.526739	-0.412080	0.755617	0.009733	0.004326	-0.008474	-0.597900	-0.122070	0.520508	-0.082863	-0.671320	0.105577	-0.728915
61677		9.544690	-0.433025	0.759117	0.006792	0.002898	-0.007666	-0.591553	-0.122070	0.516113	-0.082837	-0.671341	0.105460	-0.728915
61678		9.527962	-0.423364	0.723948	0.001345	0.001730	-0.007142	-0.598145	-0.117920	0.513672	-0.082880	-0.671366	0.105405	-0.728896
61679		9.527137	-0.424760	0.703064	-0.001989	0.004348	-0.006890	-0.595947	-0.119873	0.516113	-0.082901	-0.671323	0.105384	-0.728936
61680		9.544803	-0.424569	0.716882	-0.001788	0.004793	-0.006514	-0.595947	-0.117920	0.522705	-0.082932	-0.671302	0.105358	-0.728956
61681		9.522478	-0.422088	0.696749	-0.005806	0.005661	-0.006898	-0.600098	-0.122070	0.518311	-0.082948	-0.671312	0.105341	-0.728946
61682		9.519823	-0.433216	0.678322	-0.005160	0.009670	-0.005919	-0.593750	-0.119873	0.518311	-0.083012	-0.671240	0.105342	-0.729006
61683		9.530979	-0.442856	0.686839	-0.000162	0.015270	-0.008344	-0.600098	-0.124268	0.513916	-0.083047	-0.671163	0.105265	-0.729083
61684		9.526990	-0.438237	0.703704	-0.000403	0.017085	-0.008375	-0.591553	-0.122070	0.513916	-0.083149	-0.671008	0.105214	-0.729221
61685		9.536505	-0.410795	0.756804	0.001507	0.017366	-0.007521	-0.595947	-0.115723	0.511475	-0.083217	-0.670904	0.105146	-0.729320
61686		9.552975	-0.458941	0.710217	0.016099	0.017291	-0.012938	-0.595947	-0.119873	0.513916	-0.083116	-0.670779	0.104898	-0.729482
61687		9.530196	-0.390961	0.789323	-0.012576	0.013530	-0.007410	-0.593750	-0.122070	0.516113	-0.083248	-0.670675	0.104959	-0.729554
61688		9.534802	-0.385385	0.756409	0.005867	0.012839	-0.007926	-0.597900	-0.124268	0.518555	-0.083254	-0.670628	0.104838	-0.729613
61689		9.537413	-0.439056	0.727289	-0.007328	0.011196	-0.006807	-0.597900	-0.122070	0.511719	-0.083370	-0.670577	0.104839	-0.729647
61690		9.547874	-0.405693	0.755905	-0.003703	0.011317	-0.005473	-0.593750	-0.122070	0.511719	-0.083447	-0.670467	0.104846	-0.729739
61691		9.535796	-0.421398	0.765661	-0.001350	0.010229	-0.004211	-0.595703	-0.122070	0.513916	-0.083500	-0.670399	0.104839	-0.729796
61692		9.536820	-0.438912	0.778763	-0.003536	0.004152	-0.005153	-0.600098	-0.122070	0.520508	-0.083549	-0.670394	0.104840	-0.729795
61693		9.525714	-0.423030	0.729793	-0.002708	0.006731	-0.005488	-0.597900	-0.124268	0.514160	-0.083537	-0.670398	0.104799	-0.729798
61694		9.540416	-0.413967	0.734312	0.000151	0.007748	-0.005799	-0.597900	-0.122070	0.509521	-0.083597	-0.670350	0.104762	-0.729841
61695		9.538226	-0.400433	0.747735	0.003452	0.007395	-0.005703	-0.593506	-0.124268	0.516357	-0.083618	-0.670262	0.104714	-0.729926
61696		9.542366	-0.423063	0.726544	0.002960	0.009149	-0.007460	-0.593506	-0.124268	0.516357	-0.083667	-0.670272	0.104622	-0.729924
61697		9.546268	-0.448974	0.749866	0.003844	0.006409	-0.006645	-0.599854	-0.126221	0.518555	-0.083696	-0.670309	0.104532	-0.729900
61698		9.523974	-0.400033	0.771969	-0.001372	0.006477	-0.007597	-0.597900	-0.122070	0.516113	-0.083782	-0.670312	0.104478	-0.729895
61699		9.529174	-0.416156	0.727384	0.001534	0.007111	-0.006556	-0.597900	-0.124268	0.514160	-0.083767	-0.670300	0.104407	-0.729918
61700		9.553430	-0.427637	0.739092	-0.003082	0.008512	-0.006382	-0.600098	-0.122070	0.513916	-0.083853	-0.670251	0.104391	-0.729956
61701		9.546617	-0.414532	0.744111	-0.000376	0.008701	-0.005717	-0.597900	-0.122070	0.509521	-0.083853	-0.670181	0.104353	-0.730025
61702		9.538100	-0.410816	0.750221	0.001851	0.005711	-0.007010	-0.602295	-0.122070	0.511719	-0.083883	-0.670114	0.104308	-0.730090
61703		9.527148	-0.419667	0.736055	0.001135	0.008096	-0.005612	-0.597900	-0.122070	0.513916	-0.083875	-0.670009	0.104265	-0.730193
61704		9.536961	-0.435151	0.700647	0.002056	0.010013	-0.009963	-0.597900	-0.119873	0.513916	-0.083895	-0.669965	0.104163	-0.730245
61705		9.534978	-0.396198	0.746650	0.005484	0.011568	-0.007306	-0.597900	-0.124268	0.514160	-0.083806	-0.669912	0.104043	-0.730322
61706		9.557443	-0.416861	0.760716	0.003693	0.011313	-0.007300	-0.597900	-0.122070	0.518311	-0.083839	-0.669864	0.103950	-0.730375
61707		9.532639	-0.405181	0.798029	0.008059	0.009853	-0.009194	-0.604248	-0.122070	0.509521	-0.083756	-0.669891	0.103771	-0.730385
61708		9.540303	-0.408556	0.774404	-0.000113	0.009558	-0.005827	-0.593506	-0.124268	0.518555	-0.083775	-0.669733	0.103748	-0.730531
61709		9.550156	-0.424350	0.739032	0.003659	0.008638	-0.007155	-0.602295	-0.120117	0.516113	-0.083772	-0.669815	0.103628	-0.730474
61710		9.538279	-0.389722	0.745957	0.005397	0.011153	-0.006815	-0.597900	-0.122070	0.509521	-0.083646	-0.669756	0.103499	-0.730560
61711		9.539934	-0.403623	0.781509	0.004972	0.009464	-0.005729	-0.597900	-0.122070	0.516113	-0.083644	-0.669671	0.103433	-0.730647
61712		9.553515	-0.400685	0.809358	0.005615	0.006664	-0.006638	-0.600098	-0.124268	0.513916	-0.083571	-0.669704	0.103308	-0.730644
61713		9.548717	-0.424733	0.770292	0.001119	0.004237	-0.002280	-0.602295	-0.120117	0.511719	-0.083564	-0.669695	0.103282	-0.730656
61714		9.539060	-0.403188	0.764454	0.005711	0.005897	-0.003939	-0.600098	-0.122070	0.513916	-0.083449	-0.669627	0.103206	-0.730742
61715		9.534452	-0.402485	0.757090	0.003328	0.004305	-0.005062	-0.595947	-0.117920	0.511719	-0.083396	-0.669627	0.103132	-0.730759
61716		9.546764	-0.406172	0.741198	0.002880	0.007550	-0.003777	-0.599854	-0.126221	0.514160	-0.083274	-0.669608	0.103077	-0.730798
61717		9.560309	-0.403895	0.769012	0.004070	0.008346	-0.003214	-0.602295	-0.119873	0.509521	-0.083308	-0.669578	0.103012	-0.730831
61718		9.550628	-0.407449	0.798388	0.001612	0.008215	-0.002159	-0.597900	-0.119873	0.516113	-0.083237	-0.669457	0.103001	-0.730951
61719		9.539069	-0.420355	0.762698	0.000942	0.006464	-0.002799	-0.595703	-0.124268	0.511963	-0.083116	-0.669492	0.102940	-0.730941
61720		9.536747	-0.407586	0.775983	0.000618	0.007864	-0.002344	-0.597900	-0.124268	0.516357	-0.083165	-0.669479	0.102929	-0.730949
61721		9.529238	-0.398250	0.759277	0.002355	0.008503	-0.003696	-0.602295	-0.122070	0.513916	-0.083151	-0.669502	0.102853	-0.730940
61722		9.574430	-0.392648	0.781174	-0.000649	0.006653	-0.002420	-0.604492	-0.120117	0.511719	-0.083106	-0.669458	0.102831	-0.730989
61723		9.547065	-0.419889	0.765751	0.000291	0.009263	-0.001889	-0.602051	-0.124268	0.513916	-0.083022	-0.669339	0.102816	-0.731110
61724		9.541284	-0.426114	0.782188	-0.001221	0.007989	-0.003690	-0.598145	-0.117920	0.518066	-0.083050	-0.669293	0.102787	-0.731153
61725		9.532701	-0.422988	0.788352	0.000169	0.007355	-0.004444	-0.602051	-0.128418	0.516357	-0.082882	-0.669353	0.102700	-0.731129
61726		9.539961	-0.405727	0.774192	-0.003356	0.006458	-0.003091	-0.597900	-0.122070	0.516113	-0.082983	-0.669354	0.102675	-0.731121
61727		9.543301	-0.410790	0.807317	-0.000302	0.006050	-0.004709	-0.599854	-0.128418	0.516357	-0.082943	-0.669401	0.102613	-0.731091
61728		9.550507	-0.418133	0.761384	-0.002216	0.007638	-0.003876	-0.600098	-0.122070	0.513916	-0.083043	-0.669415	0.102567	-0.731073
61729		9.548694	-0.426703	0.764640	-0.002143	0.008052	-0.004363	-0.606689	-0.120117	0.513916	-0.083033	-0.669388	0.102543	-0.731102
61730		9.541833	-0.414030	0.769188	-0.000378	0.005636	-0.004221	-0.600098	-0.119873	0.513916	-0.082935	-0.669317	0.102503	-0.731184
61731		9.546287	-0.412296	0.779446	0.003491	0.007807	-0.006169	-0.604248	-0.122070	0.509521	-0.082848	-0.669303	0.102414	-0.731219
61732		9.530359	-0.400077	0.767003	0.001901	0.007995	-0.005791	-0.600098	-0.124268	0.513916	-0.082857	-0.669185	0.102375	-0.731331
61733		9.545508	-0.412589	0.761897	0.001771	0.009840	-0.004960	-0.604248	-0.122070	0.509521	-0.082868	-0.669156	0.102302	-0.731367
61734		9.561194	-0.421894	0.778859	0.005563	0.011597	-0.006420	-0.597900	-0.122070	0.513916	-0.082854	-0.669017	0.102217	-0.731508
61735		9.567835	-0.382330	0.776009	0.006405	0.011120	-0.005258	-0.600098	-0.119873	0.511719	-0.082791	-0.669008	0.102102	-0.731539
61736		9.537648	-0.424413	0.786242	0.012522	0.014855	-0.006936	-0.600098	-0.124268	0.509521	-0.082671	-0.668923	0.101931	-0.731654
61737		9.547641	-0.415377	0.783786	0.003173	0.011877	-0.005854	-0.600098	-0.119873	0.509521	-0.082738	-0.668829	0.101873	-0.731740
61738		9.550852	-0.369998	0.815142	0.011148	0.007884	-0.006239	-0.595703	-0.122070	0.516113	-0.082640	-0.668782	0.101744	-0.731812
61739		9.560960	-0.411153	0.813809	0.003955	0.005259	-0.002572	-0.600098	-0.119873	0.511719	-0.082553	-0.668881	0.101659	-0.731743
61740		9.567159	-0.425068	0.790602	0.002915	0.005289	-0.004110	-0.600098	-0.119873	0.516113	-0.082480	-0.668875	0.101606	-0.731765
61741		9.534876	-0.430682	0.776108	-0.000116	0.006491	-0.004332	-0.604248	-0.124268	0.513916	-0.082383	-0.668913	0.101539	-0.731750
61742		9.545524	-0.418997	0.793411	0.001875	0.005318	-0.005647	-0.597900	-0.122070	0.513916	-0.082380	-0.668899	0.101453	-0.731775
61743		9.540881	-0.393356	0.817775	0.003585	0.005163	-0.005159	-0.606689	-0.117920	0.513672	-0.082341	-0.668947	0.101368	-0.731747
61744		9.569237	-0.432382	0.784322	0.000736	0.004138	-0.004863	-0.600098	-0.122070	0.513916	-0.082207	-0.668910	0.101310	-0.731805
61745		9.543710	-0.424499	0.798408	0.004329	0.005451	-0.006694	-0.604492	-0.120117	0.513916	-0.082168	-0.668937	0.101201	-0.731799
61746		9.540846	-0.413964	0.789753	0.003852	0.006022	-0.005268	-0.604248	-0.122070	0.511719	-0.082065	-0.668913	0.101106	-0.731846
61747		9.526015	-0.395565	0.819580	0.005035	0.002271	-0.006251	-0.602295	-0.117920	0.513672	-0.082024	-0.668902	0.101012	-0.731873
61748		9.545868	-0.407181	0.821437	0.002663	0.000674	-0.007382	-0.595703	-0.122070	0.511719	-0.081920	-0.668945	0.100927	-0.731857
61749		9.577119	-0.405123	0.794227	-0.000857	-0.000226	-0.006037	-0.604248	-0.124268	0.513916	-0.081966	-0.669029	0.100907	-0.731778
61750		9.547181	-0.397764	0.798397	0.001648	-0.000474	-0.005736	-0.604248	-0.124268	0.509521	-0.081957	-0.669066	0.100824	-0.731757
61751		9.536029	-0.435053	0.795090	-0.003058	-0.002173	-0.004957	-0.597900	-0.126221	0.511963	-0.082036	-0.669055	0.100837	-0.731756
61752		9.534995	-0.415186	0.783069	0.000987	-0.002225	-0.006378	-0.604248	-0.122070	0.509521	-0.082126	-0.669141	0.100787	-0.731674
61753		9.539102	-0.416122	0.769704	-0.000579	-0.001244	-0.007839	-0.602051	-0.124268	0.509521	-0.082168	-0.669125	0.100759	-0.731689
61754		9.537258	-0.374465	0.833995	0.002355	-0.003653	-0.005293	-0.602295	-0.119873	0.509521	-0.082206	-0.669152	0.100728	-0.731664
61755		9.526747	-0.408601	0.851025	0.002856	-0.009951	-0.005083	-0.602051	-0.124268	0.507324	-0.082149	-0.669231	0.100707	-0.731601
61756		9.450660	-0.386215	1.172105	-0.019375	-0.024848	-0.001158	-0.595703	-0.124268	0.514160	-0.082335	-0.669393	0.100952	-0.731398
61757		9.435922	-0.352990	1.178978	-0.095367	-0.059467	0.005659	-0.600098	-0.124268	0.513916	-0.082998	-0.669915	0.101942	-0.730708
61758		9.610045	-0.436944	0.896291	-0.105726	-0.102149	0.016197	-0.593506	-0.126221	0.514160	-0.083560	-0.670738	0.103153	-0.729718
61759		9.632996	0.389953	1.134597	-0.124164	-0.134164	0.036652	-0.591309	-0.126221	0.516357	-0.084104	-0.671838	0.104759	-0.728413
61760		9.628649	-0.570836	0.202501	-0.096912	-0.109851	0.054286	-0.595703	-0.122070	0.516113	-0.084274	-0.672727	0.106226	-0.727360
61761		9.531525	-0.561121	0.285376	-0.041089	-0.076801	0.045157	-0.591309	-0.128418	0.518555	-0.084001	-0.673317	0.107077	-0.726720
61762		9.493171	-0.650528	0.150343	-0.035708	-0.042650	0.031933	-0.595703	-0.124268	0.514160	-0.083976	-0.673673	0.107731	-0.726297
61763		9.475408	-0.551532	0.083802	0.005858	0.003250	0.015843	-0.593506	-0.126221	0.520752	-0.083757	-0.673578	0.107854	-0.726391
61764		9.490827	-0.579688	0.282591	0.041223	0.047653	0.001819	-0.591309	-0.126221	0.520752	-0.083411	-0.673239	0.107448	-0.726806
61765		9.605158	-0.548378	0.522775	0.039361	0.071803	-0.002420	-0.597900	-0.126221	0.518555	-0.083171	-0.672716	0.107004	-0.727383
61766		9.580884	-0.506089	0.585430	0.052212	0.079544	-0.008201	-0.595947	-0.119873	0.520508	-0.082879	-0.672079	0.106382	-0.728096
61767		9.575431	-0.408408	0.702977	0.079956	0.081058	-0.007954	-0.593750	-0.122070	0.516113	-0.082231	-0.671512	0.105495	-0.728822
61768		9.477976	-0.451496	0.907661	0.080833	0.070720	-0.006308	-0.597900	-0.122070	0.518311	-0.081661	-0.671023	0.104659	-0.729456
61769		9.572420	-0.460932	1.027724	0.037272	0.052156	-0.004552	-0.602051	-0.128418	0.516357	-0.081385	-0.670660	0.104221	-0.729883
61770		9.536160	-0.506315	0.948239	0.013011	0.029392	-0.001514	-0.602295	-0.120117	0.518311	-0.081369	-0.670433	0.104048	-0.730118
61771		9.488481	-0.349062	0.936539	0.023690	0.007701	-0.001240	-0.604492	-0.117920	0.513672	-0.081068	-0.670434	0.103792	-0.730187
61772		9.547081	-0.441202	0.855924	0.006314	-0.004225	0.000464	-0.602295	-0.122070	0.516113	-0.080891	-0.670454	0.103751	-0.730195
61773		9.571957	-0.500499	0.755769	0.004035	-0.012317	0.003663	-0.600098	-0.122070	0.516113	-0.080750	-0.670586	0.103747	-0.730089
61774		9.562562	-0.455527	0.711488	0.001002	-0.011111	0.003447	-0.595947	-0.117920	0.513916	-0.080653	-0.670719	0.103776	-0.729974
61775		9.497048	-0.475312	0.700557	0.013295	-0.008577	-0.000126	-0.602295	-0.117920	0.513672	-0.080474	-0.670847	0.103700	-0.729887
61776		9.529488	-0.468395	0.714476	0.016471	-0.008955	-0.000882	-0.595947	-0.115723	0.511475	-0.080248	-0.670927	0.103571	-0.729856
61777		9.582729	-0.518178	0.709331	0.003906	-0.008492	-0.000521	-0.593994	-0.113525	0.513672	-0.080154	-0.671013	0.103600	-0.729784
61778		9.490082	-0.514844	0.678956	0.023195	-0.007639	-0.004827	-0.598145	-0.119873	0.518311	-0.079889	-0.671150	0.103404	-0.729714
61779		9.471161	-0.447161	0.695303	0.024128	-0.005029	-0.004294	-0.595947	-0.119873	0.518311	-0.079656	-0.671282	0.103149	-0.729654
61780		9.505258	-0.479090	0.711182	0.020429	-0.007452	-0.006842	-0.595703	-0.124268	0.514160	-0.079492	-0.671449	0.102918	-0.729552
61781		9.564739	-0.492348	0.679785	0.011019	-0.002435	-0.007038	-0.600342	-0.115723	0.518066	-0.079538	-0.671516	0.102802	-0.729501
61782		9.556254	-0.512972	0.652571	0.013443	0.002628	-0.007894	-0.598145	-0.117920	0.518066	-0.079374	-0.671541	0.102608	-0.729523
61783		9.514045	-0.474868	0.706941	0.022714	0.003308	-0.010194	-0.598145	-0.115723	0.515869	-0.079204	-0.671589	0.102318	-0.729538
61784		9.533466	-0.438944	0.751047	0.020651	0.002191	-0.010078	-0.600098	-0.119873	0.511719	-0.079041	-0.671620	0.102068	-0.729563
61785		9.544619	-0.521900	0.662458	0.008971	0.002968	-0.010397	-0.598389	-0.111572	0.517822	-0.079084	-0.671576	0.101946	-0.729615
61786		9.545293	-0.515816	0.685402	0.017661	0.006863	-0.012277	-0.595947	-0.115723	0.515869	-0.078887	-0.671581	0.101683	-0.729669
61787		9.505237	-0.439050	0.726292	0.020057	0.007373	-0.014677	-0.600342	-0.115723	0.518066	-0.078797	-0.671587	0.101402	-0.729712
61788		9.539890	-0.465626	0.766512	0.012628	0.002808	-0.014409	-0.593994	-0.115723	0.522461	-0.078716	-0.671617	0.101162	-0.729727
61789		9.558622	-0.481901	0.725414	0.003238	0.002090	-0.012975	-0.595947	-0.119873	0.520508	-0.078689	-0.671732	0.101007	-0.729645
61790		9.546885	-0.495508	0.733314	0.006875	0.003020	-0.013464	-0.593994	-0.111572	0.513672	-0.078710	-0.671808	0.100822	-0.729598
61791		9.499982	-0.432178	0.743999	0.007124	0.001206	-0.013427	-0.595703	-0.122070	0.516113	-0.078688	-0.671839	0.100708	-0.729588
61792		9.524998	-0.414012	0.740769	-0.001902	-0.003969	-0.010948	-0.598145	-0.117920	0.515869	-0.078834	-0.671923	0.100672	-0.729500
61793		9.520757	-0.486711	0.702334	-0.000340	-0.004949	-0.009487	-0.593750	-0.119873	0.511719	-0.078876	-0.671991	0.100629	-0.729439
61794		9.542907	-0.485212	0.656976	-0.002235	-0.000689	-0.008808	-0.600342	-0.115723	0.515869	-0.079031	-0.672006	0.100657	-0.729404
61795		9.533471	-0.486572	0.684606	0.005748	0.002635	-0.014511	-0.593994	-0.113525	0.515869	-0.079025	-0.672000	0.100499	-0.729432
61796		9.512079	-0.454563	0.716727	-0.002321	0.000861	-0.013342	-0.595947	-0.115723	0.520264	-0.079074	-0.672044	0.100447	-0.729394
61797		9.522238	-0.443975	0.645323	-0.004666	0.004606	-0.014762	-0.595947	-0.119873	0.520508	-0.079139	-0.672082	0.100362	-0.729363
61798		9.533667	-0.451503	0.652557	0.000568	0.008027	-0.015775	-0.597900	-0.124268	0.514160	-0.079233	-0.672098	0.100220	-0.729358
61799		9.546246	-0.452378	0.703354	0.001953	0.007394	-0.016524	-0.597900	-0.122070	0.513916	-0.079438	-0.672049	0.100106	-0.729395
61800		9.531491	-0.431789	0.734431	-0.005571	0.011887	-0.014043	-0.600098	-0.122070	0.513916	-0.079654	-0.671948	0.100077	-0.729470
61801		9.520173	-0.442131	0.699593	-0.002076	0.010117	-0.015243	-0.604492	-0.120117	0.516113	-0.079829	-0.671855	0.099997	-0.729547
61802		9.541666	-0.442041	0.702307	0.001966	0.012740	-0.016815	-0.597900	-0.119873	0.516113	-0.079906	-0.671738	0.099826	-0.729670
61803		9.516133	-0.432080	0.718067	-0.004141	0.010873	-0.013442	-0.597900	-0.124268	0.518555	-0.080033	-0.671674	0.099769	-0.729722
61804		9.581992	-0.381004	0.716117	-0.003565	0.009541	-0.012168	-0.593506	-0.124268	0.511963	-0.080182	-0.671647	0.099706	-0.729740
61805		9.555789	-0.452445	0.726030	0.001537	0.012934	-0.014036	-0.597900	-0.124268	0.511963	-0.080395	-0.671564	0.099644	-0.729801
61806		9.547218	-0.447216	0.733167	-0.002315	0.010754	-0.012090	-0.597900	-0.122070	0.516113	-0.080585	-0.671469	0.099614	-0.729872
61807		9.524391	-0.422107	0.724119	0.002565	0.010237	-0.012350	-0.602295	-0.122070	0.520508	-0.080664	-0.671423	0.099508	-0.729920
61808		9.522211	-0.431803	0.706157	-0.004957	0.008287	-0.013104	-0.602295	-0.120117	0.518311	-0.080745	-0.671401	0.099420	-0.729943
61809		9.559985	-0.414970	0.709806	-0.000934	0.010122	-0.012836	-0.595947	-0.115723	0.520264	-0.080776	-0.671347	0.099304	-0.730005
61810		9.546013	-0.441336	0.699886	0.005613	0.015183	-0.014247	-0.606445	-0.124268	0.518311	-0.080731	-0.671312	0.099123	-0.730067
61811		9.553278	-0.446363	0.722366	-0.002573	0.016026	-0.014102	-0.597900	-0.119873	0.513916	-0.080821	-0.671183	0.098987	-0.730194
61812		9.543843	-0.419105	0.740735	0.005411	0.017408	-0.014763	-0.595703	-0.128418	0.516357	-0.080883	-0.671065	0.098840	-0.730315
61813		9.528265	-0.401713	0.751985	0.004222	0.016603	-0.015325	-0.593506	-0.126221	0.514160	-0.081064	-0.670995	0.098698	-0.730379
61814		9.524888	-0.417237	0.758636	0.000444	0.014832	-0.013871	-0.600098	-0.122070	0.513916	-0.081263	-0.670930	0.098631	-0.730426
61815		9.546989	-0.414385	0.717615	0.001233	0.014741	-0.014056	-0.598145	-0.119873	0.518311	-0.081355	-0.670825	0.098519	-0.730527
61816		9.549343	-0.394976	0.763238	0.005388	0.017406	-0.014753	-0.597900	-0.124268	0.511963	-0.081369	-0.670752	0.098342	-0.730616
61817		9.552046	-0.400798	0.777100	-0.003744	0.014042	-0.011481	-0.602051	-0.124268	0.509521	-0.081534	-0.670646	0.098323	-0.730697
61818		9.544965	-0.386564	0.783180	-0.000520	0.013302	-0.010875	-0.600098	-0.122070	0.513916	-0.081653	-0.670508	0.098273	-0.730818
61819		9.541640	-0.431004	0.735881	-0.003416	0.012643	-0.011930	-0.597900	-0.119873	0.507324	-0.081752	-0.670424	0.098222	-0.730890
61820		9.539792	-0.385113	0.759001	-0.004757	0.012891	-0.009836	-0.595703	-0.124268	0.511963	-0.081877	-0.670293	0.098248	-0.730993
61821		9.552641	-0.384388	0.766475	-0.003773	0.013248	-0.009644	-0.595703	-0.128418	0.518555	-0.082030	-0.670215	0.098258	-0.731046
61822		9.548505	-0.407437	0.729303	-0.001326	0.013391	-0.010683	-0.597900	-0.119873	0.513916	-0.082181	-0.670196	0.098209	-0.731053
61823		9.537026	-0.418569	0.761344	-0.006202	0.014686	-0.012266	-0.604248	-0.124268	0.511719	-0.082283	-0.670111	0.098186	-0.731123
61824		9.557149	-0.400927	0.753204	-0.008318	0.013144	-0.011676	-0.595703	-0.122070	0.507324	-0.082425	-0.669985	0.098173	-0.731223
61825		9.577313	-0.408234	0.779785	-0.002332	0.015705	-0.011012	-0.600098	-0.122070	0.516113	-0.082569	-0.669857	0.098174	-0.731325
61826		9.541594	-0.354532	0.754314	-0.002169	0.014568	-0.006971	-0.597900	-0.122070	0.516113	-0.082582	-0.669783	0.098139	-0.731396
61827		9.546787	-0.373548	0.756229	-0.000549	0.013301	-0.010859	-0.600098	-0.124268	0.513916	-0.082629	-0.669741	0.098070	-0.731438
61828		9.546707	-0.395833	0.793600	0.005263	0.010074	-0.010282	-0.604248	-0.126465	0.516357	-0.082647	-0.669705	0.097959	-0.731484
61829		9.531098	-0.379809	0.802909	0.006574	0.008244	-0.008709	-0.604248	-0.126465	0.516357	-0.082620	-0.669684	0.097821	-0.731525
61830		9.557922	-0.377714	0.768963	0.000425	0.006732	-0.006717	-0.602051	-0.124268	0.511719	-0.082622	-0.669668	0.097756	-0.731548
61831		9.547423	-0.411498	0.789386	0.005833	0.007954	-0.007177	-0.600098	-0.124268	0.509521	-0.082603	-0.669622	0.097670	-0.731604
61832		9.554018	-0.368399	0.806624	0.000050	0.003165	-0.007326	-0.593506	-0.124268	0.518555	-0.082658	-0.669608	0.097664	-0.731611
61833		9.554321	-0.394949	0.754246	-0.001029	0.004273	-0.005345	-0.602051	-0.126221	0.509766	-0.082691	-0.669687	0.097672	-0.731534
61834		9.543858	-0.404039	0.739315	0.006182	0.003887	-0.007483	-0.597656	-0.128418	0.509766	-0.082702	-0.669665	0.097597	-0.731563
61835		9.534613	-0.375391	0.776543	0.003911	0.006858	-0.006214	-0.600098	-0.122070	0.513916	-0.082784	-0.669635	0.097580	-0.731583
61836		9.564657	-0.379524	0.773973	-0.003276	0.005363	-0.005764	-0.602051	-0.124268	0.509521	-0.082797	-0.669630	0.097591	-0.731585
61837		9.541156	-0.387205	0.755226	0.001732	0.008363	-0.007117	-0.597656	-0.128418	0.514160	-0.082822	-0.669561	0.097555	-0.731650
61838		9.551483	-0.375028	0.773253	-0.000335	0.009112	-0.005329	-0.599854	-0.126221	0.514160	-0.082905	-0.669541	0.097562	-0.731658
61839		9.557089	-0.391571	0.795612	0.005345	0.008527	-0.005751	-0.595703	-0.124268	0.514160	-0.082900	-0.669521	0.097500	-0.731685
61840		9.554137	-0.381258	0.787245	0.001198	0.005850	-0.005067	-0.599854	-0.126221	0.516357	-0.082927	-0.669542	0.097506	-0.731662
61841		9.535077	-0.388361	0.777231	0.003315	0.008186	-0.007482	-0.602295	-0.122070	0.509521	-0.082943	-0.669541	0.097440	-0.731669
61842		9.547691	-0.391331	0.762031	0.003370	0.007808	-0.006135	-0.600098	-0.122070	0.516113	-0.082914	-0.669479	0.097394	-0.731736
61843		9.557421	-0.385271	0.737173	0.006128	0.011900	-0.007905	-0.599854	-0.126221	0.511963	-0.082866	-0.669445	0.097291	-0.731786
61844		9.544841	-0.375410	0.778717	0.003361	0.011268	-0.008108	-0.595703	-0.128418	0.509766	-0.082914	-0.669387	0.097235	-0.731841
61845		9.546516	-0.360770	0.801631	0.007766	0.011345	-0.006922	-0.600098	-0.124268	0.507324	-0.082983	-0.669338	0.097186	-0.731885
61846		9.551813	-0.380113	0.802941	0.002428	0.010530	-0.006955	-0.602295	-0.122070	0.511719	-0.083026	-0.669251	0.097164	-0.731962
61847		9.545981	-0.360572	0.784897	0.004156	0.007718	-0.006315	-0.599854	-0.126221	0.511963	-0.082980	-0.669213	0.097102	-0.732010
61848		9.552902	-0.370756	0.783921	0.001639	0.007157	-0.004798	-0.604248	-0.124268	0.509521	-0.083009	-0.669191	0.097097	-0.732028
61849		9.555403	-0.381556	0.774415	0.004603	0.009027	-0.006046	-0.602051	-0.128418	0.505371	-0.082981	-0.669118	0.097033	-0.732107
61850		9.558109	-0.389447	0.786864	-0.001310	0.010250	-0.002490	-0.600098	-0.124268	0.507324	-0.083059	-0.669006	0.097088	-0.732193
61851		9.565454	-0.369029	0.795100	0.000946	0.009950	-0.003897	-0.600098	-0.124268	0.511719	-0.083085	-0.668926	0.097108	-0.732260
61852		9.548384	-0.361069	0.827150	-0.001360	0.007167	-0.001861	-0.597900	-0.119873	0.513916	-0.083088	-0.668898	0.097154	-0.732279
61853		9.546237	-0.376762	0.787185	-0.006850	0.008194	-0.001072	-0.599854	-0.128418	0.516357	-0.083085	-0.668880	0.097251	-0.732283
61854		9.548938	-0.385467	0.799180	-0.003676	0.007843	-0.001799	-0.604248	-0.126465	0.511963	-0.083142	-0.668878	0.097315	-0.732270
61855		9.550345	-0.375750	0.799588	-0.002636	0.007826	-0.000259	-0.599854	-0.128418	0.509766	-0.083135	-0.668825	0.097366	-0.732312
61856		9.543172	-0.364194	0.804096	-0.002894	0.006965	-0.000150	-0.604248	-0.124268	0.516113	-0.083195	-0.668786	0.097459	-0.732329
61857		9.533950	-0.393346	0.801671	-0.000345	0.009820	-0.000461	-0.597900	-0.124268	0.514160	-0.083134	-0.668746	0.097471	-0.732371
61858		9.539542	-0.386207	0.789252	0.007673	0.005895	-0.000788	-0.602051	-0.124268	0.509521	-0.083060	-0.668767	0.097455	-0.732362
61859		9.548620	-0.378297	0.851252	0.004116	0.005349	-0.000815	-0.599854	-0.128418	0.509766	-0.083003	-0.668740	0.097461	-0.732392
61860		9.591248	-0.391538	0.809787	-0.001353	0.003706	0.000113	-0.602051	-0.126221	0.505371	-0.083045	-0.668734	0.097546	-0.732382
61861		9.563391	-0.425907	0.816331	0.004854	0.005638	-0.002342	-0.606445	-0.124268	0.509521	-0.083033	-0.668680	0.097547	-0.732433
61862		9.530607	-0.382999	0.798240	-0.001409	0.004083	-0.001233	-0.600098	-0.124268	0.509521	-0.082991	-0.668641	0.097575	-0.732469
61863		9.576295	-0.401623	0.788518	0.002091	0.005005	-0.002551	-0.602295	-0.117920	0.509277	-0.082984	-0.668627	0.097600	-0.732479
61864		9.548919	-0.404362	0.803657	0.005199	0.004242	-0.002791	-0.602051	-0.124268	0.511719	-0.082863	-0.668612	0.097568	-0.732511
61865		9.550219	-0.397569	0.781694	-0.001220	0.004531	-0.000857	-0.604248	-0.128418	0.518555	-0.082847	-0.668603	0.097622	-0.732513
61866		9.544565	-0.400833	0.818800	0.003868	0.005278	-0.002536	-0.597900	-0.122070	0.507324	-0.082812	-0.668630	0.097591	-0.732497
61867		9.537182	-0.416568	0.835761	0.001900	0.004557	-0.002927	-0.599854	-0.126221	0.509766	-0.082813	-0.668616	0.097633	-0.732504
61868		9.545794	-0.393084	0.798188	0.001362	0.005505	-0.002854	-0.595703	-0.128418	0.514160	-0.082842	-0.668601	0.097670	-0.732510
61869		9.565994	-0.377386	0.788253	0.006370	0.005051	-0.002217	-0.599854	-0.126221	0.509766	-0.082867	-0.668640	0.097688	-0.732469
61870		9.570018	-0.404404	0.811150	-0.002016	0.004618	-0.000677	-0.599854	-0.126221	0.514160	-0.082903	-0.668626	0.097776	-0.732466
61871		9.542277	-0.413919	0.783144	0.000567	0.005592	-0.002673	-0.604248	-0.124268	0.507324	-0.082927	-0.668636	0.097816	-0.732449
61872		9.537957	-0.410789	0.797583	0.002118	0.007298	-0.001346	-0.604248	-0.126465	0.511963	-0.082886	-0.668569	0.097829	-0.732512
61873		9.568279	-0.387490	0.782392	0.008951	0.006025	-0.004210	-0.602051	-0.124268	0.507324	-0.082829	-0.668555	0.097758	-0.732542
61874		9.549263	-0.395354	0.772535	0.003679	0.009792	-0.001850	-0.606445	-0.120117	0.507324	-0.082803	-0.668478	0.097766	-0.732614
61875		9.548655	-0.425794	0.766633	0.004995	0.012214	-0.004076	-0.600098	-0.124268	0.511719	-0.082710	-0.668366	0.097705	-0.732735
61876		9.550435	-0.405353	0.833027	0.008424	0.012724	-0.004904	-0.606445	-0.120117	0.509521	-0.082685	-0.668309	0.097651	-0.732797
61877		9.547575	-0.391978	0.847084	0.005556	0.008596	-0.004004	-0.602295	-0.119873	0.505127	-0.082582	-0.668246	0.097589	-0.732874
61878		9.556069	-0.392990	0.844547	0.006053	0.004566	-0.003449	-0.600098	-0.124268	0.505127	-0.082508	-0.668212	0.097566	-0.732916
61879		9.564612	-0.394020	0.841479	0.005863	0.004117	-0.003825	-0.600098	-0.124268	0.511719	-0.082506	-0.668191	0.097569	-0.732935
61880		9.564178	-0.402655	0.777868	0.001906	0.005342	-0.004755	-0.600098	-0.117920	0.509277	-0.082531	-0.668197	0.097586	-0.732925
61881		9.549602	-0.409457	0.776298	0.004070	0.007301	-0.005815	-0.602295	-0.117920	0.504883	-0.082483	-0.668173	0.097557	-0.732956
61882		9.538159	-0.415458	0.850097	0.000544	0.009047	-0.004647	-0.602051	-0.126221	0.507568	-0.082449	-0.668094	0.097561	-0.733031
61883		9.558487	-0.395844	0.861978	0.004447	0.003235	-0.006119	-0.600098	-0.124268	0.507324	-0.082482	-0.668092	0.097551	-0.733031
61884		9.566974	-0.399800	0.836883	-0.001619	0.002125	-0.004646	-0.608643	-0.122070	0.513916	-0.082544	-0.668098	0.097615	-0.733010
61885		9.539288	-0.411807	0.786692	0.002065	0.003497	-0.005580	-0.602051	-0.124268	0.509521	-0.082480	-0.668101	0.097566	-0.733021
61886		9.538087	-0.388684	0.797781	0.004349	0.005492	-0.005777	-0.608643	-0.120117	0.511719	-0.082485	-0.668089	0.097547	-0.733033
61887		9.549571	-0.394898	0.826584	0.003112	0.004270	-0.005867	-0.606445	-0.126465	0.516357	-0.082398	-0.668074	0.097483	-0.733065
61888		9.550844	-0.411916	0.838947	-0.000155	0.001913	-0.005866	-0.597900	-0.124268	0.511963	-0.082411	-0.668113	0.097474	-0.733029
61889		9.541021	-0.390026	0.831447	0.002729	-0.002378	-0.005848	-0.597656	-0.128418	0.511963	-0.082447	-0.668202	0.097498	-0.732941
61890		9.574343	-0.375277	0.824379	-0.002517	-0.001283	-0.003354	-0.606445	-0.124268	0.511719	-0.082552	-0.668272	0.097603	-0.732852
61891		9.572176	-0.425726	0.752303	-0.017477	0.000407	0.000917	-0.602051	-0.124268	0.511719	-0.082631	-0.668269	0.097815	-0.732817
61892		9.545880	-0.453532	0.735390	0.007842	0.006419	-0.007085	-0.602051	-0.124268	0.511719	-0.082612	-0.668264	0.097749	-0.732833
61893		9.544906	-0.420391	0.812037	0.000290	0.008973	-0.006367	-0.602051	-0.124268	0.513916	-0.082654	-0.668226	0.097757	-0.732861
61894		9.545127	-0.387579	0.822696	0.004379	0.008575	-0.006402	-0.600098	-0.122070	0.507324	-0.082657	-0.668210	0.097726	-0.732880
61895		9.573586	-0.404100	0.800814	0.003208	0.007764	-0.006976	-0.600098	-0.122070	0.505127	-0.082678	-0.668171	0.097716	-0.732914
61896		9.560868	-0.369741	0.806599	0.004728	0.007178	-0.006849	-0.602295	-0.122070	0.505127	-0.082688	-0.668128	0.097697	-0.732955
61897		9.544560	-0.413631	0.819537	0.000801	0.005730	-0.007640	-0.602051	-0.124268	0.507324	-0.082719	-0.668087	0.097694	-0.732989
61898		9.549318	-0.373618	0.881196	0.002312	0.004358	-0.005684	-0.599854	-0.128418	0.507568	-0.082739	-0.668072	0.097701	-0.733000
61899		9.561743	-0.414650	0.813270	-0.006751	0.002530	-0.006155	-0.602051	-0.124268	0.511719	-0.082899	-0.668074	0.097818	-0.732964
61900		9.564684	-0.397316	0.789995	-0.004373	0.008020	-0.007462	-0.602295	-0.120117	0.513916	-0.082989	-0.668044	0.097865	-0.732975
61901		9.571696	-0.407141	0.789151	-0.001078	0.007711	-0.007316	-0.604248	-0.126465	0.505371	-0.083001	-0.668031	0.097866	-0.732985
61902		9.568920	-0.389905	0.823983	0.001303	0.007452	-0.007851	-0.606445	-0.122070	0.505127	-0.083057	-0.667972	0.097856	-0.733034
61903		9.528484	-0.393451	0.813218	0.004093	0.005422	-0.007491	-0.600098	-0.124268	0.505127	-0.083019	-0.667925	0.097797	-0.733089
61904		9.558580	-0.400343	0.789311	0.000123	0.005853	-0.006597	-0.604248	-0.124268	0.507324	-0.083083	-0.667893	0.097831	-0.733107
61905		9.557045	-0.404853	0.814027	0.004849	0.008004	-0.007811	-0.602051	-0.124268	0.509521	-0.083084	-0.667844	0.097781	-0.733157
61906		9.572869	-0.388531	0.796424	-0.002643	0.010961	-0.007585	-0.604248	-0.128418	0.507568	-0.083166	-0.667781	0.097812	-0.733202
61907		9.556994	-0.373042	0.805883	0.005667	0.010999	-0.008613	-0.606445	-0.126465	0.507568	-0.083217	-0.667709	0.097762	-0.733268
61908		9.536661	-0.379607	0.862539	0.003256	0.008176	-0.007451	-0.602051	-0.126221	0.509766	-0.083236	-0.667653	0.097726	-0.733322
61909		9.559444	-0.399775	0.876424	0.002994	0.006529	-0.005516	-0.600098	-0.124268	0.511719	-0.083267	-0.667637	0.097736	-0.733331
61910		9.571017	-0.384568	0.848981	0.003575	0.002914	-0.005444	-0.597900	-0.122070	0.511719	-0.083282	-0.667672	0.097750	-0.733296
61911		9.562334	-0.384734	0.832456	-0.002338	0.004910	-0.003750	-0.599854	-0.126221	0.505371	-0.083326	-0.667687	0.097835	-0.733266
61912		9.554915	-0.406651	0.806353	0.000424	0.006337	-0.005358	-0.604248	-0.124268	0.507324	-0.083394	-0.667655	0.097884	-0.733281
61913		9.544935	-0.378275	0.843477	0.002618	0.005631	-0.006268	-0.604248	-0.126465	0.511963	-0.083395	-0.667628	0.097871	-0.733307
61914		9.572292	-0.369998	0.852368	0.003759	0.003363	-0.005065	-0.595703	-0.122070	0.511719	-0.083398	-0.667644	0.097871	-0.733292
61915		9.560400	-0.423926	0.808663	0.000284	0.004727	-0.002562	-0.602051	-0.126221	0.507568	-0.083427	-0.667670	0.097957	-0.733254
61916		9.556225	-0.392208	0.809629	0.004933	0.004962	-0.006317	-0.602051	-0.124268	0.511719	-0.083446	-0.667660	0.097945	-0.733262
61917		9.566295	-0.379857	0.827097	-0.002018	0.006966	-0.006169	-0.604248	-0.126465	0.514160	-0.083507	-0.667645	0.097992	-0.733263
61918		9.569000	-0.390483	0.817726	0.003075	0.010020	-0.006623	-0.604248	-0.126465	0.503174	-0.083542	-0.667611	0.097985	-0.733291
61919		9.557411	-0.374851	0.835474	0.001900	0.008421	-0.005371	-0.604248	-0.126465	0.511963	-0.083562	-0.667538	0.097986	-0.733355
61920		9.547161	-0.381237	0.842905	0.002499	0.007101	-0.004096	-0.597900	-0.122070	0.511719	-0.083574	-0.667518	0.098007	-0.733369
61921		9.548573	-0.370581	0.842916	0.000896	0.004977	-0.004943	-0.602051	-0.126221	0.509766	-0.083607	-0.667538	0.098059	-0.733340
61922		9.562816	-0.395679	0.817242	0.002669	0.005256	-0.004921	-0.602051	-0.124268	0.502930	-0.083635	-0.667533	0.098083	-0.733338
61923		9.552571	-0.398895	0.845899	0.000908	0.007271	-0.003741	-0.602295	-0.122070	0.511719	-0.083636	-0.667476	0.098111	-0.733386
61924		9.561272	-0.368621	0.851724	0.000830	0.004565	-0.004459	-0.599854	-0.128418	0.505371	-0.083633	-0.667484	0.098142	-0.733375
61925		9.566865	-0.388831	0.851538	-0.002475	0.004083	-0.002784	-0.602051	-0.126221	0.509766	-0.083716	-0.667470	0.098249	-0.733364
61926		9.569712	-0.403544	0.819260	0.000995	0.001935	-0.003456	-0.604248	-0.126465	0.507568	-0.083742	-0.667492	0.098306	-0.733333
61927		9.569697	-0.402711	0.819844	0.000451	0.002881	-0.003385	-0.606445	-0.126465	0.503174	-0.083754	-0.667488	0.098351	-0.733329
61928		9.569794	-0.370639	0.829198	0.001679	0.004106	-0.003291	-0.602051	-0.126221	0.507568	-0.083729	-0.667447	0.098361	-0.733368
61929		9.565168	-0.432988	0.804549	0.001135	0.005052	-0.003221	-0.608398	-0.130615	0.509766	-0.083752	-0.667432	0.098413	-0.733373
61930		9.532095	-0.380249	0.850956	0.004866	0.006060	-0.002797	-0.610840	-0.122070	0.511719	-0.083745	-0.667398	0.098420	-0.733403
61931		9.576715	-0.379664	0.830316	0.000034	0.004650	-0.004282	-0.599854	-0.126221	0.509766	-0.083686	-0.667378	0.098413	-0.733429
61932		9.576660	-0.378916	0.831286	-0.000038	0.003453	-0.001970	-0.599854	-0.126221	0.505371	-0.083726	-0.667391	0.098506	-0.733400
61933		9.553481	-0.381331	0.854666	0.005095	0.003842	-0.002276	-0.606201	-0.128418	0.505371	-0.083717	-0.667388	0.098541	-0.733400
61934		9.560639	-0.395465	0.831320	-0.000159	0.003415	-0.002831	-0.602051	-0.126221	0.514160	-0.083733	-0.667363	0.098590	-0.733414
61935		9.563499	-0.410258	0.799354	0.002048	0.005005	-0.002536	-0.602051	-0.126221	0.505371	-0.083759	-0.667377	0.098658	-0.733389
61936		9.554664	-0.400982	0.847822	0.004429	0.004750	-0.003066	-0.606445	-0.126465	0.505371	-0.083747	-0.667358	0.098677	-0.733405
61937		9.580605	-0.371595	0.866407	0.000135	0.001608	-0.002795	-0.602051	-0.128418	0.507568	-0.083734	-0.667350	0.098716	-0.733408
61938		9.574838	-0.419014	0.807869	0.002823	0.001841	-0.002086	-0.604248	-0.124268	0.505127	-0.083753	-0.667365	0.098778	-0.733384
61939		9.557583	-0.417709	0.795144	0.002406	0.003609	-0.002983	-0.606445	-0.122070	0.509521	-0.083717	-0.667347	0.098795	-0.733402
61940		9.564741	-0.393969	0.823355	0.003865	0.002617	-0.002369	-0.604248	-0.124268	0.507324	-0.083637	-0.667352	0.098795	-0.733407
61941		9.545837	-0.395516	0.855578	0.007971	0.005310	-0.003016	-0.606445	-0.124268	0.502930	-0.083566	-0.667334	0.098767	-0.733435
61942		9.573220	-0.390871	0.842814	0.010213	0.001938	-0.003778	-0.604248	-0.128418	0.507568	-0.083453	-0.667325	0.098692	-0.733466
61943		9.560238	-0.423149	0.808920	0.003446	0.004385	-0.003266	-0.606201	-0.130615	0.507568	-0.083470	-0.667312	0.098728	-0.733472
61944		9.540015	-0.406040	0.829526	0.007414	0.003961	-0.004147	-0.604248	-0.122070	0.507324	-0.083470	-0.667301	0.098720	-0.733483
61945		9.555894	-0.387288	0.831965	0.001722	0.001437	-0.003147	-0.604248	-0.126465	0.507568	-0.083428	-0.667313	0.098744	-0.733473
61946		9.570142	-0.406147	0.848796	0.004535	0.002493	-0.003405	-0.600098	-0.124268	0.509521	-0.083415	-0.667319	0.098763	-0.733467
61947		9.560015	-0.412783	0.854761	0.005625	0.000602	-0.003543	-0.602051	-0.126221	0.507568	-0.083404	-0.667364	0.098792	-0.733423
61948		9.561608	-0.405549	0.831835	0.001167	0.000087	-0.004278	-0.599854	-0.128418	0.507568	-0.083438	-0.667395	0.098848	-0.733383
61949		9.563124	-0.395076	0.830399	0.003789	-0.000090	-0.003085	-0.604248	-0.126465	0.511963	-0.083478	-0.667434	0.098916	-0.733334
61950		9.553187	-0.408385	0.792899	0.003123	0.000817	-0.003876	-0.606445	-0.122070	0.516113	-0.083492	-0.667471	0.098959	-0.733293
61951		9.551636	-0.413560	0.816373	0.004412	0.002454	-0.004265	-0.602295	-0.122070	0.511719	-0.083455	-0.667504	0.098966	-0.733267
61952		9.550224	-0.390580	0.826851	0.004106	0.001965	-0.005502	-0.597900	-0.124268	0.505127	-0.083445	-0.667537	0.098975	-0.733236
61953		9.564520	-0.409146	0.843410	0.002810	-0.000455	-0.003285	-0.606445	-0.122070	0.507324	-0.083452	-0.667575	0.099029	-0.733193
61954		9.548767	-0.394631	0.849743	0.004388	-0.002920	-0.004836	-0.602295	-0.122070	0.505127	-0.083379	-0.667623	0.099003	-0.733161
61955		9.570551	-0.400056	0.828006	0.001760	-0.003527	-0.004202	-0.597900	-0.124268	0.509521	-0.083344	-0.667676	0.099024	-0.733114
61956		9.567690	-0.418213	0.830443	0.001038	-0.000736	-0.003310	-0.606445	-0.126465	0.509766	-0.083381	-0.667731	0.099108	-0.733049
61957		9.544815	-0.395632	0.818002	0.001710	-0.000860	-0.004346	-0.606445	-0.124268	0.507324	-0.083383	-0.667763	0.099140	-0.733015
61958		9.557823	-0.396040	0.822246	-0.002022	-0.002655	-0.002945	-0.606201	-0.128418	0.511963	-0.083368	-0.667797	0.099198	-0.732978
61959		9.554978	-0.414391	0.824463	-0.001413	-0.003189	-0.003498	-0.602051	-0.124268	0.511719	-0.083414	-0.667854	0.099285	-0.732909
61960		9.563892	-0.422169	0.776433	-0.000620	-0.003274	-0.003674	-0.598145	-0.117920	0.511475	-0.083440	-0.667924	0.099366	-0.732831
61961		9.552346	-0.403641	0.813022	0.002565	-0.000533	-0.005006	-0.604248	-0.124268	0.505127	-0.083414	-0.667986	0.099392	-0.732774
61962		9.535160	-0.367546	0.829090	-0.001540	-0.004012	-0.002530	-0.597900	-0.124268	0.509521	-0.083393	-0.668028	0.099452	-0.732730
61963		9.571314	-0.396513	0.801760	-0.000995	-0.004957	-0.002599	-0.606201	-0.128418	0.505371	-0.083427	-0.668114	0.099560	-0.732633
61964		9.559419	-0.393197	0.937037	-0.002645	-0.005200	-0.001763	-0.597900	-0.124268	0.514160	-0.083434	-0.668159	0.099647	-0.732580
61965		9.524954	-0.309983	1.053126	-0.023477	-0.023034	0.002702	-0.600098	-0.124268	0.511719	-0.083600	-0.668395	0.100039	-0.732291
61966		9.531968	-0.236183	0.905503	-0.075729	-0.038179	0.018651	-0.600098	-0.122070	0.511719	-0.084007	-0.668678	0.101030	-0.731851
61967		9.531274	-0.408690	0.646956	-0.043800	-0.042259	0.015137	-0.604248	-0.128418	0.507568	-0.084140	-0.669033	0.101684	-0.731420
61968		9.528872	-0.397504	0.670605	-0.031802	-0.033152	0.014983	-0.600098	-0.124268	0.511719	-0.084195	-0.669286	0.102204	-0.731110
61969		9.406311	-0.586423	0.769067	-0.065612	-0.035044	0.012637	-0.599854	-0.126221	0.514160	-0.084549	-0.669548	0.103028	-0.730713
61970		9.373841	-0.377051	1.141251	-0.002565	-0.058863	0.002534	-0.597900	-0.122070	0.513916	-0.084459	-0.670113	0.103233	-0.730177
61971		9.433806	-0.093590	1.562655	-0.029221	-0.124957	0.019527	-0.597656	-0.130615	0.514404	-0.084312	-0.671230	0.103872	-0.729077
61972		9.358381	0.130660	1.743901	-0.059489	-0.222094	0.059200	-0.593506	-0.126221	0.511963	-0.084003	-0.673133	0.105250	-0.727157
61973		9.456255	0.139316	2.234926	-0.022244	-0.362105	0.104121	-0.595947	-0.122070	0.524902	-0.082727	-0.676264	0.106768	-0.724171
61974		9.488952	-0.089501	2.689262	-0.001528	-0.552359	0.160267	-0.576660	-0.119873	0.533691	-0.080467	-0.681045	0.108735	-0.719638
61975		9.357241	-0.451355	2.604201	0.051523	-0.772665	0.195554	-0.572510	-0.117676	0.546875	-0.077215	-0.687796	0.110801	-0.713230
61976		9.222186	0.226179	1.729648	0.007586	-0.949935	0.226392	-0.560059	-0.106934	0.557617	-0.073793	-0.695944	0.113660	-0.705194
61977		8.509961	-0.331313	-0.572897	-0.337491	-0.989436	0.269409	-0.544922	-0.108887	0.573242	-0.072837	-0.703938	0.119882	-0.696272
61978		9.223907	-2.104594	-0.720768	-0.049711	-0.988165	0.221410	-0.532471	-0.102539	0.586182	-0.069786	-0.712148	0.123175	-0.687607
61979		9.400842	-1.330136	1.478307	0.261573	-1.106003	0.191247	-0.513184	-0.098145	0.594971	-0.063978	-0.721553	0.123572	-0.678232
61980		8.724839	-0.207956	1.888826	0.151719	-1.320683	0.216161	-0.494385	-0.089600	0.614502	-0.058626	-0.732463	0.125277	-0.666608
61981		8.134880	-0.559595	-0.040907	0.110099	-1.476318	0.213430	-0.464355	-0.089355	0.630127	-0.053377	-0.744418	0.127327	-0.653285
61982		7.186304	-1.219891	-2.424045	0.098733	-1.505758	0.193061	-0.441162	-0.082764	0.647705	-0.048406	-0.756388	0.129312	-0.639385
61983		8.675821	-1.198151	-0.733294	0.502925	-1.574508	0.182996	-0.417969	-0.067871	0.662598	-0.039526	-0.768869	0.127921	-0.625231
61984		9.470429	2.496277	2.201033	0.045076	-1.737897	0.269318	-0.388428	-0.061279	0.677734	-0.034028	-0.781898	0.130873	-0.608563
61985		6.644105	-1.299300	-6.250261	-0.816337	-1.642282	0.257149	-0.359863	-0.080078	0.694092	-0.037152	-0.793460	0.140056	-0.591123
61986		7.615415	-0.900144	-6.274775	-0.116975	-1.258675	0.235709	-0.334473	-0.073486	0.702881	-0.034240	-0.802240	0.143727	-0.578430
61987		9.897290	0.979028	-4.438199	-0.957510	-0.898469	0.393376	-0.327637	-0.088135	0.703613	-0.039183	-0.807580	0.154746	-0.567744
61988		6.716427	-3.755164	-12.684730	-0.874302	-0.267274	0.230890	-0.318848	-0.098633	0.701904	-0.045687	-0.808572	0.163213	-0.563459
61989		10.807969	-6.124228	-14.031616	-0.409548	0.659754	-0.005722	-0.335449	-0.109375	0.699951	-0.051012	-0.803717	0.165445	-0.569267
61990		17.450671	-5.211411	-11.913690	0.167142	1.406256	-0.291198	-0.359131	-0.107422	0.684326	-0.054136	-0.794318	0.160304	-0.583464
61991		20.096076	-5.972550	-6.811635	0.636769	1.798243	-0.357552	-0.391357	-0.101318	0.672852	-0.053848	-0.782133	0.150788	-0.602189
61992		14.929007	-3.426557	-3.377249	1.409963	2.139356	-0.375838	-0.432861	-0.072021	0.651611	-0.046740	-0.767287	0.134962	-0.625197
61993		6.769523	1.421850	-0.494684	2.022827	2.619278	-0.490045	-0.469727	-0.051270	0.630615	-0.035281	-0.748128	0.112640	-0.652971
61994		2.214457	6.814912	0.493429	0.872215	2.335542	-0.266300	-0.508545	-0.041016	0.601562	-0.032367	-0.729468	0.101875	-0.675611
61995		0.619742	2.963440	-0.960810	-0.834204	1.540594	0.209473	-0.527344	-0.053955	0.586426	-0.039990	-0.715664	0.110106	-0.688551
61996		-0.018286	-2.532292	-0.760611	-0.439194	0.539716	0.284375	-0.542480	-0.051758	0.579590	-0.042054	-0.710418	0.116090	-0.692864
61997		0.973270	0.914533	4.423593	0.272661	0.029088	0.006812	-0.540283	-0.049805	0.583984	-0.039406	-0.710312	0.113655	-0.693532
61998		0.219546	0.708714	3.128693	-0.247838	-0.416974	0.067533	-0.529785	-0.047607	0.588379	-0.040224	-0.713744	0.116489	-0.689479
61999		0.160578	0.890689	3.523686	-0.491954	-0.758275	0.146402	-0.520752	-0.060059	0.595459	-0.041995	-0.719838	0.122221	-0.682006
62000		0.092446	-1.324704	2.713726	-0.382015	-0.934770	0.138483	-0.507812	-0.064209	0.611328	-0.042709	-0.727367	0.127175	-0.673008
62001		0.826711	-0.726727	2.846634	0.406295	-1.051021	-0.018776	-0.489014	-0.055664	0.626465	-0.037352	-0.736429	0.124071	-0.663991
62002		0.351711	0.682446	2.026027	-0.100700	-1.363905	0.079130	-0.460938	-0.059570	0.637695	-0.035318	-0.747531	0.126136	-0.651183
62003		6.433838	4.567397	1.088877	-1.635158	-2.362382	0.340304	-0.419678	-0.084717	0.663086	-0.043972	-0.765066	0.143558	-0.626204
62004		17.275432	0.651521	-0.135588	-1.411533	-1.877455	0.610403	-0.395020	-0.118408	0.673584	-0.049191	-0.777617	0.161342	-0.605690
62005		26.709238	-5.546084	-11.453793	-2.055505	-1.214739	0.429246	-0.373291	-0.135010	0.676514	-0.063549	-0.784326	0.182002	-0.589635
62006		21.545039	-10.067338	-21.841868	-0.084037	-0.337146	-0.238630	-0.371094	-0.132812	0.678711	-0.065361	-0.787297	0.180632	-0.585886
62007		21.265395	-9.545413	-20.066241	0.916575	0.950447	-0.496953	-0.388428	-0.124512	0.676025	-0.062082	-0.782090	0.168323	-0.596781
62008		22.982923	-4.909819	-11.386791	1.923740	2.023253	-0.672337	-0.419189	-0.099365	0.655029	-0.052477	-0.769410	0.145902	-0.619651
62009		15.992840	1.180940	0.427167	2.890657	2.730165	-0.841041	-0.469727	-0.053467	0.633057	-0.036130	-0.750701	0.113717	-0.649778
62010		5.522913	7.879064	4.790087	2.500158	2.611479	-0.779719	-0.513428	-0.024170	0.607422	-0.022586	-0.730908	0.084852	-0.676804
62011		1.150634	4.512920	0.711880	0.248501	1.672705	-0.388058	-0.536621	-0.034912	0.587891	-0.025243	-0.717041	0.078673	-0.692116
62012		-0.767264	-3.252686	-4.553785	0.293522	0.259432	-0.348037	-0.532715	-0.024414	0.589600	-0.025875	-0.715204	0.073024	-0.694608
62013		0.535272	1.158208	4.337814	1.465841	-0.468369	-0.464756	-0.529053	-0.005371	0.593262	-0.016178	-0.720075	0.056183	-0.691429
62014		-0.619411	-0.560665	3.067665	0.234357	-0.708851	-0.188985	-0.515869	-0.011475	0.606934	-0.014998	-0.726368	0.052453	-0.685138
62015		-0.330964	-0.039902	2.210877	-0.141579	-0.934576	0.085877	-0.496826	-0.011230	0.622314	-0.014801	-0.734280	0.054587	-0.676486
62016		0.134322	0.318564	2.227329	-0.557322	-1.049489	0.298966	-0.483643	-0.019775	0.631592	-0.016492	-0.742836	0.062163	-0.666377
62017		0.409664	-1.627337	1.528498	-0.585851	-1.146340	0.412783	-0.464111	-0.025879	0.654053	-0.017502	-0.751879	0.071117	-0.655221
62018		0.782681	-1.598292	2.838955	-0.119173	-1.264354	0.472820	-0.440918	-0.017334	0.658203	-0.013466	-0.761758	0.076780	-0.643155
62019		1.930202	-0.434934	4.577543	-0.152764	-1.372945	0.561146	-0.413330	-0.010742	0.671143	-0.008963	-0.772148	0.083558	-0.629861
62020		0.819807	-0.703054	2.426800	-0.985167	-2.112446	0.775701	-0.378662	-0.031494	0.692139	-0.010006	-0.787555	0.098946	-0.608166
62021		5.398420	-3.802101	-6.378569	-2.298639	-2.735171	0.683356	-0.323975	-0.064941	0.709229	-0.024001	-0.806437	0.123530	-0.577774
62022		17.909216	2.902233	-7.081595	-1.163094	-2.108716	0.480314	-0.293457	-0.087891	0.721436	-0.028951	-0.820252	0.137544	-0.554463
62023		24.849198	0.360163	-14.634658	-0.924846	-0.968600	0.434641	-0.278076	-0.102539	0.726318	-0.033808	-0.825765	0.149058	-0.542909
62024		24.997235	-4.123075	-20.747863	0.046381	0.081439	-0.064597	-0.278076	-0.098389	0.726318	-0.033990	-0.825356	0.148368	-0.543709
62025		22.337337	-11.069091	-19.475646	0.395317	1.286184	-0.339227	-0.308105	-0.096436	0.719482	-0.034627	-0.817311	0.141875	-0.557383
62026		18.864296	-9.561990	-14.571136	1.434770	2.543947	-0.711948	-0.355713	-0.075684	0.705078	-0.029483	-0.800889	0.123775	-0.585139
62027		15.954310	-2.485044	-4.577713	2.804543	3.352366	-1.024098	-0.412842	-0.029785	0.672119	-0.014094	-0.777734	0.091954	-0.621672
62028		9.065492	8.402717	5.084475	3.111126	3.188083	-1.001069	-0.467529	0.012207	0.639160	0.004742	-0.753392	0.057552	-0.655031
62029		3.008530	7.426238	5.778352	0.530444	2.386977	-0.548600	-0.512207	0.003418	0.614990	0.003586	-0.733822	0.048227	-0.677618
62030		0.881124	-1.121171	-1.276328	-0.729094	1.030805	-0.283681	-0.516113	-0.002930	0.608643	-0.006214	-0.725155	0.052044	-0.686589
62031		0.576798	-0.496362	2.388440	0.348844	0.125505	-0.231734	-0.522705	-0.000977	0.604248	-0.005075	-0.724305	0.047054	-0.687854
62032		-0.792425	-0.535934	4.191980	-0.976135	0.292255	0.007029	-0.532959	-0.018066	0.602539	-0.013978	-0.721687	0.055573	-0.689844
62033		-0.838196	-2.137280	0.868268	-1.002828	0.692907	0.067670	-0.542969	-0.032959	0.589844	-0.022897	-0.715402	0.064804	-0.695324
62034		0.242143	2.317858	2.525988	-0.662351	0.932932	0.084230	-0.557861	-0.039307	0.579102	-0.028835	-0.706947	0.071166	-0.703086
62035		0.059444	1.145297	3.389783	-1.196870	0.775459	0.211871	-0.565918	-0.054199	0.566406	-0.038184	-0.699391	0.083329	-0.708837
62036		-0.470639	-3.435500	2.630530	-0.515912	0.371224	0.029943	-0.572266	-0.056396	0.559814	-0.042783	-0.695807	0.088070	-0.711523
62037		0.146601	-0.263926	4.552577	1.064393	0.065736	-0.337482	-0.570312	-0.047852	0.563965	-0.036500	-0.696092	0.075641	-0.713023
62038		-0.266541	2.437777	2.149021	-0.019142	-0.542119	-0.069954	-0.551025	-0.053955	0.570801	-0.036703	-0.700988	0.075513	-0.708213
62039		4.898320	-1.409791	-4.924936	-1.700102	-3.275351	0.418781	-0.503662	-0.066406	0.617920	-0.044774	-0.728104	0.095851	-0.677254
62040		15.815261	-6.002459	-3.026534	0.199882	-2.924924	0.328197	-0.454590	-0.061768	0.640137	-0.036555	-0.752173	0.098812	-0.650489
62041		16.167018	5.057596	-0.233291	0.336791	-2.461886	0.457939	-0.414062	-0.059326	0.670898	-0.026587	-0.771445	0.101645	-0.627562
62042		15.869652	-1.789678	-14.603945	-0.857461	-1.527790	-0.236952	-0.386230	-0.063232	0.686768	-0.034832	-0.783311	0.106869	-0.611384
62043		27.235446	0.342689	-7.294536	2.397835	-0.613638	-0.057464	-0.378662	-0.027344	0.694092	-0.010876	-0.788823	0.088290	-0.608148
62044		11.192139	-9.711650	-8.101565	-1.113591	0.119305	0.459789	-0.382324	-0.044189	0.686035	-0.018466	-0.787224	0.101401	-0.607993
62045		7.104081	-5.390880	-9.088986	1.438018	0.624506	-0.393694	-0.395752	-0.025391	0.680664	-0.008098	-0.783178	0.086655	-0.615677
62046		9.676731	-2.269533	-6.791375	-0.157298	1.157728	-0.425708	-0.416992	-0.031738	0.669922	-0.014189	-0.774633	0.083834	-0.626669
62047		8.304926	0.485236	-2.599488	-0.011707	1.315179	-0.246726	-0.444580	-0.038330	0.661133	-0.017621	-0.764492	0.081536	-0.639214
62048		8.379739	1.480562	1.563431	-0.736507	1.216216	-0.205680	-0.456787	-0.055420	0.648682	-0.027582	-0.754698	0.085447	-0.649899
62049		7.467233	-4.627259	-1.125837	-0.116284	1.098361	-0.313754	-0.475830	-0.062012	0.633301	-0.032504	-0.746035	0.083430	-0.659859
62050		7.880729	-0.608224	0.681119	0.250623	1.069381	-0.392020	-0.488770	-0.059814	0.624268	-0.034624	-0.737672	0.077658	-0.669784
62051		7.268609	1.659528	0.950065	-0.032402	0.968679	-0.369637	-0.511963	-0.070557	0.609131	-0.039053	-0.729900	0.074483	-0.678361
62052		8.876428	1.029259	1.020184	-0.224783	0.821428	-0.373393	-0.520020	-0.083496	0.600830	-0.045148	-0.723126	0.072930	-0.685370
62053		9.694240	-0.592001	0.443665	-0.191674	0.650411	-0.236399	-0.532959	-0.083496	0.594238	-0.049708	-0.717659	0.072555	-0.690819
62054		9.887105	-1.233596	1.254388	-0.103268	0.606012	-0.205601	-0.534912	-0.089844	0.585693	-0.053081	-0.712546	0.071577	-0.695944
62055		9.998986	-0.258519	-0.130590	0.151646	0.498500	-0.204520	-0.545654	-0.089844	0.581299	-0.054146	-0.708523	0.068569	-0.700259
62056		9.797475	0.753409	-0.344669	0.133295	0.433645	-0.128723	-0.545410	-0.092041	0.574707	-0.054642	-0.704953	0.066398	-0.704022
62057		9.451696	0.727055	0.828034	0.065263	0.351086	-0.041031	-0.552002	-0.092041	0.568115	-0.054964	-0.701993	0.065746	-0.707010
62058		9.259879	-0.345705	0.892256	0.048910	0.301136	-0.002550	-0.560547	-0.085938	0.567627	-0.055020	-0.699405	0.065549	-0.709584
62059		9.486272	-0.059925	0.840185	0.055529	0.298898	0.024902	-0.564697	-0.096436	0.565918	-0.054725	-0.696804	0.065452	-0.712170
62060		9.416904	-0.061718	0.477320	-0.053307	0.283568	0.041339	-0.569092	-0.088135	0.552490	-0.055405	-0.694244	0.066712	-0.714497
62061		9.525045	0.898058	0.442835	-0.273578	0.284990	0.074850	-0.568848	-0.096436	0.557129	-0.057427	-0.691451	0.069871	-0.716740
62062		9.480792	0.160538	0.375565	-0.548425	0.273585	0.131643	-0.575195	-0.100830	0.548340	-0.061584	-0.688515	0.076334	-0.718560
62063		9.469384	-0.536687	0.852438	-0.336617	0.229608	0.145299	-0.581543	-0.098633	0.543945	-0.063653	-0.686070	0.080902	-0.720216
62064		9.745122	-0.902900	1.025434	-0.052294	0.189675	0.112948	-0.583740	-0.098633	0.546143	-0.063445	-0.684220	0.082538	-0.721807
62065		9.244274	-1.937409	-0.097884	0.150349	0.206498	0.031244	-0.585938	-0.094482	0.539307	-0.062397	-0.682465	0.081793	-0.723643
62066		9.191602	-1.371837	0.419784	0.393756	0.212485	-0.006513	-0.586182	-0.090332	0.541260	-0.059504	-0.680867	0.078388	-0.725765
62067		9.440648	-0.044010	0.902894	0.184834	0.231262	-0.002518	-0.592529	-0.090332	0.541260	-0.058517	-0.678938	0.077072	-0.727791
62068		9.506274	-0.289545	0.315239	0.067418	0.257528	0.007525	-0.583984	-0.090332	0.534668	-0.058568	-0.676656	0.076988	-0.729917
62069		9.367687	-0.731749	0.929570	0.270665	0.237695	-0.002332	-0.596924	-0.083984	0.530029	-0.056989	-0.674735	0.075031	-0.732021
62070		9.247474	-0.500477	1.561240	0.219386	0.187141	-0.017516	-0.597168	-0.075684	0.527588	-0.055789	-0.673213	0.073246	-0.733694
62071		9.457787	-0.924058	1.617817	0.127970	0.108278	-0.002074	-0.601318	-0.082031	0.530029	-0.055085	-0.672340	0.072417	-0.734630
62072		9.604055	-0.538888	1.582362	0.039003	0.052421	-0.000060	-0.605713	-0.079834	0.529785	-0.055292	-0.671902	0.072703	-0.734986
62073		9.500538	-0.701720	1.021649	-0.021725	0.013101	0.002383	-0.605469	-0.083984	0.527832	-0.055946	-0.671767	0.073568	-0.734974
62074		9.379506	-0.309507	0.939654	-0.031551	-0.009719	0.001257	-0.601318	-0.079834	0.525391	-0.056663	-0.671832	0.074522	-0.734763
62075		9.508135	-0.468568	0.870871	-0.053323	-0.016999	0.005026	-0.601318	-0.083984	0.530029	-0.057374	-0.671958	0.075567	-0.734487
62076		9.479559	-0.676659	0.994234	0.006509	-0.034000	0.000983	-0.599365	-0.079834	0.529785	-0.057863	-0.672276	0.076314	-0.734080
62077		9.546302	-0.613492	1.072464	-0.037518	-0.048205	0.003252	-0.599365	-0.079834	0.525391	-0.058617	-0.672694	0.077422	-0.733521
62078		9.554655	-0.768284	0.863848	-0.089570	-0.055286	0.002510	-0.597168	-0.079834	0.529785	-0.059535	-0.673143	0.078717	-0.732897
62079		9.569865	-0.685992	0.782321	-0.066460	-0.062076	-0.010308	-0.603516	-0.082031	0.530029	-0.060559	-0.673678	0.079903	-0.732192
62080		9.410568	-0.502906	0.548182	-0.028925	-0.058938	-0.013578	-0.599121	-0.086182	0.530029	-0.061259	-0.674195	0.080639	-0.731578
62081		9.475073	-0.418201	0.533825	-0.000239	-0.044054	-0.011271	-0.599121	-0.086182	0.530029	-0.061729	-0.674601	0.081160	-0.731106
62082		9.698862	-0.759006	0.655149	0.005023	-0.026038	-0.017508	-0.592773	-0.083984	0.527832	-0.062186	-0.674853	0.081516	-0.730796
62083		9.553955	-0.843103	0.694446	0.048332	-0.018325	-0.031553	-0.596924	-0.088135	0.532471	-0.062232	-0.675108	0.081193	-0.730592
62084		9.505809	-0.525534	0.921985	0.003375	-0.022681	-0.033117	-0.594727	-0.090332	0.530273	-0.062979	-0.675339	0.081574	-0.730272
62085		9.582603	-0.320593	0.973240	-0.025096	-0.038138	-0.031780	-0.594727	-0.088135	0.536865	-0.063810	-0.675697	0.082115	-0.729808
62086		9.530237	-0.493971	0.625684	-0.050641	-0.039555	-0.025912	-0.592773	-0.086182	0.532227	-0.065150	-0.676018	0.083295	-0.729258
62087		9.475039	-0.498500	0.668070	-0.042441	-0.033571	-0.025265	-0.588379	-0.090332	0.528076	-0.066036	-0.676315	0.084008	-0.728821
62088		9.551822	-0.619815	0.558026	-0.039460	-0.023712	-0.030566	-0.592773	-0.086182	0.530029	-0.066690	-0.676557	0.084387	-0.728493
62089		9.546289	-0.659292	0.565133	-0.021878	-0.010749	-0.035907	-0.590332	-0.090332	0.539062	-0.067270	-0.676689	0.084538	-0.728299
62090		9.555117	-0.491018	0.761680	-0.027584	-0.004593	-0.037514	-0.590332	-0.090332	0.536865	-0.068599	-0.676719	0.085438	-0.728042
62091		9.556637	-0.524629	0.712011	-0.022215	-0.007170	-0.040230	-0.596680	-0.096680	0.532715	-0.069748	-0.676789	0.086103	-0.727790
62092		9.512512	-0.445698	0.598735	-0.002424	-0.002392	-0.041171	-0.599121	-0.086182	0.543213	-0.070516	-0.676829	0.086304	-0.727655
62093		9.549276	-0.451401	0.639029	0.001712	0.005157	-0.037995	-0.592529	-0.092529	0.530518	-0.071823	-0.676752	0.087086	-0.727506
62094		9.555422	-0.504653	0.759396	0.020901	0.004726	-0.038242	-0.588135	-0.094482	0.532715	-0.072089	-0.676779	0.086823	-0.727486
62095		9.585772	-0.427102	0.765845	-0.000896	0.000722	-0.035592	-0.594727	-0.090332	0.530273	-0.072728	-0.676813	0.087031	-0.727366
62096		9.582707	-0.452633	0.751410	-0.007704	-0.002250	-0.031511	-0.590088	-0.098877	0.535156	-0.073069	-0.676873	0.086977	-0.727282
62097		9.492925	-0.411095	0.678499	-0.004179	-0.003925	-0.031675	-0.594238	-0.100830	0.530762	-0.073942	-0.676915	0.087492	-0.727093
62098		9.499036	-0.403418	0.641850	-0.005368	-0.000468	-0.029546	-0.592529	-0.092529	0.534912	-0.074460	-0.676938	0.087649	-0.726999
62099		9.523294	-0.478012	0.689751	0.018836	0.002128	-0.035258	-0.596436	-0.100830	0.530762	-0.074991	-0.676961	0.087713	-0.726916
62100		9.544009	-0.378176	0.784009	0.002324	-0.003984	-0.030892	-0.594482	-0.096680	0.532715	-0.075420	-0.677022	0.087745	-0.726811
62101		9.563213	-0.468969	0.560587	-0.013178	0.000974	-0.030625	-0.590088	-0.100830	0.539551	-0.076042	-0.677024	0.087989	-0.726715
62102		9.493008	-0.418506	0.577843	-0.001546	0.012137	-0.033545	-0.594482	-0.094482	0.532715	-0.077264	-0.676892	0.088791	-0.726611
62103		9.504864	-0.374001	0.733799	0.012006	0.011813	-0.033869	-0.592529	-0.094482	0.530518	-0.077644	-0.676830	0.088696	-0.726640
62104		9.529297	-0.319636	0.814661	-0.003962	0.007084	-0.028441	-0.588135	-0.094482	0.530518	-0.077905	-0.676812	0.088604	-0.726640
62105		9.530877	-0.355704	0.767879	-0.006348	0.003122	-0.025693	-0.590332	-0.094482	0.532715	-0.078152	-0.676836	0.088583	-0.726593
62106		9.582439	-0.418305	0.722051	-0.021486	-0.003662	-0.022018	-0.592285	-0.100830	0.530762	-0.078669	-0.676882	0.088910	-0.726455
62107		9.546331	-0.398062	0.560197	-0.018197	0.003037	-0.023476	-0.587891	-0.098633	0.532959	-0.079129	-0.676868	0.089124	-0.726392
62108		9.506388	-0.359567	0.553757	-0.004277	0.015632	-0.023930	-0.590088	-0.098877	0.532959	-0.079616	-0.676755	0.089350	-0.726416
62109		9.502809	-0.382316	0.686787	0.015757	0.021791	-0.025500	-0.596436	-0.103027	0.535156	-0.079965	-0.676601	0.089373	-0.726518
62110		9.527406	-0.351010	0.807261	0.001140	0.019831	-0.022026	-0.590332	-0.094482	0.534912	-0.080701	-0.676404	0.089827	-0.726564
62111		9.544904	-0.313967	0.785096	-0.002860	0.010163	-0.019643	-0.592041	-0.105225	0.531006	-0.081237	-0.676324	0.090180	-0.726536
62112		9.558761	-0.290056	0.710335	-0.012726	0.007094	-0.014438	-0.587891	-0.098633	0.532959	-0.081706	-0.676256	0.090555	-0.726499
62113		9.548469	-0.355685	0.674717	-0.007811	0.006460	-0.012340	-0.598389	-0.107178	0.537598	-0.082126	-0.676208	0.090942	-0.726448
62114		9.538557	-0.360363	0.683603	-0.001785	0.016292	-0.011618	-0.585693	-0.103027	0.535156	-0.083121	-0.675990	0.091837	-0.726426
62115		9.522944	-0.371021	0.708674	-0.005384	0.017555	-0.010954	-0.589844	-0.107178	0.531006	-0.083832	-0.675815	0.092532	-0.726419
62116		9.524123	-0.364303	0.689185	-0.004845	0.016615	-0.010972	-0.592285	-0.098877	0.532959	-0.084271	-0.675664	0.092925	-0.726459
62117		9.522656	-0.330112	0.698866	-0.008316	0.017958	-0.009455	-0.594238	-0.107178	0.535400	-0.084721	-0.675492	0.093344	-0.726512
62118		9.554104	-0.297843	0.758844	-0.004684	0.015999	-0.008265	-0.588135	-0.096680	0.534912	-0.085590	-0.675287	0.094195	-0.726491
62119		9.549235	-0.328928	0.792410	-0.005655	0.010703	-0.004359	-0.592041	-0.105225	0.533203	-0.086110	-0.675174	0.094817	-0.726453
62120		9.546650	-0.331034	0.740589	-0.006645	0.002669	-0.001047	-0.592285	-0.096680	0.532715	-0.086671	-0.675108	0.095529	-0.726355
62121		9.530842	-0.327966	0.704455	0.001091	0.004293	-0.000702	-0.592041	-0.105225	0.524414	-0.086880	-0.675068	0.095885	-0.726320
62122		9.545735	-0.345707	0.723732	0.000343	0.006025	0.002398	-0.592041	-0.103027	0.530762	-0.086456	-0.675068	0.095652	-0.726401
62123		9.569623	-0.370814	0.718863	0.000214	0.012115	0.000881	-0.594238	-0.100830	0.530762	-0.086643	-0.674955	0.095996	-0.726439
62124		9.530355	-0.328750	0.710651	0.008057	0.011082	0.001489	-0.592285	-0.098877	0.530762	-0.086716	-0.674858	0.096222	-0.726490
62125		9.543689	-0.350945	0.754779	0.009576	0.009836	0.003518	-0.592041	-0.103027	0.528564	-0.086708	-0.674783	0.096417	-0.726535
62126		9.548724	-0.365634	0.702254	0.002276	0.009929	0.002889	-0.590088	-0.103027	0.535156	-0.086674	-0.674708	0.096579	-0.726587
62127		9.557623	-0.373361	0.679706	0.006481	0.010854	0.002308	-0.594238	-0.103027	0.530762	-0.087233	-0.674569	0.097337	-0.726548
62128		9.557378	-0.373896	0.682847	0.006889	0.014919	0.003119	-0.594238	-0.100830	0.528564	-0.087396	-0.674425	0.097674	-0.726618
62129		9.552134	-0.365665	0.720601	0.012591	0.018030	0.003312	-0.592041	-0.105225	0.528809	-0.087257	-0.674286	0.097703	-0.726759
62130		9.526438	-0.386755	0.752027	0.008761	0.016780	0.001169	-0.594238	-0.103027	0.535156	-0.087322	-0.674144	0.097917	-0.726854
62131		9.524104	-0.344604	0.803435	0.013811	0.011146	0.002451	-0.596436	-0.103027	0.532959	-0.087894	-0.673992	0.098662	-0.726825
62132		9.541783	-0.354205	0.777017	0.011630	0.008733	0.003191	-0.596680	-0.096680	0.526123	-0.088294	-0.673872	0.099239	-0.726809
62133		9.550432	-0.381979	0.714024	0.006706	0.008279	0.003429	-0.592041	-0.103027	0.532959	-0.087896	-0.673845	0.099025	-0.726912
62134		9.578867	-0.410892	0.697197	0.011015	0.012715	0.002450	-0.594238	-0.103027	0.532959	-0.088300	-0.673701	0.099614	-0.726916
62135		9.560640	-0.402193	0.729890	0.008628	0.018350	0.003254	-0.594238	-0.100830	0.530762	-0.088751	-0.673493	0.100237	-0.726968
62136		9.541816	-0.448963	0.741565	0.019372	0.021419	-0.001212	-0.594482	-0.096680	0.526123	-0.088902	-0.673304	0.100469	-0.727093
62137		9.510201	-0.356406	0.777012	0.015789	0.019252	0.000699	-0.592041	-0.103027	0.528564	-0.088515	-0.673192	0.100206	-0.727280
62138		9.553652	-0.366224	0.762446	0.015520	0.018005	0.001339	-0.594482	-0.098877	0.535156	-0.088550	-0.673046	0.100394	-0.727386
62139		9.554516	-0.414032	0.819512	0.018019	0.018618	0.000728	-0.592285	-0.100830	0.530762	-0.089121	-0.672831	0.101090	-0.727418
62140		9.551840	-0.375691	0.773513	0.009351	0.015530	0.002508	-0.594238	-0.100830	0.530762	-0.089387	-0.672676	0.101539	-0.727466
62141		9.566843	-0.398597	0.774397	0.017951	0.015491	0.000642	-0.590088	-0.096680	0.530518	-0.089625	-0.672526	0.101908	-0.727523
62142		9.547909	-0.403773	0.787973	0.016455	0.013303	-0.000130	-0.594482	-0.096680	0.526123	-0.089730	-0.672424	0.102168	-0.727568
62143		9.510005	-0.393017	0.774399	0.013322	0.013933	-0.000855	-0.598877	-0.094482	0.526123	-0.089471	-0.672351	0.102024	-0.727689
62144		9.555469	-0.358521	0.815300	0.006413	0.014280	0.001052	-0.600830	-0.096680	0.530518	-0.089241	-0.672256	0.101922	-0.727819
62145		9.539246	-0.346714	0.899843	0.001918	0.005562	0.003429	-0.594482	-0.098877	0.526123	-0.089525	-0.672168	0.102386	-0.727800
62146		9.547168	-0.380514	0.935278	-0.006397	-0.005484	0.006000	-0.594482	-0.096680	0.530518	-0.089448	-0.672228	0.102605	-0.727723
62147		9.555328	-0.423183	0.772741	-0.013065	-0.009367	0.006089	-0.596436	-0.098877	0.532715	-0.089763	-0.672275	0.103231	-0.727552
62148		9.524480	-0.419162	0.696893	-0.004566	-0.004017	0.004550	-0.596680	-0.096680	0.528320	-0.090283	-0.672249	0.104002	-0.727402
62149		9.546161	-0.483334	0.654774	-0.001546	0.003592	-0.000949	-0.594482	-0.098877	0.526123	-0.090356	-0.672221	0.104210	-0.727389
62150		9.581595	-0.430628	0.761135	0.007887	0.009331	-0.002287	-0.596436	-0.098877	0.530518	-0.090209	-0.672177	0.104167	-0.727454
62151		9.564053	-0.467144	0.768115	0.003324	0.010899	-0.003698	-0.596436	-0.098877	0.526123	-0.090541	-0.672060	0.104566	-0.727464
62152		9.527972	-0.370189	0.813083	0.006703	0.008775	-0.004197	-0.592285	-0.094482	0.528320	-0.090449	-0.672015	0.104536	-0.727521
62153		9.508111	-0.383787	0.826863	0.009093	0.003139	-0.004987	-0.596436	-0.098877	0.530518	-0.090402	-0.672028	0.104577	-0.727509
62154		9.544951	-0.366957	0.828322	-0.002889	-0.001940	0.000393	-0.594482	-0.096680	0.528320	-0.090736	-0.672015	0.105085	-0.727407
62155		9.560841	-0.395303	0.803361	-0.006164	-0.005209	0.000570	-0.592285	-0.100830	0.526367	-0.090815	-0.672066	0.105365	-0.727309
62156		9.537566	-0.417691	0.783795	-0.011490	-0.010803	0.002338	-0.596680	-0.096680	0.532715	-0.090823	-0.672173	0.105632	-0.727170
62157		9.579985	-0.432280	0.786077	-0.001013	-0.007329	0.001469	-0.594482	-0.094482	0.532715	-0.091216	-0.672197	0.106226	-0.727012
62158		9.541222	-0.451729	0.729751	-0.010490	-0.006212	0.000282	-0.596436	-0.098877	0.528320	-0.091614	-0.672218	0.106822	-0.726856
62159		9.537802	-0.438455	0.738783	0.002960	-0.002760	-0.002568	-0.598633	-0.098877	0.528320	-0.091654	-0.672253	0.106979	-0.726795
62160		9.557136	-0.417577	0.747459	0.002300	0.000834	-0.002819	-0.596436	-0.100830	0.535156	-0.091713	-0.672249	0.107130	-0.726769
62161		9.539770	-0.392660	0.795071	0.012073	-0.001389	-0.003358	-0.592285	-0.094482	0.528320	-0.092314	-0.672205	0.107821	-0.726632
62162		9.504671	-0.399856	0.866984	0.003301	-0.010723	-0.001767	-0.594482	-0.098877	0.528564	-0.092161	-0.672344	0.107846	-0.726519
62163		9.535279	-0.363007	0.863679	-0.009081	-0.019870	0.002817	-0.596436	-0.100830	0.532959	-0.092196	-0.672521	0.108153	-0.726305
62164		9.559463	-0.367550	0.814521	-0.003321	-0.025972	0.004463	-0.590088	-0.096680	0.532715	-0.092572	-0.672699	0.108826	-0.725991
62165		9.610937	-0.446465	0.765532	-0.013888	-0.027485	0.006930	-0.600830	-0.101074	0.535156	-0.092804	-0.672917	0.109446	-0.725666
62166		9.584244	-0.547864	0.549958	-0.023928	-0.019262	0.005100	-0.594482	-0.096680	0.534912	-0.093511	-0.672976	0.110427	-0.725372
62167		9.519408	-0.480085	0.587214	-0.004376	-0.003048	-0.002723	-0.594482	-0.096680	0.528320	-0.093937	-0.672964	0.110975	-0.725245
62168		9.503442	-0.486580	0.629923	0.008152	0.007264	-0.008814	-0.594482	-0.096680	0.528320	-0.093730	-0.672959	0.110751	-0.725310
62169		9.556933	-0.416056	0.769274	0.004317	0.011101	-0.009288	-0.594482	-0.096680	0.534912	-0.093578	-0.672914	0.110567	-0.725400
62170		9.552424	-0.451117	0.781133	0.005962	0.009362	-0.011685	-0.596680	-0.094482	0.526123	-0.094000	-0.672816	0.110918	-0.725382
62171		9.532755	-0.385924	0.779999	0.010578	0.002015	-0.010103	-0.594238	-0.103027	0.535156	-0.093577	-0.672886	0.110458	-0.725443
62172		9.563032	-0.408002	0.738079	0.001988	0.004789	-0.007644	-0.596680	-0.096680	0.528320	-0.094158	-0.672796	0.111051	-0.725361
62173		9.548793	-0.435288	0.696890	0.000724	0.006196	-0.007969	-0.596436	-0.098877	0.535156	-0.094046	-0.672780	0.110934	-0.725407
62174		9.542593	-0.433740	0.734540	0.000984	0.007441	-0.008607	-0.598633	-0.100830	0.530762	-0.094555	-0.672675	0.111422	-0.725364
62175		9.538734	-0.393179	0.807690	0.003440	0.007668	-0.008721	-0.596436	-0.100830	0.532959	-0.094753	-0.672602	0.111582	-0.725381
62176		9.544424	-0.385574	0.794019	-0.000233	0.001990	-0.006407	-0.592285	-0.098877	0.528564	-0.095116	-0.672557	0.111978	-0.725315
62177		9.554009	-0.416703	0.708241	-0.005274	0.001451	-0.007034	-0.592285	-0.096680	0.530518	-0.095077	-0.672581	0.111991	-0.725295
62178		9.565425	-0.403921	0.679466	-0.000348	0.006304	-0.003736	-0.598877	-0.096680	0.532715	-0.095076	-0.672550	0.112084	-0.725310
62179		9.534094	-0.445183	0.781386	0.005087	0.009250	-0.005240	-0.594482	-0.098877	0.530762	-0.095276	-0.672455	0.112303	-0.725337
62180		9.541106	-0.388767	0.845568	-0.002314	0.002012	-0.003729	-0.594482	-0.096680	0.532715	-0.095383	-0.672442	0.112504	-0.725305
62181		9.551291	-0.410378	0.680237	-0.010844	-0.000999	-0.001100	-0.592285	-0.096680	0.532715	-0.095629	-0.672430	0.112903	-0.725221
62182		9.500835	-0.379501	0.698475	0.004288	0.001699	-0.001563	-0.592529	-0.094482	0.534912	-0.095729	-0.672422	0.113142	-0.725178
62183		9.552419	-0.396343	0.776273	0.001695	0.000309	0.000044	-0.596680	-0.096680	0.526123	-0.095948	-0.672405	0.113533	-0.725104
62184		9.574090	-0.480218	0.694568	-0.011849	0.003311	0.000873	-0.596436	-0.098877	0.528320	-0.095681	-0.672412	0.113432	-0.725148
62185		9.521104	-0.427031	0.721592	0.003669	0.005680	-0.002310	-0.592285	-0.094482	0.528320	-0.095546	-0.672390	0.113392	-0.725193
62186		9.524419	-0.378357	0.755741	0.001794	0.003821	-0.000363	-0.594482	-0.098877	0.530762	-0.095277	-0.672409	0.113283	-0.725228
62187		9.552183	-0.395861	0.779421	0.008898	0.000524	-0.000652	-0.592285	-0.096680	0.532715	-0.095249	-0.672419	0.113398	-0.725204
62188		9.568553	-0.429462	0.733729	-0.007220	-0.004031	0.002455	-0.592285	-0.094482	0.523926	-0.095390	-0.672445	0.113770	-0.725104
62189		9.558116	-0.451982	0.720421	-0.001866	-0.000780	-0.000401	-0.596680	-0.094482	0.534912	-0.094840	-0.672540	0.113393	-0.725146
62190		9.527045	-0.462131	0.704540	0.007552	0.002234	-0.002330	-0.592285	-0.096680	0.534912	-0.095033	-0.672507	0.113685	-0.725106
62191		9.489746	-0.391054	0.807683	0.007238	-0.002136	-0.001782	-0.594238	-0.100830	0.530762	-0.095227	-0.672520	0.114019	-0.725016
62192		9.533254	-0.395060	0.808651	0.004081	-0.008063	-0.001337	-0.594482	-0.094482	0.532715	-0.095256	-0.672600	0.114204	-0.724909
62193		9.558556	-0.430380	0.757256	0.000250	-0.011475	0.001207	-0.594482	-0.098877	0.539551	-0.095273	-0.672705	0.114433	-0.724773
62194		9.569552	-0.433792	0.706274	-0.000037	-0.009291	0.000584	-0.592529	-0.094482	0.532715	-0.095839	-0.672719	0.115187	-0.724566
62195		9.534716	-0.487244	0.676697	0.004850	-0.005406	-0.000906	-0.594482	-0.094482	0.534912	-0.095798	-0.672788	0.115311	-0.724488
62196		9.502986	-0.450582	0.683959	0.011592	-0.003478	-0.002584	-0.592285	-0.096680	0.534912	-0.095877	-0.672823	0.115503	-0.724414
62197		9.535376	-0.409710	0.737278	0.007539	-0.000504	-0.002921	-0.594238	-0.100830	0.532959	-0.096019	-0.672829	0.115757	-0.724349
62198		9.558941	-0.448298	0.711722	0.007583	-0.000117	-0.003419	-0.592529	-0.092529	0.530518	-0.096139	-0.672829	0.115968	-0.724300
62199		9.533722	-0.432374	0.721040	0.000304	0.001632	-0.001138	-0.596436	-0.098877	0.528320	-0.095935	-0.672858	0.115908	-0.724310
62200		9.533685	-0.432039	0.721731	0.004124	0.003966	-0.001335	-0.594238	-0.100830	0.539551	-0.095738	-0.672853	0.115821	-0.724354
62201		9.523788	-0.439037	0.728683	0.000394	0.002406	-0.002134	-0.594482	-0.094482	0.530518	-0.096327	-0.672764	0.116518	-0.724247
62202		9.516752	-0.412394	0.748736	0.001003	-0.004312	-0.001970	-0.596436	-0.098877	0.532715	-0.096177	-0.672834	0.116502	-0.724204
62203		9.513767	-0.404681	0.736647	-0.000994	-0.004592	0.002061	-0.596680	-0.092529	0.536865	-0.096259	-0.672858	0.116777	-0.724127
62204		9.572622	-0.432249	0.734524	0.000017	-0.006166	0.000677	-0.594482	-0.098877	0.532959	-0.096468	-0.672884	0.117158	-0.724013
62205		9.554223	-0.483411	0.642323	0.003290	-0.002893	0.000495	-0.592529	-0.092529	0.530518	-0.096512	-0.672906	0.117370	-0.723952
62206		9.525956	-0.460009	0.640156	0.006990	0.000434	-0.002906	-0.590088	-0.100830	0.537354	-0.096247	-0.672958	0.117214	-0.723965
62207		9.541188	-0.436259	0.738832	0.009158	0.002846	-0.003645	-0.594482	-0.098877	0.530762	-0.096557	-0.672916	0.117618	-0.723897
62208		9.517326	-0.451841	0.743116	0.013594	0.001201	-0.003091	-0.592529	-0.090332	0.530273	-0.096406	-0.672939	0.117555	-0.723906
62209		9.533067	-0.418059	0.761852	-0.000099	-0.003512	0.000411	-0.590088	-0.096680	0.532715	-0.096106	-0.673021	0.117438	-0.723889
62210		9.528641	-0.460030	0.672859	0.006390	-0.000091	-0.000043	-0.590088	-0.098877	0.528564	-0.096021	-0.673049	0.117521	-0.723860
62211		9.529711	-0.450105	0.671010	0.013430	0.003468	-0.002861	-0.592529	-0.094482	0.534912	-0.095704	-0.673084	0.117309	-0.723904
62212		9.543496	-0.476165	0.692825	0.006073	0.005520	-0.001935	-0.592285	-0.096680	0.532715	-0.095756	-0.673044	0.117471	-0.723909
62213		9.543107	-0.449682	0.755314	0.012082	0.005175	-0.004540	-0.596680	-0.092529	0.532471	-0.095696	-0.673029	0.117473	-0.723930
62214		9.526325	-0.409698	0.822009	0.008410	-0.003241	-0.002804	-0.594727	-0.088135	0.532471	-0.095587	-0.673079	0.117462	-0.723899
62215		9.555133	-0.441875	0.703511	0.002427	-0.007987	-0.001866	-0.585938	-0.098633	0.532959	-0.095407	-0.673185	0.117423	-0.723831
62216		9.554516	-0.476373	0.643222	0.004719	-0.005491	-0.001751	-0.590332	-0.094482	0.539307	-0.095353	-0.673271	0.117538	-0.723740
62217		9.533975	-0.464069	0.639107	0.006598	-0.000897	-0.003118	-0.590332	-0.094482	0.530518	-0.095606	-0.673269	0.117902	-0.723648
62218		9.494142	-0.487413	0.685326	0.012193	0.002521	-0.004272	-0.592529	-0.092529	0.532715	-0.095339	-0.673309	0.117716	-0.723677
62219		9.505239	-0.448956	0.717196	0.011510	0.000635	-0.005695	-0.592529	-0.094482	0.537109	-0.095197	-0.673347	0.117625	-0.723675
62220		9.531611	-0.453418	0.705970	0.005080	0.000338	-0.005154	-0.585938	-0.094482	0.532715	-0.095374	-0.673343	0.117866	-0.723616
62221		9.541349	-0.465070	0.660277	0.006692	0.002614	-0.003531	-0.592529	-0.092529	0.532715	-0.095226	-0.673376	0.117832	-0.723611
62222		9.560090	-0.438237	0.691077	0.007755	0.004164	-0.004828	-0.592285	-0.096680	0.534912	-0.095112	-0.673376	0.117777	-0.723635
62223		9.525285	-0.470347	0.704828	0.006919	0.007284	-0.005442	-0.592285	-0.096680	0.534912	-0.095204	-0.673322	0.117908	-0.723651
62224		9.520755	-0.445002	0.758338	0.006984	0.001505	-0.005252	-0.592529	-0.092529	0.537109	-0.095287	-0.673321	0.118048	-0.723619
62225		9.531595	-0.447245	0.710116	0.001230	0.000354	-0.003873	-0.587891	-0.098633	0.530762	-0.095442	-0.673317	0.118291	-0.723563
62226		9.521217	-0.452955	0.639564	0.005330	0.000508	-0.003444	-0.592529	-0.090332	0.532471	-0.095296	-0.673360	0.118256	-0.723547
62227		9.533658	-0.446758	0.666261	0.009568	0.004560	-0.003929	-0.592285	-0.096680	0.532715	-0.095108	-0.673364	0.118140	-0.723587
62228		9.528374	-0.472392	0.719477	0.008304	0.005964	-0.004258	-0.588135	-0.092285	0.530518	-0.095062	-0.673336	0.118156	-0.723616
62229		9.528926	-0.456444	0.739287	0.003349	0.002379	-0.004115	-0.592285	-0.096680	0.539307	-0.094830	-0.673377	0.118019	-0.723631
62230		9.530977	-0.456790	0.695253	0.004152	0.002684	-0.004770	-0.592529	-0.092529	0.537109	-0.095137	-0.673335	0.118389	-0.723570
62231		9.526811	-0.457466	0.687611	0.001877	0.005665	-0.003721	-0.590332	-0.090332	0.539062	-0.095284	-0.673284	0.118610	-0.723561
62232		9.544301	-0.460373	0.681646	-0.000821	0.008001	-0.004737	-0.588135	-0.094482	0.534912	-0.095500	-0.673214	0.118886	-0.723553
62233		9.533319	-0.476044	0.692064	0.002937	0.007214	-0.005017	-0.592529	-0.094482	0.539307	-0.095536	-0.673179	0.118987	-0.723564
62234		9.520331	-0.474545	0.689011	-0.004118	0.008150	-0.005823	-0.590332	-0.090332	0.536865	-0.095896	-0.673083	0.119381	-0.723541
62235		9.536825	-0.465739	0.725608	0.008138	0.007637	-0.009310	-0.594482	-0.096680	0.532715	-0.095973	-0.673047	0.119434	-0.723555
62236		9.525470	-0.439318	0.738848	-0.000530	0.006890	-0.006458	-0.592285	-0.096680	0.528320	-0.096049	-0.672994	0.119527	-0.723579
62237		9.527539	-0.419286	0.735424	-0.005607	0.004884	-0.004242	-0.592529	-0.092529	0.539307	-0.095914	-0.672987	0.119466	-0.723614
62238		9.536176	-0.476418	0.711028	-0.001087	0.004018	-0.004675	-0.594727	-0.090332	0.530273	-0.096194	-0.672937	0.119809	-0.723567
62239		9.536658	-0.501152	0.651244	-0.009873	0.006993	-0.004449	-0.592529	-0.094482	0.534912	-0.096111	-0.672899	0.119787	-0.723617
62240		9.509790	-0.432445	0.707300	-0.000656	0.009544	-0.006729	-0.594727	-0.092529	0.532471	-0.096242	-0.672823	0.119931	-0.723646
62241		9.519441	-0.459589	0.721410	-0.004043	0.007848	-0.004469	-0.590088	-0.098877	0.530762	-0.096259	-0.672765	0.120000	-0.723686
62242		9.549847	-0.462417	0.720666	0.002299	0.008453	-0.006351	-0.592285	-0.094482	0.528320	-0.096224	-0.672726	0.119996	-0.723727
62243		9.510515	-0.454845	0.728756	-0.003368	0.005328	-0.006559	-0.596680	-0.094482	0.534912	-0.096080	-0.672723	0.119884	-0.723768
62244		9.541075	-0.421556	0.709109	0.003899	0.005255	-0.005889	-0.592529	-0.092529	0.534912	-0.096206	-0.672673	0.120032	-0.723773
62245		9.551837	-0.439387	0.720089	-0.002992	0.005586	-0.003996	-0.594727	-0.092529	0.532471	-0.096299	-0.672632	0.120198	-0.723771
62246		9.528054	-0.475276	0.685069	0.000643	0.004716	-0.005126	-0.590576	-0.088135	0.532471	-0.096288	-0.672608	0.120235	-0.723789
62247		9.505158	-0.440589	0.767072	0.001658	0.003141	-0.006504	-0.590088	-0.096680	0.532715	-0.096167	-0.672630	0.120156	-0.723798
62248		9.542528	-0.448455	0.707824	-0.002613	0.001437	-0.004946	-0.592285	-0.096680	0.530518	-0.096207	-0.672641	0.120271	-0.723764
62249		9.535388	-0.441348	0.688264	-0.000543	0.000341	-0.005268	-0.596680	-0.092529	0.539062	-0.096163	-0.672665	0.120292	-0.723743
62250		9.534339	-0.449735	0.691341	-0.001347	0.005512	-0.003451	-0.590088	-0.096680	0.534912	-0.096442	-0.672588	0.120637	-0.723720
62251		9.543980	-0.456970	0.744373	0.002795	0.003320	-0.004095	-0.592285	-0.096680	0.534912	-0.096517	-0.672577	0.120792	-0.723695
62252		9.514627	-0.462650	0.705389	0.001528	0.001983	-0.005008	-0.590332	-0.092529	0.530518	-0.096631	-0.672567	0.120967	-0.723659
62253		9.504386	-0.447921	0.675264	0.002076	0.003785	-0.004438	-0.588135	-0.094482	0.534912	-0.096472	-0.672581	0.120883	-0.723681
62254		9.533249	-0.454733	0.697202	0.010189	0.004408	-0.004917	-0.590332	-0.094482	0.532715	-0.096435	-0.672584	0.120911	-0.723679
62255		9.535302	-0.434559	0.693756	0.004991	0.006120	-0.005329	-0.590332	-0.092529	0.537109	-0.096386	-0.672566	0.120911	-0.723702
62256		9.557950	-0.461528	0.712286	0.011118	0.005871	-0.007064	-0.592529	-0.092529	0.534912	-0.096443	-0.672545	0.120982	-0.723703
62257		9.534283	-0.461162	0.659780	-0.006591	0.010645	-0.005136	-0.592529	-0.092529	0.534912	-0.096578	-0.672456	0.121157	-0.723738
62258		9.521506	-0.460468	0.734207	0.008407	0.009872	-0.005150	-0.588379	-0.090332	0.532471	-0.096588	-0.672392	0.121199	-0.723789
62259		9.503869	-0.419348	0.725508	0.000340	0.006893	-0.005754	-0.592285	-0.098877	0.532959	-0.096496	-0.672381	0.121157	-0.723818
62260		9.528581	-0.427750	0.739215	0.007944	0.005032	-0.004947	-0.587891	-0.100830	0.532959	-0.096522	-0.672356	0.121231	-0.723825
62261		9.542009	-0.467900	0.742411	0.007565	0.003702	-0.005160	-0.588135	-0.096680	0.537109	-0.096532	-0.672360	0.121302	-0.723809
62262		9.543655	-0.462573	0.719757	0.001778	0.003224	-0.005647	-0.592529	-0.092529	0.534912	-0.096690	-0.672351	0.121516	-0.723761
62263		9.540597	-0.453505	0.709558	0.002749	0.004003	-0.005944	-0.592529	-0.094482	0.534912	-0.096747	-0.672334	0.121610	-0.723752
62264		9.519292	-0.435310	0.728162	-0.007266	0.004942	-0.004796	-0.594482	-0.098877	0.535156	-0.096908	-0.672292	0.121830	-0.723734
62265		9.544673	-0.449256	0.720055	0.005328	0.001587	-0.005775	-0.594727	-0.090332	0.536865	-0.097061	-0.672277	0.122019	-0.723695
62266		9.519087	-0.468113	0.670991	-0.006591	0.004091	-0.003954	-0.590332	-0.092529	0.534912	-0.097241	-0.672232	0.122268	-0.723671
62267		9.529717	-0.429737	0.703462	0.002406	0.005798	-0.006073	-0.592285	-0.098877	0.537354	-0.097275	-0.672210	0.122338	-0.723675
62268		9.544578	-0.481277	0.741568	0.003927	0.005640	-0.006380	-0.590088	-0.096680	0.534912	-0.097505	-0.672159	0.122588	-0.723649
62269		9.539455	-0.455210	0.718318	-0.002369	0.005412	-0.005008	-0.590088	-0.100830	0.530762	-0.097627	-0.672125	0.122767	-0.723633
62270		9.539684	-0.438366	0.661503	0.001643	0.005876	-0.005918	-0.592285	-0.096680	0.532715	-0.097631	-0.672104	0.122809	-0.723646
62271		9.539366	-0.452649	0.721106	-0.000514	0.006199	-0.004603	-0.594727	-0.092529	0.534668	-0.097679	-0.672064	0.122911	-0.723658
62272		9.582317	-0.470391	0.706578	0.001676	0.009001	-0.005835	-0.596680	-0.094482	0.537109	-0.097764	-0.671993	0.123013	-0.723696
62273		9.535127	-0.451824	0.716119	-0.009218	0.007186	-0.005975	-0.594482	-0.096680	0.528320	-0.098080	-0.671901	0.123347	-0.723681
62274		9.518091	-0.452037	0.704193	0.002820	0.007514	-0.006354	-0.592529	-0.094482	0.534912	-0.097984	-0.671866	0.123264	-0.723742
62275		9.520827	-0.437625	0.756639	0.002702	0.004688	-0.007789	-0.592285	-0.096680	0.530518	-0.098084	-0.671843	0.123365	-0.723731
62276		9.533355	-0.451051	0.743783	-0.001437	0.003066	-0.005386	-0.594482	-0.094482	0.534912	-0.098066	-0.671842	0.123397	-0.723729
62277		9.531635	-0.452903	0.691172	-0.001521	0.003364	-0.006738	-0.592529	-0.094482	0.534912	-0.098211	-0.671816	0.123561	-0.723706
62278		9.545919	-0.427098	0.713282	0.002450	0.003445	-0.007148	-0.592285	-0.096680	0.528320	-0.098301	-0.671804	0.123666	-0.723687
62279		9.530322	-0.438776	0.735192	-0.001949	0.004386	-0.005873	-0.594482	-0.094482	0.532715	-0.098216	-0.671800	0.123620	-0.723710
62280		9.526241	-0.473981	0.668801	0.002199	0.003271	-0.008856	-0.592529	-0.092529	0.530518	-0.098270	-0.671792	0.123654	-0.723704
62281		9.530301	-0.434298	0.660674	-0.000232	0.008895	-0.008087	-0.592529	-0.094482	0.530518	-0.098221	-0.671751	0.123591	-0.723760
62282		9.543146	-0.432916	0.744530	0.009616	0.007497	-0.009578	-0.592285	-0.096680	0.534912	-0.098130	-0.671732	0.123459	-0.723812
62283		9.560739	-0.434576	0.738920	-0.002892	0.007797	-0.007842	-0.590088	-0.098877	0.532959	-0.098304	-0.671674	0.123625	-0.723815
62284		9.531537	-0.439645	0.701016	0.001838	0.007803	-0.008403	-0.588135	-0.094482	0.537109	-0.098382	-0.671636	0.123689	-0.723828
62285		9.541317	-0.430018	0.696906	0.005254	0.008822	-0.008800	-0.592529	-0.094482	0.534912	-0.098487	-0.671597	0.123774	-0.723836
62286		9.537517	-0.450709	0.727516	0.004824	0.009845	-0.007934	-0.586182	-0.092285	0.537109	-0.098572	-0.671533	0.123840	-0.723872
62287		9.539441	-0.430024	0.725034	0.001572	0.009297	-0.007181	-0.592529	-0.094482	0.532715	-0.098641	-0.671497	0.123923	-0.723882
62288		9.514888	-0.403942	0.733442	0.003688	0.007524	-0.005647	-0.590332	-0.092529	0.543701	-0.098642	-0.671457	0.123953	-0.723913
62289		9.525397	-0.436349	0.726276	0.002000	0.007206	-0.005698	-0.596680	-0.092529	0.530273	-0.098954	-0.671395	0.124295	-0.723870
62290		9.520927	-0.452205	0.776782	0.001228	0.001420	-0.006210	-0.594482	-0.096680	0.528320	-0.098918	-0.671400	0.124286	-0.723871
62291		9.550460	-0.428475	0.758599	-0.001980	0.000189	-0.003609	-0.590332	-0.092529	0.530518	-0.098852	-0.671418	0.124302	-0.723861
62292		9.543503	-0.421217	0.662109	-0.008705	0.002040	-0.003732	-0.592529	-0.094482	0.534912	-0.098808	-0.671432	0.124350	-0.723846
62293		9.559727	-0.449128	0.716114	0.001073	0.005743	-0.003553	-0.594482	-0.096680	0.530518	-0.098875	-0.671395	0.124486	-0.723848
62294		9.555669	-0.485787	0.727079	0.001708	0.005578	-0.004559	-0.594482	-0.098877	0.532959	-0.098866	-0.671362	0.124524	-0.723873
62295		9.508659	-0.416903	0.736045	-0.001319	0.003148	-0.004532	-0.594482	-0.098877	0.532959	-0.098982	-0.671336	0.124693	-0.723852
62296		9.536157	-0.412077	0.723008	-0.000211	0.001278	-0.004553	-0.594482	-0.094482	0.537109	-0.099086	-0.671328	0.124854	-0.723818
62297		9.562699	-0.452512	0.730876	0.001500	0.004720	-0.004417	-0.592529	-0.094482	0.530518	-0.099244	-0.671286	0.125063	-0.723799
62298		9.536889	-0.451367	0.722215	0.001997	0.006139	-0.003348	-0.590088	-0.096680	0.532715	-0.099167	-0.671261	0.125057	-0.723834
62299		9.525702	-0.446232	0.695059	-0.002514	0.005315	-0.005862	-0.594482	-0.096680	0.532715	-0.099214	-0.671243	0.125142	-0.723830
62300		9.557451	-0.424297	0.710408	0.008966	0.006601	-0.006208	-0.594482	-0.096680	0.534912	-0.099227	-0.671206	0.125163	-0.723859
62301		9.541539	-0.450891	0.714265	0.001826	0.006733	-0.006051	-0.590332	-0.094482	0.534912	-0.099363	-0.671152	0.125314	-0.723864
62302		9.531904	-0.441807	0.740736	0.007953	0.006503	-0.007763	-0.588135	-0.096680	0.532715	-0.099381	-0.671135	0.125325	-0.723875
62303		9.526106	-0.445563	0.756835	0.004001	0.003675	-0.007941	-0.592041	-0.105225	0.535400	-0.099364	-0.671154	0.125314	-0.723861
62304		9.530632	-0.426502	0.708060	0.000505	0.001881	-0.006553	-0.592285	-0.096680	0.534912	-0.099598	-0.671140	0.125569	-0.723798
62305		9.533697	-0.432610	0.719835	0.004208	0.003466	-0.005735	-0.596436	-0.098877	0.526123	-0.099676	-0.671130	0.125679	-0.723778
62306		9.582098	-0.423963	0.730105	0.000630	0.007831	-0.005035	-0.590332	-0.090332	0.532471	-0.099610	-0.671076	0.125640	-0.723844
62307		9.537372	-0.443149	0.713274	0.003446	0.009405	-0.004919	-0.594482	-0.098877	0.530762	-0.099519	-0.671038	0.125588	-0.723900
62308		9.518816	-0.432712	0.743815	0.005277	0.007074	-0.004592	-0.592529	-0.094482	0.530518	-0.099523	-0.670992	0.125628	-0.723936
62309		9.534597	-0.403298	0.742917	0.005092	0.003478	-0.005031	-0.596680	-0.094482	0.532715	-0.099441	-0.670997	0.125592	-0.723949
62310		9.545471	-0.421241	0.753577	-0.001836	0.003397	-0.002674	-0.592285	-0.096680	0.528320	-0.099512	-0.670962	0.125743	-0.723944
62311		9.553474	-0.481949	0.676157	-0.000420	0.006279	-0.003747	-0.601074	-0.094727	0.532715	-0.099434	-0.670937	0.125729	-0.723981
62312		9.530295	-0.453062	0.737577	0.004758	0.008394	-0.005078	-0.592285	-0.098877	0.535156	-0.099544	-0.670845	0.125847	-0.724031
62313		9.538155	-0.412364	0.738667	0.004717	0.008009	-0.004580	-0.594482	-0.096680	0.532715	-0.099646	-0.670790	0.125987	-0.724043
62314		9.548604	-0.459661	0.713064	0.006153	0.008152	-0.006234	-0.588135	-0.096680	0.537109	-0.099690	-0.670737	0.126034	-0.724078
62315		9.528513	-0.387022	0.785953	0.006379	0.006271	-0.006955	-0.596680	-0.096680	0.537109	-0.099767	-0.670725	0.126121	-0.724064
62316		9.551881	-0.434426	0.764831	-0.003034	0.005560	-0.004008	-0.592285	-0.096680	0.528320	-0.100013	-0.670657	0.126414	-0.724042
62317		9.531115	-0.422236	0.761998	0.001762	0.002156	-0.003287	-0.592285	-0.098877	0.532959	-0.099908	-0.670671	0.126391	-0.724047
62318		9.535936	-0.425378	0.750027	-0.007736	0.001739	-0.001693	-0.594482	-0.094482	0.534912	-0.100020	-0.670659	0.126616	-0.724003
62319		9.522926	-0.439899	0.726277	-0.001377	-0.001432	-0.001772	-0.588135	-0.096680	0.528320	-0.100102	-0.670674	0.126810	-0.723944
62320		9.540560	-0.407203	0.700371	0.003596	-0.000173	-0.002959	-0.596680	-0.092529	0.530273	-0.099917	-0.670734	0.126727	-0.723929
62321		9.523793	-0.444283	0.705173	0.000284	0.001627	-0.001137	-0.592285	-0.096680	0.534912	-0.099869	-0.670725	0.126790	-0.723933
62322		9.548701	-0.438426	0.736650	0.004684	0.000697	-0.002397	-0.594482	-0.098877	0.532959	-0.099901	-0.670738	0.126917	-0.723894
62323		9.547845	-0.482727	0.757798	0.012699	0.001652	-0.004187	-0.592529	-0.094482	0.532715	-0.099891	-0.670744	0.126956	-0.723883
62324		9.536852	-0.426843	0.729971	0.010047	0.000549	-0.003949	-0.590332	-0.092529	0.532715	-0.099814	-0.670774	0.126944	-0.723868
62325		9.531443	-0.431017	0.668525	0.005374	0.004040	-0.003817	-0.596680	-0.094482	0.532715	-0.099725	-0.670782	0.126923	-0.723877
62326		9.547866	-0.428639	0.760413	0.014558	0.005569	-0.003693	-0.592529	-0.092529	0.532715	-0.099675	-0.670749	0.126915	-0.723915
62327		9.575809	-0.429580	0.803308	0.010994	-0.001794	-0.004320	-0.592529	-0.094482	0.532715	-0.099569	-0.670805	0.126874	-0.723885
62328		9.549611	-0.437750	0.718091	-0.004432	-0.004253	-0.001250	-0.594482	-0.096680	0.537109	-0.099583	-0.670856	0.127022	-0.723810
62329		9.507898	-0.444816	0.672430	-0.000531	-0.001805	-0.000570	-0.592285	-0.100830	0.532959	-0.099720	-0.670864	0.127288	-0.723737
62330		9.541161	-0.405843	0.757945	-0.005258	-0.001822	-0.000023	-0.592285	-0.096680	0.532715	-0.099807	-0.670881	0.127520	-0.723668
62331		9.530098	-0.503257	0.728153	-0.001023	-0.003225	-0.001638	-0.594727	-0.090332	0.536865	-0.099816	-0.670925	0.127649	-0.723604
62332		9.530031	-0.467018	0.709248	-0.005263	-0.000758	-0.002369	-0.592529	-0.094482	0.530518	-0.099931	-0.670929	0.127864	-0.723546
62333		9.563387	-0.456646	0.681069	0.003916	0.001838	-0.004593	-0.592285	-0.098877	0.528564	-0.099855	-0.670944	0.127841	-0.723546
62334		9.526730	-0.436797	0.661875	0.002290	0.003960	-0.002718	-0.594727	-0.092529	0.532471	-0.099781	-0.670934	0.127846	-0.723565
62335		9.530999	-0.454927	0.708605	0.006728	0.003415	-0.004474	-0.588135	-0.096680	0.534912	-0.099741	-0.670924	0.127849	-0.723579
62336		9.533214	-0.506582	0.741255	0.003154	0.001913	-0.004442	-0.590332	-0.092529	0.537109	-0.099736	-0.670950	0.127907	-0.723546
62337		9.532279	-0.413063	0.744703	0.003541	0.001570	-0.007153	-0.590088	-0.096680	0.528320	-0.099788	-0.670973	0.127970	-0.723506
62338		9.527879	-0.407612	0.680630	-0.001572	0.001895	-0.003895	-0.590332	-0.092529	0.530518	-0.099694	-0.670994	0.127948	-0.723504
62339		9.521119	-0.472501	0.698221	0.000355	0.003459	-0.004480	-0.598633	-0.098877	0.534912	-0.099601	-0.671004	0.127912	-0.723514
62340		9.542546	-0.458596	0.795848	0.000663	0.002347	-0.006195	-0.592529	-0.092529	0.530518	-0.099808	-0.670963	0.128125	-0.723485
62341		9.554906	-0.466328	0.726763	-0.009916	0.001052	-0.005166	-0.598877	-0.094727	0.532715	-0.099835	-0.670970	0.128206	-0.723460
62342		9.530576	-0.404493	0.637999	-0.003304	0.002252	-0.005799	-0.587891	-0.100830	0.535156	-0.099981	-0.670933	0.128370	-0.723446
62343		9.519522	-0.456425	0.742663	0.003040	0.004949	-0.005213	-0.592529	-0.094482	0.532715	-0.100027	-0.670929	0.128453	-0.723429
62344		9.542491	-0.468327	0.779411	0.001056	0.000940	-0.006559	-0.592285	-0.100830	0.532959	-0.100043	-0.670946	0.128488	-0.723404
62345		9.554719	-0.440148	0.691754	-0.005991	0.000761	-0.005065	-0.590088	-0.098877	0.530762	-0.100174	-0.670947	0.128666	-0.723354
62346		9.527148	-0.392307	0.705895	0.000274	0.002691	-0.003483	-0.592285	-0.094482	0.528320	-0.100138	-0.670954	0.128702	-0.723345
62347		9.523419	-0.479192	0.715826	0.004974	0.001717	-0.008803	-0.588135	-0.096680	0.534912	-0.100045	-0.670982	0.128587	-0.723353
62348		9.529605	-0.426938	0.757358	-0.002950	0.000459	-0.005666	-0.592285	-0.100830	0.528564	-0.100087	-0.671016	0.128674	-0.723300
62349		9.519256	-0.457060	0.670303	0.000052	-0.000227	-0.005769	-0.594482	-0.098877	0.539551	-0.100079	-0.671040	0.128700	-0.723274
62350		9.519309	-0.455459	0.670649	-0.000909	0.003177	-0.007742	-0.594727	-0.090332	0.532471	-0.100335	-0.671011	0.128939	-0.723224
62351		9.541314	-0.410739	0.729184	-0.009678	0.006474	-0.008071	-0.592529	-0.094482	0.534912	-0.100443	-0.670960	0.129029	-0.723240
62352		9.500137	-0.458241	0.759969	-0.019616	0.008128	-0.007966	-0.596680	-0.096680	0.537109	-0.100696	-0.670885	0.129267	-0.723231
62353		9.529378	-0.463762	0.705415	-0.018511	0.003138	-0.008065	-0.592285	-0.096680	0.528320	-0.101059	-0.670828	0.129618	-0.723171
62354		9.566626	-0.399694	0.686701	-0.010184	0.001931	-0.009219	-0.592285	-0.098877	0.535156	-0.101115	-0.670833	0.129651	-0.723153
62355		9.527188	-0.392430	0.693700	-0.006954	0.007287	-0.006950	-0.592285	-0.100830	0.535156	-0.101291	-0.670777	0.129822	-0.723149
62356		9.525275	-0.490201	0.662356	-0.014941	0.007765	-0.008008	-0.596436	-0.098877	0.532715	-0.101563	-0.670706	0.130073	-0.723131
62357		9.538204	-0.458508	0.706854	-0.009734	0.010278	-0.009827	-0.596436	-0.100830	0.526367	-0.101806	-0.670604	0.130246	-0.723161
62358		9.527276	-0.407641	0.736629	-0.007817	0.008723	-0.010492	-0.596680	-0.094482	0.530518	-0.101929	-0.670527	0.130294	-0.723207
62359		9.552943	-0.405404	0.748429	-0.004367	0.005954	-0.009114	-0.596436	-0.098877	0.530518	-0.102026	-0.670478	0.130346	-0.723229
62360		9.554962	-0.450162	0.725857	-0.000313	0.005760	-0.008156	-0.592285	-0.098877	0.535156	-0.102122	-0.670430	0.130410	-0.723248
62361		9.546734	-0.401493	0.710423	-0.007439	0.007920	-0.005587	-0.590088	-0.098877	0.537354	-0.102282	-0.670369	0.130587	-0.723251
62362		9.525166	-0.448979	0.710416	-0.004481	0.007921	-0.007536	-0.594482	-0.098877	0.532959	-0.102442	-0.670325	0.130732	-0.723242
62363		9.533758	-0.398252	0.708901	0.001533	0.006560	-0.007740	-0.590332	-0.094482	0.530518	-0.102534	-0.670281	0.130798	-0.723258
62364		9.538856	-0.435984	0.716492	0.004266	0.007374	-0.006622	-0.594482	-0.096680	0.534912	-0.102437	-0.670265	0.130703	-0.723303
62365		9.544611	-0.428647	0.703591	-0.001027	0.008275	-0.006071	-0.592285	-0.096680	0.532715	-0.102552	-0.670201	0.130819	-0.723326
62366		9.537498	-0.406784	0.704515	-0.003026	0.009058	-0.004412	-0.590332	-0.094482	0.530518	-0.102595	-0.670140	0.130895	-0.723362
62367		9.545326	-0.416660	0.705629	0.006711	0.010749	-0.006625	-0.592285	-0.098877	0.530762	-0.102485	-0.670098	0.130774	-0.723439
62368		9.547309	-0.432269	0.721730	-0.001867	0.010700	-0.004841	-0.596680	-0.096680	0.534912	-0.102512	-0.670025	0.130821	-0.723494
62369		9.545972	-0.419634	0.690014	-0.006562	0.014175	-0.004712	-0.592285	-0.096680	0.528320	-0.102704	-0.669887	0.131020	-0.723559
62370		9.533162	-0.439217	0.725555	0.007143	0.015975	-0.007308	-0.590088	-0.098877	0.532959	-0.102621	-0.669788	0.130894	-0.723685
62371		9.556537	-0.435218	0.707628	-0.005781	0.018673	-0.007614	-0.590088	-0.103027	0.539551	-0.102723	-0.669656	0.130951	-0.723783
62372		9.532631	-0.420624	0.752757	0.007411	0.017603	-0.008436	-0.594238	-0.100830	0.526367	-0.102874	-0.669542	0.131030	-0.723852
62373		9.526497	-0.409480	0.790085	-0.001414	0.014250	-0.008455	-0.594238	-0.100830	0.535156	-0.102911	-0.669437	0.131010	-0.723947
62374		9.537110	-0.405610	0.766106	-0.007946	0.012734	-0.006491	-0.592285	-0.098877	0.526367	-0.103133	-0.669327	0.131214	-0.723980
62375		9.550779	-0.409633	0.752832	-0.004413	0.010740	-0.006100	-0.594482	-0.098877	0.532959	-0.103117	-0.669262	0.131200	-0.724045
62376		9.548544	-0.391500	0.741664	-0.008498	0.009476	-0.004226	-0.592285	-0.098877	0.530762	-0.103264	-0.669181	0.131380	-0.724066
62377		9.532811	-0.418915	0.746017	-0.005855	0.010589	-0.004452	-0.598633	-0.096680	0.528320	-0.103319	-0.669110	0.131465	-0.724109
62378		9.544580	-0.427300	0.755818	-0.005453	0.009184	-0.004819	-0.594482	-0.098877	0.526123	-0.103413	-0.669019	0.131576	-0.724160
62379		9.529722	-0.430171	0.775988	-0.000715	0.006098	-0.005439	-0.590088	-0.100830	0.532959	-0.103386	-0.668988	0.131569	-0.724194
62380		9.541305	-0.402719	0.766561	-0.005400	0.005380	-0.003062	-0.594238	-0.100830	0.530762	-0.103433	-0.668973	0.131686	-0.724179
62381		9.567084	-0.431693	0.740819	-0.007254	0.007700	-0.003391	-0.592529	-0.094482	0.537109	-0.103534	-0.668912	0.131839	-0.724193
62382		9.551123	-0.423456	0.726627	-0.001842	0.010016	-0.002987	-0.592041	-0.103027	0.528564	-0.103601	-0.668850	0.131960	-0.724219
62383		9.541150	-0.430287	0.735196	-0.004742	0.011847	-0.004379	-0.596680	-0.096680	0.530518	-0.103646	-0.668770	0.132029	-0.724274
62384		9.535873	-0.410881	0.769095	-0.004744	0.011847	-0.004378	-0.596680	-0.092529	0.530273	-0.103738	-0.668667	0.132140	-0.724335
62385		9.539889	-0.437886	0.743077	-0.005546	0.011534	-0.003734	-0.594482	-0.096680	0.526123	-0.103787	-0.668570	0.132225	-0.724402
62386		9.566112	-0.412602	0.772587	-0.003788	0.012632	-0.004662	-0.596436	-0.100830	0.530762	-0.103772	-0.668479	0.132227	-0.724488
62387		9.545992	-0.397368	0.824738	-0.001849	0.010015	-0.002983	-0.592285	-0.100830	0.535156	-0.103860	-0.668394	0.132360	-0.724530
62388		9.565930	-0.425999	0.758801	-0.007508	0.009575	-0.002667	-0.600830	-0.101074	0.532959	-0.103988	-0.668329	0.132548	-0.724537
62389		9.540926	-0.401043	0.766987	-0.000043	0.008378	-0.004498	-0.598633	-0.098877	0.530518	-0.104179	-0.668236	0.132751	-0.724558
62390		9.550891	-0.428425	0.780908	-0.003723	0.005706	-0.003000	-0.594482	-0.096680	0.528320	-0.104290	-0.668177	0.132917	-0.724566
62391		9.532792	-0.388106	0.770947	0.004272	0.003194	-0.004343	-0.594238	-0.103027	0.530762	-0.104219	-0.668183	0.132891	-0.724576
62392		9.540039	-0.422327	0.753994	0.008650	0.001902	-0.005088	-0.596436	-0.103027	0.530762	-0.104207	-0.668202	0.132904	-0.724558
62393		9.560837	-0.432071	0.758731	0.009965	0.004020	-0.005152	-0.600830	-0.101074	0.530762	-0.104225	-0.668189	0.132936	-0.724561
62394		9.544092	-0.432482	0.746034	0.006263	0.005536	-0.005904	-0.598633	-0.100830	0.530762	-0.104339	-0.668133	0.133042	-0.724576
62395		9.536751	-0.395743	0.765271	0.003850	0.007719	-0.003885	-0.594482	-0.098877	0.535156	-0.104421	-0.668066	0.133149	-0.724607
62396		9.554342	-0.404463	0.815496	0.007390	0.005729	-0.003489	-0.596436	-0.098877	0.528320	-0.104444	-0.668046	0.133216	-0.724610
62397		9.546305	-0.392436	0.817602	0.003198	0.001251	-0.002570	-0.596436	-0.105225	0.528809	-0.104417	-0.668051	0.133263	-0.724600
62398		9.550610	-0.419814	0.788974	-0.002691	-0.000434	-0.001625	-0.596436	-0.098877	0.530518	-0.104493	-0.668056	0.133434	-0.724554
62399		9.541923	-0.432478	0.773780	-0.000207	0.000208	-0.002203	-0.594238	-0.103027	0.530762	-0.104523	-0.668064	0.133548	-0.724521
62400		9.543034	-0.437373	0.752916	-0.000577	0.001997	-0.002332	-0.594482	-0.098877	0.530762	-0.104563	-0.668065	0.133667	-0.724492
62401		9.534825	-0.410812	0.773309	-0.003023	0.001740	-0.002250	-0.594238	-0.100830	0.530762	-0.104589	-0.668067	0.133777	-0.724466
62402		9.550837	-0.432521	0.771061	0.001958	-0.000097	-0.003497	-0.596436	-0.098877	0.535156	-0.104595	-0.668095	0.133847	-0.724427
62403		9.551938	-0.437353	0.750400	-0.001587	0.003947	-0.001461	-0.596436	-0.098877	0.532715	-0.104703	-0.668063	0.134040	-0.724405
62404		9.548921	-0.429030	0.740027	0.001662	0.002463	-0.004617	-0.598633	-0.103027	0.528564	-0.104774	-0.668055	0.134144	-0.724382
62405		9.540001	-0.426268	0.744348	0.000455	0.003553	-0.003608	-0.594238	-0.103027	0.526367	-0.104861	-0.668019	0.134273	-0.724380
62406		9.546643	-0.416211	0.783942	0.002938	0.004196	-0.004185	-0.594238	-0.100830	0.524170	-0.104825	-0.668010	0.134275	-0.724393
62407		9.555505	-0.417005	0.781451	0.001572	0.004814	-0.003534	-0.598633	-0.098877	0.532715	-0.104745	-0.667995	0.134245	-0.724423
62408		9.556595	-0.421646	0.761149	-0.004634	0.002178	-0.003306	-0.594238	-0.100830	0.526367	-0.104893	-0.667966	0.134449	-0.724391
62409		9.555684	-0.430316	0.764034	-0.001426	0.002365	-0.003534	-0.589844	-0.104980	0.533203	-0.104866	-0.667969	0.134481	-0.724386
62410		9.557807	-0.446287	0.777693	0.002281	-0.001204	-0.005212	-0.592041	-0.107178	0.526611	-0.104875	-0.668033	0.134529	-0.724317
62411		9.506690	-0.445041	0.756692	0.001152	-0.001398	-0.007626	-0.590088	-0.100830	0.532959	-0.104880	-0.668088	0.134527	-0.724266
62412		9.525739	-0.451968	0.728324	-0.002478	0.000885	-0.009371	-0.596436	-0.100830	0.528564	-0.104933	-0.668135	0.134546	-0.724211
62413		9.545444	-0.434050	0.716841	0.004848	0.002728	-0.011956	-0.596436	-0.100830	0.528564	-0.105000	-0.668141	0.134514	-0.724202
62414		9.558143	-0.437074	0.778791	0.003785	0.005358	-0.012929	-0.596436	-0.100830	0.528564	-0.105089	-0.668123	0.134480	-0.724212
62415		9.538490	-0.428167	0.755117	0.003093	0.006198	-0.013773	-0.592285	-0.100830	0.528564	-0.105192	-0.668098	0.134443	-0.724227
62416		9.531637	-0.418914	0.736800	0.004688	0.006825	-0.015056	-0.594482	-0.096680	0.530518	-0.105221	-0.668098	0.134314	-0.724247
62417		9.555866	-0.394671	0.788601	0.000434	0.006144	-0.015893	-0.596436	-0.100830	0.528564	-0.105321	-0.668090	0.134245	-0.724253
62418		9.548166	-0.394772	0.772075	0.003674	0.002147	-0.013870	-0.596436	-0.100830	0.524170	-0.105411	-0.668103	0.134205	-0.724235
62419		9.527140	-0.365743	0.787315	-0.000974	0.001802	-0.012002	-0.596436	-0.103027	0.532959	-0.105467	-0.668110	0.134169	-0.724227
62420		9.566456	-0.407164	0.747083	-0.001738	0.001873	-0.011855	-0.598633	-0.100830	0.530762	-0.105656	-0.668112	0.134264	-0.724179
62421		9.538017	-0.418161	0.763183	-0.001264	0.003294	-0.010781	-0.596680	-0.096680	0.530518	-0.105825	-0.668089	0.134352	-0.724160
62422		9.546840	-0.342385	0.777645	-0.005065	0.007152	-0.010455	-0.594238	-0.103027	0.535156	-0.105957	-0.668041	0.134406	-0.724175
62423		9.550433	-0.431714	0.698867	-0.017085	0.005631	-0.007851	-0.594238	-0.100830	0.535156	-0.106231	-0.667997	0.134657	-0.724129
62424		9.556074	-0.376114	0.795125	0.001242	0.006385	-0.009419	-0.590088	-0.103027	0.526367	-0.106347	-0.667975	0.134710	-0.724123
62425		9.545677	-0.406200	0.786236	-0.004772	0.006650	-0.006903	-0.594238	-0.105225	0.533203	-0.106324	-0.667964	0.134679	-0.724141
62426		9.539011	-0.359929	0.802427	-0.005775	0.001970	-0.005721	-0.594238	-0.103027	0.528564	-0.106467	-0.667964	0.134838	-0.724091
62427		9.555464	-0.395969	0.781598	-0.009783	0.001461	-0.004854	-0.596436	-0.103027	0.535156	-0.106558	-0.667963	0.134968	-0.724054
62428		9.543852	-0.400653	0.755755	-0.010801	0.003408	-0.003983	-0.592285	-0.098877	0.530762	-0.106771	-0.667928	0.135224	-0.724008
62429		9.533190	-0.416703	0.764811	-0.003103	0.003479	-0.006432	-0.594238	-0.100830	0.532959	-0.106782	-0.667936	0.135241	-0.723995
62430		9.541040	-0.351471	0.781174	-0.000920	0.002114	-0.005384	-0.592041	-0.103027	0.526367	-0.106838	-0.667944	0.135319	-0.723965
62431		9.552258	-0.422800	0.737720	-0.000123	0.002430	-0.006025	-0.592041	-0.107178	0.531006	-0.106794	-0.667963	0.135287	-0.723960
62432		9.530231	-0.404788	0.755400	0.005217	0.001942	-0.007046	-0.594238	-0.103027	0.528564	-0.106801	-0.667993	0.135282	-0.723932
62433		9.568986	-0.417289	0.752799	0.007539	0.002118	-0.007978	-0.594238	-0.100830	0.530762	-0.106776	-0.668014	0.135226	-0.723927
62434		9.540093	-0.392993	0.750633	0.005925	0.002553	-0.009034	-0.594238	-0.107178	0.533203	-0.106782	-0.668033	0.135184	-0.723917
62435		9.549395	-0.407261	0.729194	0.002372	0.004529	-0.009432	-0.598389	-0.105225	0.532959	-0.106902	-0.668025	0.135239	-0.723896
62436		9.541897	-0.390686	0.785211	0.004719	0.007145	-0.008428	-0.594238	-0.107178	0.528809	-0.107053	-0.667969	0.135327	-0.723908
62437		9.533817	-0.377220	0.787564	-0.000705	0.002366	-0.010785	-0.594238	-0.100830	0.528564	-0.107156	-0.667979	0.135352	-0.723880
62438		9.545376	-0.348160	0.776982	-0.000747	-0.001525	-0.009887	-0.592285	-0.098877	0.528564	-0.107192	-0.668027	0.135342	-0.723832
62439		9.566259	-0.395937	0.745489	-0.001510	-0.001456	-0.009741	-0.596436	-0.100830	0.530762	-0.107183	-0.668086	0.135296	-0.723787
62440		9.567569	-0.398948	0.724415	0.000019	0.001912	-0.010434	-0.592041	-0.105225	0.528809	-0.107287	-0.668090	0.135329	-0.723762
62441		9.522576	-0.373066	0.761825	-0.000136	0.004943	-0.011194	-0.594238	-0.107178	0.531006	-0.107338	-0.668093	0.135290	-0.723759
62442		9.532382	-0.362886	0.756618	-0.000814	0.001210	-0.009298	-0.594238	-0.105225	0.528809	-0.107448	-0.668110	0.135350	-0.723716
62443		9.560578	-0.392184	0.762285	0.001979	0.002811	-0.009155	-0.596436	-0.100830	0.530762	-0.107498	-0.668116	0.135346	-0.723703
62444		9.557960	-0.397221	0.733405	-0.002148	0.005712	-0.009546	-0.594238	-0.103027	0.532959	-0.107616	-0.668081	0.135399	-0.723708
62445		9.529760	-0.363479	0.729912	0.004929	0.008393	-0.009056	-0.592041	-0.103027	0.530762	-0.107676	-0.668044	0.135389	-0.723736
62446		9.541255	-0.355620	0.758084	0.002897	0.006722	-0.009344	-0.592041	-0.105225	0.535400	-0.107689	-0.668034	0.135338	-0.723753
62447		9.551486	-0.381541	0.772313	0.004320	0.008936	-0.008551	-0.592041	-0.105225	0.526611	-0.107750	-0.668004	0.135337	-0.723771
62448		9.547958	-0.357002	0.782044	-0.000538	0.008782	-0.008891	-0.594238	-0.107178	0.531006	-0.107764	-0.667968	0.135290	-0.723812
62449		9.549118	-0.360332	0.763007	0.005046	0.008483	-0.008200	-0.592041	-0.105225	0.533203	-0.107821	-0.667926	0.135289	-0.723841
62450		9.533396	-0.371977	0.785035	0.001335	0.002968	-0.008155	-0.594238	-0.100830	0.526367	-0.107868	-0.667947	0.135301	-0.723813
62451		9.556377	-0.377270	0.766359	-0.000584	0.003441	-0.005161	-0.594238	-0.103027	0.528564	-0.107844	-0.667941	0.135297	-0.723822
62452		9.549955	-0.384814	0.728551	0.001524	0.003827	-0.008291	-0.594238	-0.100830	0.530762	-0.107869	-0.667940	0.135283	-0.723823
62453		9.527781	-0.366540	0.746705	0.004281	0.005046	-0.007651	-0.592285	-0.100830	0.524170	-0.107872	-0.667932	0.135253	-0.723835
62454		9.542726	-0.381401	0.766864	0.002978	0.006426	-0.007993	-0.590088	-0.100830	0.528564	-0.107794	-0.667920	0.135139	-0.723879
62455		9.534106	-0.353731	0.788055	0.002654	0.004028	-0.005877	-0.596191	-0.107178	0.531006	-0.107699	-0.667943	0.135052	-0.723889
62456		9.557086	-0.359338	0.769425	0.000872	0.002535	-0.004461	-0.596436	-0.100830	0.532959	-0.107778	-0.667932	0.135155	-0.723867
62457		9.562166	-0.361851	0.757981	-0.000118	0.004864	-0.004087	-0.596191	-0.107178	0.528809	-0.107843	-0.667902	0.135248	-0.723868
62458		9.534092	-0.389620	0.756064	-0.005931	0.007419	-0.004551	-0.596436	-0.103027	0.532959	-0.107969	-0.667836	0.135386	-0.723884
62459		9.531339	-0.356732	0.762767	-0.003260	0.005430	-0.004856	-0.596436	-0.105225	0.528809	-0.108083	-0.667797	0.135513	-0.723879
62460		9.570068	-0.369803	0.761219	-0.002882	0.007148	-0.005129	-0.589844	-0.104980	0.531006	-0.108177	-0.667740	0.135610	-0.723900
62461		9.540594	-0.371173	0.743648	-0.000226	0.007215	-0.003004	-0.594238	-0.105225	0.528809	-0.108127	-0.667727	0.135606	-0.723920
62462		9.530273	-0.363134	0.769727	0.000520	0.004707	-0.005083	-0.593994	-0.109375	0.533203	-0.108148	-0.667711	0.135637	-0.723926
62463		9.549515	-0.391570	0.779773	-0.003352	0.005724	-0.006203	-0.596436	-0.103027	0.528564	-0.108273	-0.667685	0.135748	-0.723910
62464		9.539932	-0.352544	0.766376	-0.004238	0.005701	-0.006911	-0.592041	-0.105225	0.524414	-0.108373	-0.667644	0.135827	-0.723918
62465		9.545026	-0.354921	0.755023	-0.015675	0.003208	-0.004347	-0.594238	-0.107178	0.533203	-0.108440	-0.667631	0.135939	-0.723899
62466		9.554837	-0.366944	0.787124	0.002905	0.005660	-0.006997	-0.594238	-0.105225	0.528809	-0.108506	-0.667616	0.135973	-0.723897
62467		9.563965	-0.406174	0.749645	-0.002051	0.004345	-0.005859	-0.590088	-0.100830	0.526367	-0.108551	-0.667602	0.136018	-0.723894
62468		9.558193	-0.365364	0.744950	-0.001674	0.006064	-0.006131	-0.598633	-0.103027	0.526367	-0.108473	-0.667601	0.135942	-0.723921
62469		9.522329	-0.357114	0.760534	0.003699	0.005978	-0.007634	-0.594238	-0.105225	0.531006	-0.108535	-0.667554	0.135961	-0.723952
62470		9.537040	-0.333018	0.815502	0.003831	0.002563	-0.006381	-0.594238	-0.105225	0.531006	-0.108548	-0.667568	0.135966	-0.723936
62471		9.565259	-0.341785	0.784119	0.004029	-0.000082	-0.006116	-0.598633	-0.103027	0.526367	-0.108553	-0.667605	0.135974	-0.723900
62472		9.564226	-0.374095	0.770291	0.004495	0.001342	-0.005041	-0.598389	-0.107178	0.535400	-0.108578	-0.667596	0.136014	-0.723897
62473		9.540274	-0.354511	0.755788	0.001399	0.004730	-0.004372	-0.596436	-0.103027	0.524170	-0.108718	-0.667559	0.136166	-0.723881
62474		9.530735	-0.336937	0.779145	0.003655	0.004144	-0.004309	-0.594238	-0.105225	0.531006	-0.108690	-0.667535	0.136161	-0.723908
62475		9.547028	-0.357990	0.777626	0.004804	0.002291	-0.004324	-0.594238	-0.105225	0.526611	-0.108676	-0.667549	0.136173	-0.723896
62476		9.552158	-0.360639	0.765934	0.000350	0.002783	-0.002608	-0.592041	-0.105225	0.524414	-0.108652	-0.667545	0.136208	-0.723896
62477		9.562394	-0.367125	0.742336	0.001953	0.005859	-0.001950	-0.594238	-0.103027	0.526367	-0.108558	-0.667527	0.136177	-0.723933
62478		9.546585	-0.380265	0.764597	0.001597	0.008029	-0.002573	-0.594238	-0.107178	0.528809	-0.108517	-0.667479	0.136181	-0.723983
62479		9.557557	-0.377028	0.739663	-0.000718	0.009293	-0.004478	-0.594238	-0.105225	0.524414	-0.108558	-0.667420	0.136226	-0.724022
62480		9.532356	-0.328044	0.764189	0.003651	0.010089	-0.002773	-0.596436	-0.105225	0.528809	-0.108506	-0.667353	0.136206	-0.724095
62481		9.549404	-0.360993	0.798543	0.003541	0.006494	-0.003224	-0.592041	-0.105225	0.528809	-0.108521	-0.667311	0.136252	-0.724123
62482		9.560471	-0.378940	0.810111	0.003631	0.006200	-0.001877	-0.596436	-0.105225	0.526367	-0.108443	-0.667299	0.136233	-0.724150
62483		9.555723	-0.368621	0.768274	0.003695	0.006969	-0.002866	-0.592041	-0.105225	0.531006	-0.108438	-0.667250	0.136264	-0.724190
62484		9.557264	-0.369954	0.802030	0.005609	0.005050	-0.003023	-0.600586	-0.105225	0.528564	-0.108365	-0.667255	0.136232	-0.724202
62485		9.557220	-0.369241	0.802883	0.003335	0.001746	-0.002192	-0.596436	-0.100830	0.528564	-0.108438	-0.667228	0.136363	-0.724191
62486		9.581896	-0.356403	0.779219	0.005501	0.001455	-0.003474	-0.592041	-0.105225	0.526611	-0.108402	-0.667237	0.136370	-0.724187
62487		9.568130	-0.389279	0.760587	0.012130	0.003115	-0.004532	-0.598389	-0.107178	0.522217	-0.108258	-0.667266	0.136243	-0.724206
62488		9.541823	-0.398065	0.753026	0.003852	0.001498	-0.004040	-0.594238	-0.107178	0.526611	-0.108279	-0.667251	0.136291	-0.724208
62489		9.524103	-0.369101	0.777002	0.008710	0.003110	-0.006518	-0.592041	-0.105225	0.528809	-0.108235	-0.667264	0.136227	-0.724214
62490		9.556980	-0.366402	0.752352	0.004247	0.001158	-0.006741	-0.594238	-0.105225	0.522217	-0.108188	-0.667306	0.136169	-0.724193
62491		9.555622	-0.359379	0.773882	0.006965	0.002000	-0.005600	-0.596191	-0.107178	0.526611	-0.108113	-0.667320	0.136098	-0.724205
62492		9.560802	-0.361425	0.762227	0.003978	0.003034	-0.006018	-0.594238	-0.107178	0.531006	-0.108142	-0.667313	0.136116	-0.724204
62493		9.559997	-0.369420	0.765543	0.002793	0.004501	-0.005511	-0.592041	-0.105225	0.528809	-0.108167	-0.667308	0.136136	-0.724201
62494		9.526096	-0.381808	0.740855	0.001145	0.004543	-0.006078	-0.602783	-0.107422	0.531006	-0.108146	-0.667314	0.136107	-0.724204
62495		9.548162	-0.333030	0.776018	0.001195	0.001423	-0.006169	-0.596436	-0.105225	0.528809	-0.108342	-0.667281	0.136286	-0.724172
62496		9.542035	-0.361932	0.774903	0.003304	0.002807	-0.004527	-0.598389	-0.107178	0.528809	-0.108366	-0.667274	0.136327	-0.724166
62497		9.558399	-0.383035	0.773281	0.000068	0.002213	-0.003820	-0.594238	-0.105225	0.526611	-0.108458	-0.667254	0.136447	-0.724149
62498		9.568897	-0.364788	0.765888	0.003067	0.005068	-0.004299	-0.596436	-0.103027	0.528564	-0.108433	-0.667238	0.136440	-0.724169
62499		9.552896	-0.380962	0.734663	0.003105	0.007894	-0.002861	-0.594238	-0.103027	0.532959	-0.108438	-0.667183	0.136477	-0.724212
62500		9.548538	-0.342743	0.762628	0.004168	0.006336	-0.004220	-0.594238	-0.105225	0.526611	-0.108427	-0.667166	0.136479	-0.724228
62501		9.567216	-0.356603	0.791616	0.000715	0.004498	-0.002882	-0.596191	-0.107178	0.533203	-0.108408	-0.667150	0.136505	-0.724241
62502		9.552218	-0.360356	0.810696	-0.001059	0.003003	-0.001472	-0.598389	-0.109375	0.531006	-0.108470	-0.667138	0.136636	-0.724218
62503		9.541501	-0.380781	0.765935	0.001525	-0.000132	-0.000285	-0.592041	-0.103027	0.524170	-0.108537	-0.667138	0.136795	-0.724178
62504		9.568427	-0.385431	0.755414	-0.001007	-0.000117	-0.001563	-0.596436	-0.105225	0.531006	-0.108445	-0.667172	0.136791	-0.724161
62505		9.542164	-0.395005	0.747253	0.001466	0.000544	-0.002126	-0.594238	-0.103027	0.528564	-0.108470	-0.667182	0.136881	-0.724131
62506		9.551912	-0.386490	0.741751	0.004155	0.002449	-0.003321	-0.596436	-0.105225	0.528809	-0.108422	-0.667193	0.136875	-0.724130
62507		9.541638	-0.354085	0.783375	0.004218	0.003216	-0.004310	-0.592285	-0.096680	0.532715	-0.108438	-0.667184	0.136908	-0.724129
62508		9.549027	-0.373703	0.785444	0.002021	0.003122	-0.002536	-0.596436	-0.105225	0.526367	-0.108351	-0.667204	0.136882	-0.724128
62509		9.551863	-0.383849	0.743745	-0.001034	0.000943	-0.003899	-0.596191	-0.109375	0.526611	-0.108391	-0.667204	0.136958	-0.724108
62510		9.556286	-0.395861	0.734367	-0.000479	0.003521	-0.004309	-0.594238	-0.100830	0.530762	-0.108456	-0.667183	0.137039	-0.724103
62511		9.549624	-0.385754	0.768791	0.001415	0.005108	-0.004866	-0.596436	-0.103027	0.532959	-0.108448	-0.667172	0.137040	-0.724114
62512		9.529536	-0.360917	0.816798	0.002940	0.004976	-0.005150	-0.594238	-0.105225	0.528809	-0.108493	-0.667153	0.137084	-0.724117
62513		9.560890	-0.377410	0.797053	-0.001432	0.000284	-0.005962	-0.596436	-0.103027	0.528564	-0.108525	-0.667179	0.137119	-0.724080
62514		9.576565	-0.386856	0.759985	0.000698	-0.001833	-0.003916	-0.594238	-0.100830	0.532959	-0.108545	-0.667210	0.137182	-0.724037
62515		9.539817	-0.391936	0.722919	0.000308	0.001396	-0.006877	-0.596436	-0.105225	0.535400	-0.108569	-0.667237	0.137192	-0.724006
62516		9.533293	-0.357011	0.773219	0.002477	0.003550	-0.006224	-0.596436	-0.103027	0.528564	-0.108650	-0.667234	0.137254	-0.723986
62517		9.539310	-0.370618	0.796117	0.001892	0.000588	-0.005319	-0.596436	-0.105225	0.528809	-0.108678	-0.667246	0.137292	-0.723963
62518		9.552130	-0.369053	0.801124	-0.002933	-0.003088	-0.005274	-0.592041	-0.105225	0.531006	-0.108753	-0.667285	0.137390	-0.723898
62519		9.573813	-0.372520	0.749046	0.002285	-0.001196	-0.005188	-0.598633	-0.103027	0.535156	-0.108717	-0.667343	0.137374	-0.723852
62520		9.550623	-0.389007	0.751828	0.001035	-0.000498	-0.003694	-0.592041	-0.105225	0.531006	-0.108809	-0.667355	0.137504	-0.723803
62521		9.535007	-0.356397	0.751507	0.000028	-0.000616	-0.005256	-0.594238	-0.100830	0.524170	-0.108795	-0.667405	0.137508	-0.723758
62522		9.543984	-0.381037	0.731287	0.001031	-0.002941	-0.005625	-0.594238	-0.105225	0.531006	-0.108757	-0.667455	0.137492	-0.723721
62523		9.547740	-0.401960	0.723701	0.006069	0.001980	-0.006302	-0.594238	-0.107178	0.533203	-0.108748	-0.667476	0.137468	-0.723707
62524		9.557571	-0.368268	0.734667	0.003019	0.002241	-0.005734	-0.594238	-0.100830	0.528564	-0.108781	-0.667492	0.137494	-0.723683
62525		9.532844	-0.357886	0.722349	0.006282	0.003223	-0.006933	-0.596191	-0.109375	0.528809	-0.108745	-0.667500	0.137433	-0.723692
62526		9.538096	-0.380651	0.748186	0.006009	0.005099	-0.006212	-0.592041	-0.103027	0.526367	-0.108790	-0.667476	0.137449	-0.723705
62527		9.550088	-0.388168	0.756694	0.005882	0.001120	-0.006164	-0.589844	-0.107178	0.524414	-0.108708	-0.667512	0.137363	-0.723700
62528		9.559891	-0.354378	0.767685	0.003993	0.003418	-0.006507	-0.594238	-0.100830	0.526367	-0.108624	-0.667536	0.137261	-0.723710
62529		9.553804	-0.362371	0.729778	0.002530	0.002873	-0.004382	-0.592041	-0.105225	0.531006	-0.108589	-0.667534	0.137249	-0.723719
62530		9.548581	-0.357677	0.742706	0.006309	0.002164	-0.004596	-0.589844	-0.104980	0.528809	-0.108523	-0.667565	0.137198	-0.723710
62531		9.531370	-0.389047	0.768877	0.002743	0.004116	-0.005013	-0.598633	-0.103027	0.528564	-0.108446	-0.667584	0.137128	-0.723717
62532		9.555329	-0.360827	0.764201	0.001431	0.001603	-0.004461	-0.592041	-0.107178	0.531006	-0.108520	-0.667567	0.137221	-0.723704
62533		9.541836	-0.369621	0.761803	0.000975	0.002620	-0.003604	-0.592041	-0.107178	0.528809	-0.108502	-0.667584	0.137235	-0.723689
62534		9.547039	-0.372166	0.750244	0.001035	0.003387	-0.004593	-0.590088	-0.103027	0.528564	-0.108485	-0.667592	0.137232	-0.723685
62535		9.538747	-0.384382	0.735970	0.000456	0.004311	-0.004588	-0.596436	-0.100830	0.528564	-0.108418	-0.667603	0.137182	-0.723693
62536		9.535762	-0.372279	0.779330	-0.000855	0.005683	-0.004936	-0.594238	-0.105225	0.531006	-0.108473	-0.667561	0.137240	-0.723713
62537		9.550679	-0.366823	0.762192	0.000119	0.002975	-0.004808	-0.594238	-0.105225	0.528809	-0.108502	-0.667562	0.137280	-0.723700
62538		9.560367	-0.382401	0.740823	-0.001892	0.003738	-0.003174	-0.594238	-0.103027	0.528564	-0.108528	-0.667547	0.137344	-0.723698
62539		9.525120	-0.365795	0.753401	0.006338	0.004994	-0.003157	-0.593994	-0.109375	0.526611	-0.108476	-0.667532	0.137323	-0.723724
62540		9.539284	-0.345432	0.755193	0.002953	0.005359	-0.005643	-0.596436	-0.100830	0.526367	-0.108496	-0.667510	0.137326	-0.723741
62541		9.559480	-0.364238	0.763011	0.001977	0.004181	-0.004870	-0.592041	-0.109375	0.528809	-0.108517	-0.667482	0.137354	-0.723758
62542		9.550455	-0.385833	0.751347	-0.002535	0.005335	-0.005011	-0.590088	-0.103027	0.528564	-0.108547	-0.667469	0.137384	-0.723760
62543		9.527174	-0.377936	0.772026	0.001000	0.006888	-0.004997	-0.592041	-0.105225	0.533203	-0.108482	-0.667460	0.137320	-0.723790
62544		9.524095	-0.369276	0.762260	0.000635	0.005169	-0.004724	-0.594238	-0.100830	0.528564	-0.108472	-0.667461	0.137316	-0.723792
62545		9.536807	-0.367550	0.768534	0.003805	0.002559	-0.006365	-0.594238	-0.105225	0.531006	-0.108454	-0.667471	0.137284	-0.723791
62546		9.557792	-0.377087	0.773354	-0.002258	0.002018	-0.002901	-0.596191	-0.107178	0.526611	-0.108480	-0.667475	0.137358	-0.723769
62547		9.565999	-0.366228	0.735816	-0.001499	0.003394	-0.005872	-0.594238	-0.107178	0.531006	-0.108566	-0.667452	0.137431	-0.723763
62548		9.551781	-0.384163	0.736143	0.001060	0.003769	-0.005085	-0.592285	-0.100830	0.528564	-0.108596	-0.667449	0.137461	-0.723756
62549		9.520280	-0.365001	0.757357	0.002491	0.003931	-0.006714	-0.598633	-0.103027	0.526367	-0.108559	-0.667458	0.137403	-0.723765
62550		9.541258	-0.374172	0.762503	0.004077	0.003129	-0.005154	-0.594238	-0.107178	0.528809	-0.108616	-0.667428	0.137458	-0.723773
62551		9.554741	-0.387347	0.750209	0.003708	0.005295	-0.005781	-0.596191	-0.107178	0.531006	-0.108629	-0.667412	0.137452	-0.723787
62552		9.549446	-0.385649	0.710803	0.005835	0.008511	-0.007461	-0.598389	-0.107178	0.531006	-0.108684	-0.667364	0.137445	-0.723825
62553		9.526052	-0.352990	0.748283	0.003610	0.008030	-0.005198	-0.600586	-0.103027	0.526367	-0.108775	-0.667300	0.137514	-0.723856
62554		9.540154	-0.353175	0.787901	0.008332	0.008122	-0.005683	-0.594238	-0.105225	0.526611	-0.108841	-0.667222	0.137549	-0.723912
62555		9.552856	-0.375825	0.778824	0.003398	0.006787	-0.004566	-0.592041	-0.105225	0.531006	-0.108830	-0.667188	0.137538	-0.723947
62556		9.551324	-0.372619	0.747909	0.002000	0.004563	-0.005362	-0.592041	-0.105225	0.528809	-0.108803	-0.667196	0.137506	-0.723950
