// Start Time: Unknown
// Update Rate: 40.0Hz
// Filter Profile: human (46.1)
// Firmware Version: 4.6.0
PacketCounter	SampleTimeFine	Acc_X	Acc_Y	Acc_Z	Gyr_X	Gyr_Y	Gyr_Z	Mag_X	Mag_Y	Mag_Z	Quat_q0	Quat_q1	Quat_q2	Quat_q3
61647		9.702750	0.140440	-0.429867	-0.011756	0.003766	0.025473	-0.702393	0.273438	0.316162	0.252847	-0.668546	-0.274223	-0.643363
61648		9.750279	0.170642	-0.436751	-0.005553	0.008319	0.024589	-0.704590	0.270752	0.310791	0.253027	-0.668581	-0.273947	-0.643374
61649		9.739317	0.187404	-0.388969	-0.000126	0.005059	0.023926	-0.701660	0.276611	0.304443	0.253235	-0.668617	-0.273732	-0.643347
61650		9.712927	0.228918	-0.401350	0.002067	0.002058	0.026131	-0.709717	0.268799	0.309814	0.253468	-0.668681	-0.273524	-0.643276
61651		9.732421	0.253821	-0.386217	-0.003389	0.004343	0.022194	-0.708740	0.271973	0.302490	0.253627	-0.668728	-0.273303	-0.643259
61652		9.752922	0.263672	-0.365242	-0.013595	0.000802	0.020328	-0.701416	0.270752	0.302490	0.253666	-0.668822	-0.273035	-0.643259
61653		9.730906	0.277841	-0.375496	-0.021264	-0.000311	0.019172	-0.710938	0.277100	0.299805	0.253616	-0.668935	-0.272729	-0.643291
61654		9.722869	0.278918	-0.376020	-0.031235	-0.001793	0.018013	-0.700195	0.272217	0.307129	0.253453	-0.669076	-0.272371	-0.643361
61655		9.729400	0.246347	-0.404393	-0.040300	-0.002843	0.021072	-0.702148	0.271729	0.308350	0.253218	-0.669251	-0.271934	-0.643456
61656		9.726196	0.198264	-0.440164	-0.041564	-0.002988	0.020287	-0.696777	0.281250	0.305176	0.252950	-0.669421	-0.271509	-0.643564
61657		9.738453	0.157627	-0.459563	-0.034739	-0.004934	0.019010	-0.703613	0.280029	0.293213	0.252714	-0.669579	-0.271166	-0.643636
61658		9.715390	0.157816	-0.412778	-0.032664	-0.006639	0.018284	-0.699951	0.272217	0.300781	0.252479	-0.669743	-0.270864	-0.643686
61659		9.719869	0.157305	-0.453486	-0.025525	-0.001322	0.018175	-0.695312	0.269043	0.289551	0.252316	-0.669846	-0.270595	-0.643756
61660		9.718341	0.132045	-0.460481	-0.018637	-0.000577	0.021645	-0.695312	0.278809	0.303467	0.252253	-0.669938	-0.270358	-0.643784
61661		9.724651	0.153409	-0.472201	-0.012713	-0.003720	0.020595	-0.700928	0.275391	0.300049	0.252203	-0.670041	-0.270178	-0.643772
61662		9.736982	0.168764	-0.453008	-0.008866	-0.002999	0.019439	-0.698730	0.280029	0.303955	0.252166	-0.670123	-0.270053	-0.643754
61663		9.733279	0.197539	-0.412750	-0.011183	-0.002578	0.014995	-0.696045	0.283203	0.292236	0.252069	-0.670201	-0.269941	-0.643758
61664		9.743776	0.191840	-0.422040	-0.020161	-0.003366	0.012083	-0.698242	0.280029	0.307617	0.251907	-0.670283	-0.269807	-0.643792
61665		9.733119	0.190362	-0.435544	-0.022486	-0.000771	0.006817	-0.698730	0.273438	0.310303	0.251632	-0.670353	-0.269665	-0.643886
61666		9.750790	0.142415	-0.466533	-0.023480	0.000716	0.007733	-0.701172	0.272217	0.297852	0.251337	-0.670427	-0.269500	-0.643993
61667		9.716874	0.143295	-0.453539	-0.020914	-0.003387	0.010913	-0.698486	0.269775	0.306396	0.251116	-0.670510	-0.269383	-0.644041
61668		9.717836	0.179208	-0.431729	-0.022138	-0.006131	0.011926	-0.706055	0.283203	0.300537	0.250857	-0.670657	-0.269216	-0.644059
61669		9.737098	0.150884	-0.456806	-0.022456	-0.001586	0.011240	-0.697998	0.268799	0.302979	0.250618	-0.670722	-0.269081	-0.644141
61670		9.720121	0.122568	-0.458768	-0.028532	0.000778	0.012682	-0.703613	0.277100	0.312256	0.250361	-0.670830	-0.268840	-0.644229
61671		9.731514	0.101757	-0.461278	-0.017381	0.001873	0.009071	-0.693359	0.270752	0.313232	0.250103	-0.670906	-0.268683	-0.644317
61672		9.753347	0.078984	-0.472457	-0.004440	0.001044	0.006671	-0.697754	0.281250	0.312988	0.249982	-0.670978	-0.268607	-0.644320
61673		9.752934	0.096751	-0.434691	0.006218	-0.000955	0.008700	-0.697021	0.272705	0.309570	0.249966	-0.671037	-0.268602	-0.644267
61674		9.733725	0.120659	-0.410476	0.009982	0.000659	0.005614	-0.704590	0.273438	0.302002	0.249983	-0.671044	-0.268673	-0.644223
61675		9.728567	0.161921	-0.440015	0.014312	0.003321	0.006732	-0.702637	0.281738	0.305908	0.250080	-0.670956	-0.268822	-0.644214
61676		9.739652	0.193063	-0.468584	0.013254	0.002509	-0.000553	-0.693359	0.282471	0.313965	0.250110	-0.670887	-0.268973	-0.644212
61677		9.733673	0.223362	-0.418319	0.003524	-0.000443	-0.003809	-0.694092	0.267822	0.302490	0.250004	-0.670942	-0.269005	-0.644183
61678		9.748542	0.225399	-0.467207	-0.006877	-0.002909	-0.002663	-0.706055	0.278076	0.300293	0.249859	-0.670951	-0.269078	-0.644198
61679		9.721916	0.186748	-0.454803	-0.017757	0.001957	0.001002	-0.703125	0.279297	0.301025	0.249654	-0.670929	-0.269036	-0.644319
61680		9.724331	0.137142	-0.459173	-0.025373	-0.001761	0.001611	-0.704834	0.285889	0.305176	0.249398	-0.670977	-0.268919	-0.644416
61681		9.730744	0.111479	-0.466059	-0.023258	-0.001361	-0.002420	-0.703369	0.280273	0.301514	0.249123	-0.671036	-0.268802	-0.644510
61682		9.720051	0.112708	-0.479264	-0.017479	0.000013	-0.000112	-0.702881	0.275146	0.310059	0.248950	-0.671046	-0.268739	-0.644594
61683		9.740779	0.128624	-0.436782	-0.011553	0.001792	0.005263	-0.693359	0.275879	0.304199	0.248758	-0.671115	-0.268625	-0.644643
61684		9.721150	0.149289	-0.455444	-0.011649	0.002313	0.006786	-0.702881	0.272217	0.305176	0.248720	-0.671165	-0.268508	-0.644655
61685		9.753380	0.176897	-0.479518	-0.009803	0.002477	0.004682	-0.703369	0.269043	0.309814	0.248580	-0.671171	-0.268451	-0.644726
61686		9.738226	0.225777	-0.456695	-0.009036	0.001476	-0.001244	-0.704834	0.283691	0.308350	0.248309	-0.671204	-0.268435	-0.644802
61687		9.727161	0.246412	-0.430931	-0.015458	0.006659	-0.000630	-0.702148	0.271484	0.298828	0.248135	-0.671218	-0.268297	-0.644913
61688		9.707405	0.214518	-0.465727	-0.013157	0.007023	-0.000623	-0.698242	0.273193	0.305420	0.248024	-0.671105	-0.268301	-0.645071
61689		9.713838	0.240835	-0.475589	-0.019076	0.001890	0.002702	-0.699219	0.275635	0.307861	0.247818	-0.671157	-0.268177	-0.645148
61690		9.736075	0.223159	-0.443405	-0.021614	-0.000535	0.001962	-0.702148	0.275879	0.305420	0.247560	-0.671261	-0.268022	-0.645203
61691		9.740357	0.196015	-0.419626	-0.023847	-0.003159	0.000267	-0.697021	0.270752	0.307617	0.247284	-0.671343	-0.267895	-0.645276
61692		9.724575	0.187910	-0.457744	-0.018203	0.006081	-0.002756	-0.697510	0.268066	0.306641	0.247012	-0.671360	-0.267809	-0.645399
61693		9.715023	0.175663	-0.442136	-0.014468	0.003798	-0.005180	-0.703857	0.273926	0.313721	0.246728	-0.671356	-0.267803	-0.645514
61694		9.732731	0.184989	-0.455483	-0.010963	0.000825	-0.004711	-0.700195	0.273682	0.302734	0.246391	-0.671442	-0.267746	-0.645577
61695		9.745517	0.186538	-0.473101	-0.006360	-0.000614	-0.003879	-0.705078	0.274414	0.311279	0.246300	-0.671395	-0.267814	-0.645632
61696		9.746525	0.225420	-0.449848	-0.005836	0.000869	-0.000640	-0.701416	0.271484	0.308105	0.246084	-0.671444	-0.267779	-0.645678
61697		9.738627	0.232638	-0.428251	-0.007888	0.000375	0.000888	-0.700195	0.276367	0.311523	0.245906	-0.671474	-0.267757	-0.645724
61698		9.709248	0.187046	-0.450360	-0.009296	0.001216	0.000668	-0.706787	0.277100	0.306152	0.245728	-0.671568	-0.267656	-0.645735
61699		9.724348	0.243009	-0.480840	-0.006217	0.001957	-0.001625	-0.696533	0.264404	0.306641	0.245624	-0.671527	-0.267649	-0.645821
61700		9.746353	0.224253	-0.470541	-0.013449	-0.000688	-0.000867	-0.697998	0.268311	0.308838	0.245355	-0.671556	-0.267660	-0.645888
61701		9.751299	0.180010	-0.462810	-0.016712	-0.001380	-0.002611	-0.709229	0.272705	0.308594	0.245047	-0.671634	-0.267612	-0.645944
61702		9.735919	0.175750	-0.458006	-0.009305	-0.000145	-0.002957	-0.701416	0.268555	0.302246	0.244802	-0.671622	-0.267608	-0.646051
61703		9.714105	0.197532	-0.446270	-0.003340	0.000201	-0.003680	-0.711426	0.274902	0.308838	0.244725	-0.671516	-0.267738	-0.646137
61704		9.729270	0.201499	-0.472394	-0.003678	0.004379	-0.000881	-0.696777	0.273682	0.310791	0.244582	-0.671458	-0.267723	-0.646257
61705		9.733337	0.224765	-0.473392	-0.006679	0.002741	0.003347	-0.695312	0.264893	0.306152	0.244487	-0.671554	-0.267619	-0.646237
61706		9.746365	0.226334	-0.469308	-0.009282	-0.003146	0.002280	-0.700928	0.281250	0.302246	0.244313	-0.671603	-0.267636	-0.646244
61707		9.718188	0.220768	-0.446935	-0.008681	0.000816	-0.001243	-0.700684	0.271729	0.302002	0.244417	-0.671557	-0.267594	-0.646269
61708		9.726307	0.216039	-0.446207	-0.002794	0.002057	-0.003902	-0.703369	0.264404	0.312256	0.244410	-0.671443	-0.267691	-0.646351
61709		9.751269	0.235280	-0.464720	0.001910	0.003639	-0.001777	-0.699463	0.276611	0.310547	0.244132	-0.671450	-0.267756	-0.646422
61710		9.703283	0.249954	-0.482067	0.001789	0.003780	0.003211	-0.706055	0.270020	0.308594	0.244159	-0.671503	-0.267699	-0.646380
61711		9.711455	0.243979	-0.480900	0.000104	0.003016	0.001290	-0.697266	0.266602	0.307373	0.244038	-0.671466	-0.267727	-0.646453
61712		9.729379	0.253878	-0.472666	-0.002581	0.000200	-0.002523	-0.700439	0.263672	0.308105	0.243881	-0.671471	-0.267801	-0.646476
61713		9.735155	0.246526	-0.462641	-0.002116	0.005126	-0.005489	-0.699219	0.267090	0.315186	0.243639	-0.671409	-0.267907	-0.646588
61714		9.740933	0.239427	-0.452441	-0.001423	0.001662	-0.004652	-0.706543	0.269531	0.303955	0.243324	-0.671525	-0.267916	-0.646583
61715		9.718185	0.222631	-0.462755	0.000676	0.008779	0.000422	-0.698486	0.267090	0.305176	0.243326	-0.671346	-0.267988	-0.646737
61716		9.721209	0.260437	-0.490383	0.000197	0.004675	-0.001044	-0.696777	0.268799	0.307861	0.243282	-0.671270	-0.268073	-0.646798
61717		9.737873	0.252927	-0.445148	-0.006205	0.003308	0.001994	-0.703125	0.270020	0.308350	0.243187	-0.671305	-0.268036	-0.646813
61718		9.737724	0.251030	-0.466213	-0.010699	0.002046	0.000438	-0.696777	0.272217	0.315674	0.243009	-0.671328	-0.267972	-0.646881
61719		9.716032	0.219697	-0.449516	-0.008445	0.005041	-0.001324	-0.708740	0.279541	0.312256	0.242776	-0.671501	-0.267826	-0.646851
61720		9.720988	0.227601	-0.444164	-0.008548	0.007734	-0.000606	-0.702393	0.269287	0.308350	0.242673	-0.671537	-0.267643	-0.646927
61721		9.715286	0.235980	-0.452177	-0.011348	0.002881	0.001373	-0.696045	0.264893	0.309082	0.242509	-0.671556	-0.267572	-0.646999
61722		9.740120	0.252854	-0.492199	-0.009638	0.004022	-0.000167	-0.699219	0.267334	0.296631	0.242311	-0.671591	-0.267553	-0.647044
61723		9.754395	0.242480	-0.437936	-0.010664	0.003771	0.000594	-0.707520	0.262451	0.307617	0.242393	-0.671390	-0.267631	-0.647190
61724		9.735143	0.267829	-0.412557	-0.012922	0.002950	0.001545	-0.702637	0.269775	0.305664	0.242087	-0.671348	-0.267604	-0.647360
61725		9.703571	0.273628	-0.407607	-0.015156	0.002506	-0.000967	-0.708984	0.272705	0.305664	0.241947	-0.671329	-0.267535	-0.647460
61726		9.722022	0.264595	-0.436817	-0.018688	0.003737	-0.001603	-0.707275	0.262207	0.304443	0.241789	-0.671279	-0.267414	-0.647621
61727		9.738120	0.252599	-0.457004	-0.018305	0.002644	-0.000623	-0.697510	0.270020	0.305420	0.241492	-0.671195	-0.267383	-0.647831
61728		9.752019	0.239228	-0.446599	-0.018510	0.002322	-0.001198	-0.706543	0.264893	0.314453	0.241383	-0.671220	-0.267282	-0.647887
61729		9.733278	0.246145	-0.459224	-0.012929	0.003768	-0.002892	-0.711670	0.269287	0.310547	0.240982	-0.671303	-0.267183	-0.647992
61730		9.749694	0.237795	-0.435981	-0.012961	0.002037	-0.003057	-0.704590	0.268066	0.299805	0.240707	-0.671308	-0.267095	-0.648125
61731		9.715575	0.239719	-0.443920	-0.010459	0.002731	-0.002465	-0.699463	0.259033	0.315918	0.240711	-0.671146	-0.267137	-0.648274
61732		9.730814	0.244187	-0.469403	-0.001526	0.006539	-0.004733	-0.703613	0.264648	0.312500	0.240332	-0.671222	-0.267158	-0.648327
61733		9.712880	0.287867	-0.479524	-0.002138	0.006926	-0.002826	-0.703125	0.269531	0.309570	0.240118	-0.671231	-0.267148	-0.648401
61734		9.734354	0.287774	-0.430532	-0.005647	0.000791	0.003379	-0.712402	0.269775	0.307861	0.240054	-0.671290	-0.267063	-0.648399
61735		9.732748	0.266286	-0.437535	-0.001532	0.000968	0.004767	-0.700195	0.272217	0.301025	0.240014	-0.671250	-0.267016	-0.648475
61736		9.720595	0.299338	-0.439172	0.001754	0.005567	0.005882	-0.712402	0.267822	0.302734	0.240283	-0.671128	-0.267021	-0.648499
61737		9.722293	0.264045	-0.448544	0.002754	0.005435	0.008583	-0.703857	0.273193	0.313965	0.240379	-0.670961	-0.267022	-0.648635
61738		9.696189	0.308786	-0.481008	0.008641	0.006691	0.005941	-0.698730	0.276123	0.308838	0.240443	-0.671028	-0.266951	-0.648572
61739		9.714323	0.318676	-0.450083	0.005387	0.003821	0.004991	-0.701660	0.268799	0.314697	0.240631	-0.671076	-0.266892	-0.648476
61740		9.751152	0.322529	-0.406543	-0.001566	-0.000761	0.004602	-0.712891	0.264404	0.306396	0.240497	-0.671235	-0.266815	-0.648394
61741		9.710571	0.294094	-0.425367	-0.007628	0.007271	0.008046	-0.708252	0.260742	0.309326	0.240368	-0.671133	-0.266731	-0.648582
61742		9.719534	0.268940	-0.439652	-0.001215	0.005641	0.010258	-0.706055	0.268311	0.308105	0.240232	-0.671096	-0.266698	-0.648684
61743		9.702574	0.292957	-0.445200	-0.004702	-0.000109	0.012999	-0.705322	0.268066	0.309814	0.240222	-0.671150	-0.266570	-0.648684
61744		9.736659	0.287191	-0.458008	-0.003470	0.002638	0.012007	-0.704102	0.270752	0.304688	0.240193	-0.671205	-0.266443	-0.648691
61745		9.735367	0.266608	-0.421171	0.000510	0.001592	0.014758	-0.703857	0.277100	0.306152	0.240352	-0.671196	-0.266346	-0.648680
61746		9.733109	0.259834	-0.411696	0.002708	0.002475	0.016303	-0.702393	0.265137	0.308350	0.240607	-0.671230	-0.266181	-0.648619
61747		9.701510	0.260364	-0.428550	-0.000551	0.003964	0.013743	-0.705811	0.263672	0.303955	0.240611	-0.671248	-0.266109	-0.648628
61748		9.721081	0.286221	-0.434625	-0.001008	0.000255	0.008810	-0.697021	0.271729	0.308594	0.240583	-0.671187	-0.266125	-0.648695
61749		9.744515	0.282370	-0.460489	-0.007553	0.002852	0.007153	-0.709229	0.265381	0.314209	0.240602	-0.671271	-0.266002	-0.648651
61750		9.737290	0.270264	-0.454874	-0.014476	0.000006	0.006924	-0.702637	0.264893	0.300293	0.240279	-0.671398	-0.265834	-0.648709
61751		9.721283	0.230540	-0.408457	-0.014070	-0.002877	0.005247	-0.698730	0.266602	0.309814	0.240212	-0.671348	-0.265807	-0.648796
61752		9.707461	0.243242	-0.419013	-0.011981	-0.005004	0.005498	-0.707764	0.268311	0.298584	0.240054	-0.671491	-0.265718	-0.648743
61753		9.721012	0.225288	-0.453201	-0.011259	0.001975	0.003284	-0.702393	0.268799	0.307861	0.240055	-0.671345	-0.265685	-0.648908
61754		9.749376	0.230608	-0.473747	-0.019643	0.013099	0.000508	-0.698242	0.264648	0.310791	0.239896	-0.671304	-0.265510	-0.649080
61755		9.754169	0.236726	-0.509889	-0.046167	0.014910	-0.010990	-0.704346	0.266602	0.308105	0.239350	-0.671346	-0.265227	-0.649354
61756		9.807939	0.422572	-0.557669	-0.077995	0.018617	-0.016480	-0.704102	0.260498	0.315674	0.238547	-0.671369	-0.264710	-0.649837
61757		9.660150	0.410853	-0.444128	-0.112980	-0.118398	-0.030268	-0.697266	0.275146	0.313232	0.236693	-0.672661	-0.264422	-0.649295
61758		9.902644	0.306793	-0.644714	-0.262586	-0.079786	-0.068941	-0.699707	0.259521	0.319092	0.233761	-0.673949	-0.263050	-0.649579
61759		9.445477	0.038829	-0.615199	-0.242958	-0.154992	-0.093764	-0.706787	0.262695	0.322266	0.230303	-0.675683	-0.262346	-0.649298
61760		9.815143	0.137922	-0.538468	-0.213648	-0.121343	-0.128648	-0.701416	0.250000	0.315430	0.226979	-0.676905	-0.262005	-0.649333
61761		9.741852	-0.014298	-0.750523	-0.122916	-0.051443	-0.108607	-0.708252	0.254150	0.332764	0.224888	-0.677201	-0.262185	-0.649679
61762		9.746463	0.051614	-0.770426	-0.000001	0.012128	-0.070413	-0.712402	0.241455	0.327148	0.224180	-0.676988	-0.262681	-0.649946
61763		9.714491	0.318240	-0.697682	0.078230	0.065800	-0.032757	-0.705811	0.247803	0.325195	0.224523	-0.676103	-0.263467	-0.650430
61764		9.649384	0.473976	-0.484153	0.117117	0.059153	0.003892	-0.710938	0.243652	0.325684	0.225612	-0.675340	-0.264237	-0.650533
61765		9.773431	0.375808	-0.323298	0.118597	0.063940	0.029191	-0.697510	0.248291	0.321777	0.226811	-0.674605	-0.264815	-0.650645
61766		9.764598	0.425295	-0.192377	0.140610	0.076707	0.053156	-0.706299	0.250732	0.318115	0.228599	-0.673825	-0.265345	-0.650611
61767		9.705855	0.576168	-0.400254	0.170450	0.063824	0.068059	-0.697266	0.252197	0.313721	0.230688	-0.673049	-0.266013	-0.650404
61768		9.662841	0.592786	-0.451777	0.174354	0.051762	0.075463	-0.708740	0.264160	0.313477	0.232914	-0.672383	-0.266731	-0.650005
61769		9.717476	0.621850	-0.377871	0.167786	0.066726	0.065723	-0.702637	0.255615	0.305664	0.235053	-0.671592	-0.267301	-0.649819
61770		9.773207	0.616478	-0.378092	0.172888	0.069452	0.048784	-0.708252	0.261719	0.310791	0.237105	-0.670602	-0.268209	-0.649722
61771		9.639029	0.537999	-0.411790	0.141012	0.059879	0.043915	-0.702148	0.268555	0.307617	0.238712	-0.669866	-0.268824	-0.649638
61772		9.679693	0.564597	-0.451352	0.100453	0.050363	0.039810	-0.703369	0.267090	0.306396	0.240034	-0.669341	-0.269149	-0.649557
61773		9.755405	0.525750	-0.430434	0.068678	0.042274	0.040277	-0.707031	0.267090	0.304932	0.241020	-0.668964	-0.269262	-0.649534
61774		9.756256	0.408110	-0.435369	0.050585	0.032195	0.045024	-0.708984	0.277344	0.306641	0.241824	-0.668714	-0.269225	-0.649508
61775		9.711430	0.312517	-0.405170	0.031057	0.018655	0.051194	-0.708984	0.270996	0.294434	0.242514	-0.668720	-0.268907	-0.649377
61776		9.724820	0.251109	-0.370512	0.009657	0.018439	0.053595	-0.705322	0.262939	0.302002	0.243124	-0.668606	-0.268536	-0.649419
61777		9.799562	0.154127	-0.393617	0.015316	0.022366	0.047609	-0.706787	0.272705	0.294189	0.243569	-0.668509	-0.268303	-0.649448
61778		9.735665	0.118474	-0.383407	0.035608	0.009589	0.040863	-0.707764	0.277344	0.297363	0.244271	-0.668363	-0.268280	-0.649345
61779		9.667423	0.182345	-0.365676	0.034005	0.009274	0.044471	-0.704590	0.278809	0.305420	0.244968	-0.668297	-0.268155	-0.649202
61780		9.708459	0.196594	-0.365411	0.030426	0.011392	0.041864	-0.699951	0.268799	0.288574	0.245537	-0.668341	-0.267978	-0.649014
61781		9.768159	0.202071	-0.394379	0.024857	0.013780	0.033865	-0.709961	0.281250	0.295410	0.246134	-0.668112	-0.268012	-0.649010
61782		9.763514	0.184517	-0.417681	0.012723	0.004914	0.031056	-0.708496	0.270020	0.294678	0.246532	-0.668088	-0.267826	-0.648961
61783		9.732776	0.100144	-0.375704	0.005884	-0.001821	0.035540	-0.709961	0.276611	0.292969	0.246765	-0.668115	-0.267666	-0.648911
61784		9.726579	0.121520	-0.326075	0.022247	-0.000859	0.033601	-0.716064	0.273926	0.296631	0.247201	-0.668071	-0.267609	-0.648813
61785		9.739738	0.181906	-0.353948	0.043887	0.002112	0.029944	-0.694580	0.282227	0.285889	0.247661	-0.667943	-0.267730	-0.648719
61786		9.755403	0.176949	-0.380242	0.025955	0.001231	0.032036	-0.698975	0.276611	0.295410	0.248383	-0.667844	-0.267774	-0.648527
61787		9.684987	0.169187	-0.389580	0.024030	-0.004183	0.031191	-0.701660	0.272949	0.299805	0.248818	-0.667887	-0.267795	-0.648308
61788		9.754481	0.194684	-0.371185	0.026859	0.000232	0.032623	-0.700195	0.275146	0.291992	0.249167	-0.667927	-0.267802	-0.648130
61789		9.737465	0.229253	-0.384324	0.021511	-0.003072	0.033216	-0.708008	0.284424	0.294922	0.249591	-0.667923	-0.267806	-0.647968
61790		9.740121	0.224356	-0.393859	-0.005278	-0.000762	0.029215	-0.697510	0.282227	0.283447	0.249780	-0.668004	-0.267532	-0.647925
61791		9.690372	0.146459	-0.387868	-0.017369	-0.003500	0.024944	-0.699951	0.274414	0.302734	0.250013	-0.668014	-0.267317	-0.647914
61792		9.710021	0.097229	-0.428485	-0.007366	-0.003132	0.019116	-0.699951	0.284912	0.295654	0.249910	-0.668187	-0.267151	-0.647843
61793		9.763483	0.137484	-0.411715	-0.003210	-0.006608	0.015241	-0.702148	0.282959	0.291016	0.250037	-0.668290	-0.267061	-0.647726
61794		9.736408	0.167234	-0.368433	-0.017290	-0.009343	0.018023	-0.702393	0.281982	0.294678	0.250064	-0.668400	-0.266865	-0.647683
61795		9.747949	0.128517	-0.366639	-0.029101	-0.002099	0.018073	-0.702393	0.280029	0.295654	0.249956	-0.668528	-0.266535	-0.647728
61796		9.712449	0.091600	-0.355709	-0.027443	-0.004888	0.017203	-0.709229	0.282471	0.295898	0.249806	-0.668676	-0.266237	-0.647755
61797		9.738448	0.086018	-0.413576	-0.032964	-0.004157	0.015585	-0.705322	0.281494	0.306641	0.249578	-0.668814	-0.265871	-0.647851
61798		9.751920	0.066466	-0.426509	-0.036442	-0.005955	0.017683	-0.703613	0.282227	0.304443	0.249236	-0.669116	-0.265435	-0.647849
61799		9.738895	0.062178	-0.410192	-0.032224	-0.004577	0.020170	-0.694580	0.280518	0.288818	0.249007	-0.669377	-0.265023	-0.647837
61800		9.740438	0.094588	-0.410146	-0.024686	-0.005748	0.015697	-0.701904	0.286377	0.285156	0.249029	-0.669443	-0.264830	-0.647839
61801		9.705471	0.126528	-0.410132	-0.030353	-0.006225	0.015444	-0.701416	0.285156	0.303223	0.249061	-0.669476	-0.264567	-0.647900
61802		9.734443	0.112308	-0.427749	-0.034605	-0.002765	0.012820	-0.694580	0.286377	0.296875	0.248842	-0.669688	-0.264207	-0.647912
61803		9.737405	0.096762	-0.431672	-0.031898	-0.003139	0.010372	-0.695068	0.289795	0.295898	0.248766	-0.669831	-0.263944	-0.647901
61804		9.740354	0.081711	-0.435613	-0.034775	-0.002709	0.008791	-0.703857	0.287598	0.299072	0.248716	-0.669961	-0.263668	-0.647898
61805		9.755414	0.102499	-0.425445	-0.027722	-0.007061	0.007444	-0.694336	0.279785	0.297119	0.248563	-0.670107	-0.263430	-0.647902
61806		9.742830	0.085281	-0.403667	-0.025510	-0.005371	0.004567	-0.695312	0.287842	0.296631	0.248387	-0.670219	-0.263282	-0.647914
61807		9.713342	0.109715	-0.415651	-0.020052	-0.005218	0.004247	-0.695557	0.286133	0.305176	0.248385	-0.670305	-0.263176	-0.647869
61808		9.699798	0.121401	-0.448187	-0.020572	-0.002713	0.002848	-0.694580	0.273193	0.296875	0.248280	-0.670449	-0.263055	-0.647810
61809		9.733809	0.119436	-0.439744	-0.021727	-0.001149	-0.000257	-0.696533	0.280762	0.305420	0.248003	-0.670490	-0.262957	-0.647913
61810		9.746792	0.120961	-0.436498	-0.026585	-0.007358	0.005150	-0.699463	0.276123	0.295166	0.247761	-0.670692	-0.262775	-0.647870
61811		9.756795	0.132699	-0.451760	-0.027291	-0.002067	0.009415	-0.698242	0.279785	0.297119	0.247546	-0.670756	-0.262538	-0.647982
61812		9.723306	0.120043	-0.412011	-0.026617	-0.003364	0.009445	-0.698975	0.282471	0.292480	0.247394	-0.670849	-0.262317	-0.648034
61813		9.713267	0.105129	-0.398394	-0.028285	-0.001920	0.006717	-0.701172	0.287109	0.302002	0.247290	-0.670876	-0.262113	-0.648128
61814		9.697633	0.095973	-0.437671	-0.021889	-0.002788	0.004527	-0.700439	0.277588	0.292725	0.247210	-0.670969	-0.261960	-0.648124
61815		9.738377	0.137139	-0.423701	-0.017261	0.000076	0.003769	-0.691650	0.278320	0.300293	0.247079	-0.670937	-0.261844	-0.648254
61816		9.735395	0.147578	-0.442272	-0.021977	-0.002293	0.006036	-0.702393	0.285889	0.299561	0.246956	-0.671038	-0.261708	-0.648251
61817		9.733275	0.126106	-0.449904	-0.024339	-0.001732	0.004081	-0.701660	0.269775	0.306152	0.246853	-0.671097	-0.261540	-0.648297
61818		9.735367	0.146268	-0.443342	-0.024211	-0.004465	0.000887	-0.697510	0.282471	0.298340	0.246385	-0.671242	-0.261353	-0.648400
61819		9.716897	0.154582	-0.435538	-0.027912	0.000445	0.001504	-0.694580	0.290283	0.304932	0.246240	-0.671283	-0.261193	-0.648478
61820		9.733176	0.124285	-0.472661	-0.033780	-0.000356	0.000665	-0.698486	0.281494	0.308105	0.246155	-0.671405	-0.261017	-0.648454
61821		9.740768	0.136069	-0.456289	-0.030710	-0.002676	0.003604	-0.696777	0.278564	0.292969	0.245908	-0.671570	-0.260805	-0.648463
61822		9.729914	0.155367	-0.431913	-0.032126	-0.002243	0.006812	-0.703613	0.282715	0.305176	0.245738	-0.671614	-0.260569	-0.648576
61823		9.725352	0.132264	-0.408923	-0.038838	-0.002528	0.006328	-0.701660	0.274902	0.305420	0.245453	-0.671768	-0.260254	-0.648651
61824		9.743740	0.121568	-0.439138	-0.035692	-0.000073	0.004228	-0.700195	0.276611	0.302734	0.245063	-0.671897	-0.259957	-0.648784
61825		9.749597	0.094658	-0.446008	-0.027701	0.000296	0.005482	-0.702148	0.272217	0.304688	0.244821	-0.671977	-0.259731	-0.648884
61826		9.726109	0.094579	-0.441587	-0.022133	-0.000487	0.004622	-0.702881	0.279541	0.305420	0.244514	-0.672058	-0.259535	-0.648993
61827		9.735784	0.124982	-0.439698	-0.012907	-0.003074	0.000416	-0.701660	0.274414	0.300781	0.244367	-0.672116	-0.259478	-0.649012
61828		9.714748	0.128632	-0.445063	-0.008972	-0.003729	0.002203	-0.697510	0.279785	0.305420	0.244221	-0.672137	-0.259440	-0.649060
61829		9.727394	0.147863	-0.425130	-0.000301	-0.001575	-0.001698	-0.701172	0.280518	0.305176	0.244223	-0.672145	-0.259526	-0.649017
61830		9.729383	0.166046	-0.461410	0.002836	0.000897	-0.003783	-0.697266	0.278320	0.306152	0.244227	-0.672107	-0.259634	-0.649012
61831		9.731942	0.171277	-0.448336	-0.003967	0.001113	-0.002748	-0.696045	0.276611	0.308105	0.244173	-0.672108	-0.259688	-0.649009
61832		9.727733	0.132797	-0.441103	-0.007233	0.000477	-0.004507	-0.697754	0.274414	0.300049	0.244046	-0.672139	-0.259729	-0.649008
61833		9.734767	0.158915	-0.473506	-0.000789	-0.001277	-0.004762	-0.695557	0.273682	0.300049	0.243970	-0.672092	-0.259833	-0.649044
61834		9.742412	0.173403	-0.435324	-0.005717	-0.001333	-0.004839	-0.704590	0.283447	0.304688	0.243860	-0.672065	-0.259906	-0.649084
61835		9.729859	0.157697	-0.412553	-0.010036	-0.000882	0.000236	-0.700439	0.285400	0.302246	0.243827	-0.672078	-0.259885	-0.649092
61836		9.726304	0.182456	-0.479782	-0.004537	0.001023	0.000104	-0.702393	0.276855	0.304932	0.243928	-0.672042	-0.259937	-0.649070
61837		9.713788	0.165966	-0.456514	-0.010794	0.000901	0.001723	-0.700928	0.278076	0.302246	0.243809	-0.672060	-0.259879	-0.649119
61838		9.735222	0.146027	-0.446581	-0.018498	-0.001853	0.000303	-0.714355	0.277832	0.295654	0.243657	-0.672098	-0.259795	-0.649171
61839		9.746112	0.127575	-0.449924	-0.017413	0.000118	-0.000281	-0.699707	0.272217	0.302734	0.243438	-0.672039	-0.259659	-0.649368
61840		9.740638	0.136508	-0.458921	-0.008258	0.001982	-0.001114	-0.694092	0.276611	0.305664	0.243287	-0.672022	-0.259644	-0.649448
61841		9.725178	0.133802	-0.432299	-0.004958	-0.001357	-0.003686	-0.696045	0.272705	0.304443	0.243243	-0.672041	-0.259732	-0.649410
61842		9.706277	0.159203	-0.429551	-0.007441	0.000164	-0.005082	-0.703613	0.277100	0.304688	0.243096	-0.672041	-0.259782	-0.649445
61843		9.737700	0.152413	-0.454734	-0.005456	0.005102	-0.003209	-0.699219	0.277100	0.306641	0.243017	-0.671985	-0.259801	-0.649525
61844		9.734815	0.165686	-0.450176	-0.001426	0.003071	0.001461	-0.695557	0.277832	0.304443	0.243030	-0.671971	-0.259840	-0.649518
61845		9.724360	0.168213	-0.441247	-0.004079	-0.000579	-0.000441	-0.697510	0.271973	0.303467	0.243049	-0.671976	-0.259911	-0.649478
61846		9.721369	0.180319	-0.459312	-0.003785	0.001881	-0.003139	-0.695068	0.270752	0.305664	0.242945	-0.671948	-0.259964	-0.649525
61847		9.723500	0.201857	-0.451163	-0.004729	0.003779	-0.005660	-0.698242	0.276367	0.308105	0.242808	-0.671922	-0.260027	-0.649577
61848		9.718417	0.194218	-0.475858	-0.007417	0.004103	-0.003230	-0.695312	0.279297	0.305420	0.242733	-0.671916	-0.260057	-0.649600
61849		9.739013	0.207081	-0.475829	-0.006505	0.002664	-0.001670	-0.701172	0.269775	0.307373	0.242766	-0.671902	-0.260121	-0.649576
61850		9.713044	0.205137	-0.461820	-0.009918	0.002552	0.000563	-0.697754	0.285645	0.306641	0.242567	-0.671926	-0.260061	-0.649650
61851		9.721123	0.200564	-0.438845	-0.012216	0.003954	0.003176	-0.701660	0.266357	0.308105	0.242682	-0.671932	-0.260052	-0.649604
61852		9.726560	0.188975	-0.472009	-0.017960	0.004835	0.000013	-0.697998	0.273438	0.302490	0.242358	-0.671968	-0.259907	-0.649746
61853		9.713145	0.203716	-0.480492	-0.020375	0.003676	-0.002114	-0.707764	0.274170	0.310059	0.242178	-0.671966	-0.259827	-0.649847
61854		9.723706	0.203191	-0.466272	-0.025086	0.003917	-0.001630	-0.697510	0.269531	0.308105	0.241866	-0.672018	-0.259652	-0.649979
61855		9.722124	0.168463	-0.445451	-0.027047	0.004667	0.000992	-0.703613	0.270508	0.305176	0.241580	-0.672084	-0.259469	-0.650091
61856		9.719257	0.181571	-0.440306	-0.019801	0.007268	0.000323	-0.706055	0.268799	0.305664	0.241350	-0.672070	-0.259326	-0.650247
61857		9.718894	0.197607	-0.444121	-0.016138	0.004585	0.001372	-0.699707	0.275391	0.309326	0.241108	-0.672072	-0.259196	-0.650387
61858		9.718960	0.197827	-0.442570	-0.024962	0.007346	-0.001303	-0.701904	0.270752	0.296875	0.240914	-0.672101	-0.259056	-0.650485
61859		9.729096	0.213298	-0.433240	-0.019848	0.003784	-0.002507	-0.703369	0.274902	0.298096	0.240733	-0.672042	-0.258985	-0.650641
61860		9.757675	0.220547	-0.432608	-0.009793	0.004230	-0.001755	-0.703857	0.269775	0.302246	0.240698	-0.671955	-0.258998	-0.650739
61861		9.749774	0.227839	-0.409728	-0.010371	0.006775	-0.000650	-0.709961	0.266846	0.306885	0.240565	-0.671891	-0.258954	-0.650871
61862		9.708250	0.218327	-0.433790	-0.013659	0.005699	0.001015	-0.700928	0.271729	0.302002	0.240296	-0.671883	-0.258819	-0.651033
61863		9.723860	0.222871	-0.436771	-0.008983	0.007671	0.002226	-0.700684	0.268799	0.310791	0.240268	-0.671816	-0.258791	-0.651124
61864		9.737364	0.206709	-0.447678	-0.009758	0.002864	0.003597	-0.700195	0.273926	0.303711	0.240128	-0.671868	-0.258718	-0.651150
61865		9.737430	0.207018	-0.425187	-0.011809	0.002351	0.005088	-0.692871	0.271973	0.305176	0.240116	-0.671874	-0.258668	-0.651168
61866		9.734971	0.204037	-0.394093	-0.009752	0.000214	0.005340	-0.701416	0.271973	0.303467	0.240131	-0.671915	-0.258661	-0.651123
61867		9.708570	0.213988	-0.428757	-0.002822	0.007402	0.006544	-0.706299	0.269531	0.302246	0.240184	-0.671856	-0.258644	-0.651172
61868		9.716228	0.221880	-0.453718	-0.004844	0.007328	0.004597	-0.700439	0.268799	0.308838	0.240134	-0.671785	-0.258595	-0.651282
61869		9.729741	0.205355	-0.464597	-0.013741	0.003534	0.004270	-0.701172	0.273438	0.308350	0.239988	-0.671831	-0.258492	-0.651330
61870		9.735252	0.195843	-0.454549	-0.013618	0.002581	0.003709	-0.699463	0.268555	0.304688	0.239908	-0.671871	-0.258420	-0.651347
61871		9.749152	0.165668	-0.417075	-0.012261	0.003938	0.005628	-0.706055	0.266113	0.303711	0.239822	-0.671881	-0.258337	-0.651401
61872		9.705142	0.153398	-0.410473	-0.005235	0.008893	0.002667	-0.696777	0.270752	0.304932	0.239707	-0.671808	-0.258282	-0.651541
61873		9.733381	0.173126	-0.457976	0.001441	0.005264	0.001312	-0.694092	0.272217	0.306641	0.239762	-0.671755	-0.258367	-0.651541
61874		9.737660	0.214643	-0.419794	0.003887	0.004207	0.001753	-0.699951	0.265869	0.303223	0.239869	-0.671721	-0.258485	-0.651490
61875		9.745722	0.207535	-0.418136	-0.003365	0.006824	0.010351	-0.701660	0.279053	0.297852	0.239871	-0.671690	-0.258417	-0.651548
61876		9.726025	0.160770	-0.405907	-0.004052	0.001531	0.010199	-0.694580	0.259766	0.311035	0.240079	-0.671645	-0.258440	-0.651509
61877		9.712265	0.190505	-0.398317	0.006482	0.003477	0.005245	-0.707520	0.273438	0.307617	0.239997	-0.671672	-0.258463	-0.651502
61878		9.734667	0.237240	-0.417192	0.011402	0.007101	-0.000793	-0.698486	0.271240	0.296631	0.240064	-0.671574	-0.258593	-0.651527
61879		9.723444	0.272224	-0.417520	0.005006	0.006623	-0.002254	-0.704102	0.271973	0.306396	0.240169	-0.671427	-0.258759	-0.651574
61880		9.739844	0.243968	-0.432111	-0.003052	0.004064	-0.000295	-0.706299	0.270020	0.300781	0.240119	-0.671399	-0.258791	-0.651609
61881		9.748221	0.222971	-0.404048	-0.011142	0.001062	0.005098	-0.698730	0.270508	0.308350	0.240027	-0.671395	-0.258721	-0.651674
61882		9.738922	0.175809	-0.379509	-0.006133	-0.000261	0.008075	-0.708252	0.279297	0.304199	0.240013	-0.671461	-0.258683	-0.651626
61883		9.741132	0.192613	-0.415111	0.002441	0.003333	0.001351	-0.709961	0.273438	0.301025	0.240120	-0.671397	-0.258776	-0.651616
61884		9.729542	0.242322	-0.443059	0.006699	0.005594	-0.002969	-0.701172	0.264648	0.308838	0.240149	-0.671271	-0.258904	-0.651684
61885		9.711123	0.249764	-0.455821	-0.004225	0.000830	-0.000859	-0.707520	0.268799	0.307129	0.239973	-0.671302	-0.258911	-0.651714
61886		9.714025	0.237575	-0.437700	-0.014731	-0.001579	0.005048	-0.701416	0.271973	0.303223	0.239781	-0.671378	-0.258790	-0.651755
61887		9.745910	0.213972	-0.436571	-0.013825	-0.000375	0.004863	-0.698975	0.273682	0.303955	0.239719	-0.671414	-0.258736	-0.651762
61888		9.722804	0.198263	-0.426601	-0.009719	0.003301	0.000145	-0.705566	0.263916	0.300293	0.239705	-0.671397	-0.258763	-0.651774
61889		9.735456	0.216933	-0.426636	-0.007027	0.003902	-0.006668	-0.703613	0.277832	0.298340	0.239489	-0.671324	-0.258798	-0.651914
61890		9.732556	0.230580	-0.444043	-0.010644	0.001724	-0.007678	-0.705078	0.270264	0.306641	0.239470	-0.671247	-0.258914	-0.651955
61891		9.745937	0.217628	-0.434144	-0.011161	0.000685	-0.002913	-0.705322	0.271973	0.302246	0.239310	-0.671263	-0.258912	-0.651998
61892		9.751356	0.209024	-0.425121	-0.016082	-0.002948	0.003117	-0.706787	0.274414	0.310547	0.239200	-0.671308	-0.258856	-0.652014
61893		9.728592	0.177904	-0.388668	-0.019496	0.001308	0.006243	-0.709961	0.270020	0.305176	0.239082	-0.671391	-0.258714	-0.652028
61894		9.713151	0.169946	-0.427008	-0.003322	0.003773	0.001610	-0.703369	0.280518	0.314697	0.239012	-0.671356	-0.258711	-0.652092
61895		9.714230	0.236160	-0.477839	0.002835	0.002672	-0.001107	-0.702148	0.273438	0.298828	0.239119	-0.671360	-0.258845	-0.651994
61896		9.728939	0.276270	-0.427010	-0.005405	0.001071	0.003877	-0.703125	0.273438	0.305176	0.239181	-0.671322	-0.258888	-0.651994
61897		9.724263	0.253220	-0.403909	-0.017589	-0.001154	0.003442	-0.699951	0.270996	0.300781	0.239094	-0.671377	-0.258826	-0.651995
61898		9.709469	0.215744	-0.389233	-0.014539	-0.002566	0.001994	-0.704834	0.270752	0.309570	0.239025	-0.671406	-0.258817	-0.651993
61899		9.716285	0.258403	-0.404798	-0.012153	-0.000041	-0.001218	-0.704590	0.270752	0.314697	0.238883	-0.671447	-0.258808	-0.652006
61900		9.744902	0.263995	-0.426313	-0.020179	0.003960	0.000859	-0.703613	0.266357	0.308838	0.238689	-0.671517	-0.258701	-0.652048
61901		9.753771	0.222498	-0.480407	-0.026812	0.000067	0.003982	-0.706543	0.273682	0.305908	0.238423	-0.671617	-0.258516	-0.652116
61902		9.749789	0.168402	-0.425474	-0.019722	-0.002943	0.003778	-0.707764	0.270996	0.307373	0.238303	-0.671690	-0.258426	-0.652120
61903		9.706997	0.210321	-0.401942	-0.014050	-0.001981	0.000654	-0.707275	0.270264	0.305176	0.238157	-0.671738	-0.258385	-0.652140
61904		9.711675	0.233984	-0.402813	-0.012572	0.003729	-0.001453	-0.709229	0.269043	0.310791	0.238029	-0.671715	-0.258359	-0.652220
61905		9.738204	0.218262	-0.453814	-0.013085	0.000944	0.000651	-0.710449	0.272461	0.301270	0.237858	-0.671756	-0.258300	-0.652264
61906		9.742894	0.241402	-0.454686	-0.015438	0.000596	0.003078	-0.708740	0.266357	0.313232	0.237757	-0.671755	-0.258221	-0.652334
61907		9.722272	0.229343	-0.432495	-0.009440	-0.002655	0.006094	-0.706055	0.263672	0.299805	0.237614	-0.671847	-0.258147	-0.652319
61908		9.695495	0.257976	-0.429699	-0.010405	0.001457	0.005281	-0.699219	0.262695	0.307129	0.237504	-0.671832	-0.258079	-0.652403
61909		9.748011	0.246000	-0.450650	-0.007022	0.000334	-0.000544	-0.707764	0.260010	0.306885	0.237384	-0.671844	-0.258115	-0.652419
61910		9.739644	0.269365	-0.433892	-0.007442	0.002378	-0.003427	-0.700195	0.268311	0.296631	0.237149	-0.671827	-0.258110	-0.652525
61911		9.715806	0.285730	-0.455935	-0.012177	0.002147	0.000469	-0.695068	0.270020	0.303955	0.237122	-0.671772	-0.258138	-0.652580
61912		9.727459	0.234593	-0.448586	-0.020467	0.001454	0.003521	-0.705811	0.273193	0.302490	0.237077	-0.671804	-0.258095	-0.652580
61913		9.733268	0.209137	-0.434122	-0.016546	-0.000929	0.002671	-0.704590	0.275146	0.302490	0.237021	-0.671822	-0.258059	-0.652596
61914		9.717376	0.219407	-0.456613	-0.004819	-0.000559	-0.001634	-0.708740	0.273926	0.306152	0.237067	-0.671786	-0.258172	-0.652572
61915		9.744796	0.275823	-0.450119	-0.009309	0.002625	-0.002330	-0.698975	0.267090	0.303711	0.237020	-0.671755	-0.258212	-0.652605
61916		9.727465	0.235930	-0.425584	-0.017537	0.003647	0.000902	-0.702393	0.264893	0.307373	0.236923	-0.671750	-0.258177	-0.652659
61917		9.725399	0.214496	-0.454684	-0.015849	-0.000032	0.001913	-0.697510	0.263672	0.301025	0.236771	-0.671795	-0.258124	-0.652689
61918		9.729688	0.254581	-0.438891	-0.008951	0.000584	0.003025	-0.703857	0.267090	0.306885	0.236730	-0.671786	-0.258143	-0.652706
61919		9.717087	0.236163	-0.437507	-0.012174	0.003865	0.003121	-0.704102	0.274658	0.308350	0.236658	-0.671784	-0.258106	-0.652749
61920		9.737781	0.246958	-0.459078	-0.010062	0.001726	0.000894	-0.700684	0.263184	0.307373	0.236683	-0.671782	-0.258159	-0.652720
61921		9.716461	0.267240	-0.468308	-0.008945	0.001512	-0.001366	-0.697510	0.265381	0.305908	0.236563	-0.671785	-0.258188	-0.652749
61922		9.734448	0.278320	-0.415772	-0.008827	0.002292	0.000729	-0.705811	0.271729	0.312988	0.236527	-0.671777	-0.258235	-0.652752
61923		9.737082	0.280316	-0.445715	-0.012593	0.003252	0.001967	-0.700439	0.265869	0.314209	0.236488	-0.671798	-0.258233	-0.652745
61924		9.711115	0.276680	-0.453428	-0.011357	0.003819	0.001803	-0.710205	0.263428	0.314941	0.236417	-0.671827	-0.258238	-0.652740
61925		9.729573	0.269584	-0.439106	-0.013460	0.002503	-0.001293	-0.702881	0.260010	0.312744	0.236191	-0.671865	-0.258184	-0.652804
61926		9.732085	0.274280	-0.425486	-0.013157	0.002330	-0.002239	-0.702393	0.271240	0.310303	0.235975	-0.671896	-0.258164	-0.652857
61927		9.735393	0.245592	-0.423251	-0.009124	0.005117	-0.000056	-0.704590	0.267090	0.313721	0.235986	-0.671873	-0.258219	-0.652856
61928		9.722079	0.259691	-0.431592	-0.002535	0.003250	0.003736	-0.708496	0.270264	0.308838	0.236001	-0.671877	-0.258270	-0.652826
61929		9.731880	0.289135	-0.427854	-0.006093	0.001852	0.007274	-0.704346	0.269531	0.310791	0.236033	-0.671886	-0.258258	-0.652810
61930		9.695774	0.270676	-0.422303	-0.008951	0.002296	0.005676	-0.697998	0.268799	0.310303	0.236047	-0.671905	-0.258258	-0.652785
61931		9.721993	0.271113	-0.456085	-0.007862	0.006938	0.003397	-0.705322	0.261475	0.305908	0.236107	-0.671877	-0.258307	-0.652773
61932		9.739769	0.295629	-0.451528	-0.009637	0.002324	0.002036	-0.707031	0.266846	0.303223	0.235976	-0.671874	-0.258272	-0.652837
61933		9.734777	0.287654	-0.454814	-0.010362	0.003609	0.004489	-0.710205	0.268799	0.311035	0.235927	-0.671852	-0.258226	-0.652896
61934		9.721717	0.286730	-0.414447	-0.007141	0.004711	0.005328	-0.703857	0.268555	0.308594	0.235914	-0.671844	-0.258203	-0.652918
61935		9.727334	0.274724	-0.447963	-0.008017	0.003030	0.006455	-0.705078	0.260498	0.315186	0.235943	-0.671847	-0.258203	-0.652904
61936		9.722380	0.265548	-0.451080	-0.009044	0.004483	0.009853	-0.702881	0.263916	0.304443	0.235879	-0.671890	-0.258122	-0.652915
61937		9.722404	0.264831	-0.428084	-0.007890	0.004744	0.004164	-0.699707	0.270996	0.313232	0.235845	-0.671860	-0.258108	-0.652964
61938		9.735075	0.282261	-0.405990	-0.005397	0.002749	0.006521	-0.699219	0.263916	0.311035	0.235957	-0.671877	-0.258176	-0.652879
61939		9.722563	0.262076	-0.426166	-0.002534	0.004963	0.006396	-0.706299	0.262207	0.314453	0.236012	-0.671865	-0.258223	-0.652853
61940		9.736006	0.245852	-0.415362	-0.001722	0.006644	0.007744	-0.710205	0.260742	0.311035	0.236016	-0.671854	-0.258218	-0.652864
61941		9.722555	0.273348	-0.450161	-0.002663	0.004963	0.011344	-0.704590	0.262451	0.311768	0.235989	-0.671858	-0.258140	-0.652900
61942		9.704510	0.263209	-0.435823	0.000023	0.002965	0.006277	-0.701660	0.261719	0.313965	0.235999	-0.671858	-0.258176	-0.652883
61943		9.748344	0.289757	-0.423060	0.000591	0.002154	0.007818	-0.702637	0.268799	0.303467	0.236034	-0.671879	-0.258223	-0.652831
61944		9.715031	0.258488	-0.399231	-0.001426	0.005529	0.011182	-0.705078	0.271484	0.305908	0.236174	-0.671838	-0.258224	-0.652822
61945		9.704518	0.272714	-0.437800	0.001558	0.006796	0.010492	-0.703369	0.268799	0.313721	0.236351	-0.671783	-0.258256	-0.652802
61946		9.719517	0.308345	-0.429430	0.000290	0.002321	0.008760	-0.696777	0.269531	0.308594	0.236465	-0.671796	-0.258322	-0.652720
61947		9.720110	0.274732	-0.397071	-0.008443	0.001479	0.009676	-0.701904	0.279053	0.308838	0.236566	-0.671827	-0.258340	-0.652645
61948		9.738755	0.263553	-0.426582	-0.003710	0.003447	0.008460	-0.708984	0.259766	0.303711	0.236785	-0.671811	-0.258425	-0.652548
61949		9.726137	0.243859	-0.424919	-0.000726	0.004714	0.007772	-0.702637	0.270752	0.307861	0.236724	-0.671778	-0.258365	-0.652629
61950		9.705005	0.262020	-0.433506	-0.001723	0.003975	0.009461	-0.704346	0.269287	0.299561	0.236858	-0.671761	-0.258404	-0.652581
61951		9.731396	0.246386	-0.419157	-0.003783	0.000782	0.012654	-0.700195	0.264893	0.305908	0.236949	-0.671760	-0.258359	-0.652567
61952		9.721075	0.245019	-0.431839	-0.004587	0.003478	0.012241	-0.707520	0.269775	0.304932	0.237019	-0.671766	-0.258327	-0.652548
61953		9.723939	0.229984	-0.413109	-0.001640	0.002554	0.012322	-0.708496	0.266846	0.301025	0.237117	-0.671761	-0.258302	-0.652528
61954		9.715203	0.282141	-0.405834	-0.001995	0.003667	0.011355	-0.711182	0.265625	0.306396	0.237156	-0.671735	-0.258239	-0.652565
61955		9.720490	0.285932	-0.422872	-0.001758	0.001780	0.010225	-0.709961	0.269287	0.310303	0.237153	-0.671740	-0.258191	-0.652581
61956		9.741513	0.279289	-0.417895	-0.012778	0.000587	0.011076	-0.706055	0.273193	0.307129	0.237118	-0.671798	-0.258092	-0.652572
61957		9.739503	0.241370	-0.398812	-0.017381	0.000339	0.010000	-0.704346	0.266846	0.306152	0.237108	-0.671855	-0.258000	-0.652554
61958		9.724074	0.233518	-0.415892	-0.010725	0.001112	0.009604	-0.703125	0.273438	0.295898	0.237086	-0.671887	-0.257933	-0.652555
61959		9.742234	0.240013	-0.407089	-0.006332	0.001054	0.010102	-0.706299	0.262939	0.303467	0.237184	-0.671867	-0.257909	-0.652550
61960		9.737455	0.214521	-0.405862	-0.010449	0.001416	0.007705	-0.708740	0.270264	0.307617	0.237081	-0.671887	-0.257813	-0.652605
61961		9.729701	0.217520	-0.427531	-0.009185	0.001507	0.008499	-0.699463	0.267334	0.303955	0.237074	-0.671908	-0.257766	-0.652604
61962		9.701079	0.224294	-0.452798	-0.003196	0.010123	0.010730	-0.702637	0.271729	0.304443	0.237193	-0.671841	-0.257752	-0.652636
61963		9.713852	0.241043	-0.430114	-0.009358	0.001686	0.004496	-0.708008	0.275635	0.307861	0.237213	-0.671837	-0.257774	-0.652624
61964		9.792261	0.263161	-0.493366	-0.044200	0.019185	-0.002220	-0.703613	0.272217	0.305420	0.236955	-0.671777	-0.257521	-0.652878
61965		9.672886	0.218309	-0.443460	-0.033847	0.021371	-0.011081	-0.708984	0.263184	0.304932	0.236713	-0.671637	-0.257422	-0.653150
61966		9.705975	0.148852	-0.509570	-0.002098	0.021654	-0.028645	-0.709473	0.266846	0.304688	0.236445	-0.671355	-0.257638	-0.653452
61967		9.703113	0.155766	-0.453455	-0.009060	0.008120	-0.041578	-0.710449	0.260254	0.310303	0.236026	-0.671156	-0.257975	-0.653675
61968		9.742633	0.257555	-0.386308	-0.041055	-0.007616	-0.038110	-0.702637	0.258301	0.304688	0.235248	-0.671216	-0.258049	-0.653864
61969		9.656447	0.352934	-0.273177	-0.063606	-0.006331	-0.031749	-0.707520	0.261475	0.308838	0.234378	-0.671335	-0.257905	-0.654111
61970		9.643194	0.315019	-0.185662	-0.040281	-0.080998	-0.043073	-0.697266	0.265625	0.308594	0.233394	-0.671964	-0.258275	-0.653671
61971		9.638689	0.285571	-0.394270	-0.081040	-0.070303	-0.089284	-0.702881	0.260010	0.317139	0.231858	-0.672461	-0.258757	-0.653516
61972		9.426855	0.475578	-0.456352	-0.032776	-0.079616	-0.170071	-0.698730	0.252930	0.322510	0.229964	-0.672654	-0.260306	-0.653371
61973		9.449483	0.669437	-0.617441	-0.001692	-0.143096	-0.309948	-0.707275	0.249756	0.317139	0.226973	-0.672828	-0.263486	-0.652963
61974		9.312274	1.365417	-0.805362	0.208885	-0.239332	-0.463471	-0.706299	0.246338	0.318359	0.224137	-0.672632	-0.269878	-0.651532
61975		8.644748	1.986664	-0.943384	0.282060	-0.282507	-0.651212	-0.716064	0.232910	0.321533	0.220279	-0.671890	-0.278579	-0.649950
61976		8.351417	2.531781	-0.689225	0.023501	-0.255623	-0.783438	-0.719238	0.220215	0.316895	0.213142	-0.671116	-0.286118	-0.649854
61977		8.124838	3.585091	-0.787874	-0.354645	-0.257705	-0.813164	-0.713379	0.205322	0.334473	0.202554	-0.671152	-0.290777	-0.651134
61978		9.646495	2.817283	-0.763938	-0.808270	-0.210280	-0.785587	-0.722168	0.191406	0.341064	0.188635	-0.671955	-0.291481	-0.654165
61979		9.250876	1.357327	-0.705762	-0.581785	-0.173405	-0.831090	-0.726807	0.163574	0.329102	0.176399	-0.671613	-0.294292	-0.656667
61980		7.449777	1.359993	0.270400	-0.443500	-0.233136	-0.999938	-0.728760	0.134521	0.342529	0.163507	-0.670691	-0.299535	-0.658572
61981		6.832559	1.844078	-0.211637	-0.532268	-0.192258	-1.154799	-0.735596	0.110840	0.356201	0.148635	-0.668912	-0.305177	-0.661311
61982		7.793936	2.359602	-0.253232	-0.436749	-0.198339	-1.077747	-0.735107	0.088379	0.356201	0.135166	-0.667152	-0.310942	-0.663290
61983		7.652242	3.045070	-0.923762	-0.761683	-0.163760	-0.986353	-0.739014	0.068359	0.358887	0.119860	-0.665842	-0.313100	-0.666526
61984		7.674420	1.652410	-0.594159	-0.507553	0.085193	-1.112136	-0.724609	0.041748	0.361328	0.106610	-0.661411	-0.317971	-0.670868
61985		9.376030	2.937154	-2.036461	-0.060748	0.304236	-1.165632	-0.739502	0.015381	0.356934	0.097539	-0.654181	-0.326810	-0.675077
61986		11.622743	3.863425	-2.097025	0.373900	0.018794	-0.781968	-0.732422	0.008789	0.345947	0.093945	-0.650304	-0.336344	-0.674650
61987		13.351999	4.533960	-0.737617	0.097202	-0.172193	-0.460120	-0.736328	0.003174	0.354492	0.090076	-0.649632	-0.341119	-0.673426
61988		18.177383	4.999138	-2.467604	-0.110253	-0.133311	-0.173289	-0.733398	0.000977	0.344971	0.087121	-0.650086	-0.341784	-0.673039
61989		23.878136	4.454117	-1.882803	0.031826	-0.115209	0.655709	-0.742188	0.018311	0.353271	0.092352	-0.653735	-0.336745	-0.671345
61990		23.330708	4.005735	-1.955261	0.045010	0.004135	1.172690	-0.741211	0.032471	0.344482	0.102559	-0.658467	-0.327400	-0.669860
61991		20.958025	4.000912	-2.722156	0.436102	0.320479	1.095922	-0.745361	0.055420	0.350342	0.116438	-0.659598	-0.321251	-0.669455
61992		15.680920	2.849861	-1.464594	0.529179	0.619715	0.944063	-0.750488	0.080566	0.332031	0.131020	-0.657337	-0.316764	-0.671120
61993		7.202720	0.064339	-1.295465	0.845950	0.610720	0.873473	-0.759033	0.102051	0.316162	0.147555	-0.654160	-0.315378	-0.671445
61994		0.078007	0.189435	-0.910551	1.114212	0.504340	0.889213	-0.773682	0.126221	0.308594	0.165883	-0.651233	-0.316119	-0.669663
61995		-1.800947	1.266717	-0.524522	0.894784	0.297390	0.757532	-0.769287	0.141846	0.304199	0.180418	-0.649799	-0.316467	-0.667128
61996		-0.327647	1.945995	0.054724	0.101492	0.134810	0.511279	-0.781006	0.158936	0.302734	0.185890	-0.650436	-0.312768	-0.666749
61997		1.758915	1.256528	0.591055	-0.468631	-0.040320	0.196430	-0.782471	0.149658	0.297119	0.183519	-0.652591	-0.307410	-0.667791
61998		0.415320	0.423853	0.590196	-0.032537	-0.042560	-0.038703	-0.778076	0.156494	0.291748	0.182770	-0.652840	-0.307677	-0.667630
61999		-0.398986	0.038915	1.195199	0.261714	0.016163	-0.169217	-0.781982	0.154053	0.303467	0.183565	-0.651418	-0.311338	-0.667103
62000		-0.727059	0.868717	0.293751	0.004934	-0.146110	-0.187015	-0.767334	0.162598	0.300781	0.181484	-0.651862	-0.313366	-0.666289
62001		-0.734048	1.642023	-0.630120	-0.347346	-0.268130	-0.240561	-0.769775	0.136230	0.308594	0.175605	-0.653894	-0.313169	-0.665966
62002		0.637963	0.573168	1.069840	-0.347660	-0.361653	-0.401417	-0.757324	0.136719	0.317871	0.168011	-0.656039	-0.314484	-0.665195
62003		3.843307	-0.066262	2.539603	-0.581782	-0.046772	-0.456892	-0.750977	0.123779	0.320312	0.159262	-0.655789	-0.313621	-0.667996
62004		12.791711	7.316953	-4.933101	-1.014465	-0.279353	-0.686363	-0.750000	0.106934	0.332520	0.144107	-0.657334	-0.311422	-0.670940
62005		32.978604	5.789199	-0.871583	-1.105723	-0.323608	-0.994895	-0.731445	0.076660	0.330078	0.125417	-0.658004	-0.311025	-0.674214
62006		35.843188	2.675066	-2.987653	-0.370438	0.008311	-0.646995	-0.743408	0.056152	0.334473	0.116961	-0.655932	-0.313349	-0.676673
62007		35.202964	5.094108	-2.289520	1.460013	0.260261	0.339618	-0.751221	0.075928	0.332031	0.132803	-0.652779	-0.322590	-0.672442
62008		26.863579	7.766793	-2.599863	1.083289	0.675744	1.034559	-0.749512	0.105957	0.314209	0.153033	-0.649311	-0.322163	-0.671705
62009		13.780639	3.163394	-1.299709	0.536021	0.546630	1.031205	-0.761230	0.121826	0.306885	0.168227	-0.647740	-0.317312	-0.671897
62010		3.037349	-1.814979	-1.193520	0.958056	0.400630	0.601821	-0.776123	0.136475	0.293945	0.182604	-0.644650	-0.319713	-0.669974
62011		-2.842897	1.683138	-0.979145	1.156040	0.133169	0.250758	-0.785889	0.154053	0.289551	0.194508	-0.641808	-0.327104	-0.665772
62012		-1.676407	5.065277	0.501651	0.111437	0.033503	-0.195960	-0.791748	0.151855	0.286377	0.193896	-0.640429	-0.329610	-0.666042
62013		1.364877	2.374448	0.749682	-0.283348	-0.154754	-0.482492	-0.802734	0.137207	0.288330	0.186972	-0.640367	-0.331599	-0.667093
62014		0.472137	0.349045	-0.128854	-0.077825	-0.255921	-0.258846	-0.798096	0.128662	0.291016	0.183136	-0.641568	-0.333749	-0.665930
62015		-0.974454	0.794839	0.472760	0.035583	-0.152153	-0.162547	-0.804443	0.129639	0.301025	0.181444	-0.642036	-0.335831	-0.664895
62016		-0.756368	1.276223	0.244837	0.091073	-0.218404	-0.190728	-0.788086	0.126953	0.304199	0.179681	-0.642802	-0.338749	-0.663151
62017		-0.382403	1.293737	-0.754516	-0.422523	-0.374146	-0.208856	-0.780029	0.115479	0.311523	0.172977	-0.645911	-0.337898	-0.662347
62018		0.338153	0.478187	0.345585	-0.646407	-0.389940	-0.228209	-0.782471	0.106689	0.322021	0.164227	-0.649500	-0.335368	-0.662350
62019		0.932110	-1.305246	1.570777	-0.635011	-0.351724	-0.325706	-0.770264	0.096924	0.331787	0.154906	-0.652277	-0.333612	-0.662753
62020		1.894249	-2.890376	2.020666	-0.304161	-0.036824	-0.531489	-0.756836	0.083252	0.334717	0.147874	-0.650897	-0.335625	-0.664697
62021		4.744832	0.949898	-1.341960	-0.264355	0.631532	-0.698316	-0.760498	0.078613	0.323242	0.142564	-0.643127	-0.338034	-0.672158
62022		17.974222	5.562626	-1.562241	-0.127549	0.263525	-0.752712	-0.751465	0.061523	0.312988	0.136328	-0.637892	-0.342647	-0.676093
62023		35.069003	14.283938	-4.457904	-0.378273	-0.165510	-0.475258	-0.753418	0.051025	0.315430	0.128590	-0.637845	-0.343634	-0.677152
62024		36.415566	7.076028	-4.053720	-0.399649	-0.282891	0.006087	-0.747070	0.049805	0.322266	0.124253	-0.640856	-0.340796	-0.676553
62025		35.825990	9.730929	-1.051358	0.917021	-0.044687	0.466012	-0.748291	0.062500	0.325684	0.135358	-0.641704	-0.345002	-0.671467
62026		28.341875	6.567158	-1.624013	0.790825	0.432927	1.284918	-0.747314	0.091553	0.321045	0.154343	-0.642114	-0.340675	-0.669185
62027		14.787321	4.469105	-1.572870	0.680923	0.524458	1.584906	-0.760986	0.120850	0.301270	0.175283	-0.642964	-0.332706	-0.667218
62028		3.777664	0.087815	-1.777196	0.721966	0.335119	1.216594	-0.776123	0.154785	0.297607	0.192586	-0.643515	-0.328257	-0.664113
62029		-2.496311	0.742261	-0.606654	0.743321	0.027996	0.608717	-0.771729	0.169678	0.299316	0.203713	-0.643918	-0.329539	-0.659753
62030		-2.253296	2.285444	2.999965	-0.109919	-0.092763	0.008075	-0.784912	0.168945	0.299316	0.202521	-0.644963	-0.328941	-0.659398
62031		1.663446	2.011208	1.048066	-0.722498	-0.151760	-0.436993	-0.794189	0.149658	0.309570	0.192449	-0.646180	-0.326977	-0.662195
62032		1.008856	-1.658906	-0.924676	-0.315029	-0.050047	-0.214188	-0.806396	0.147705	0.308350	0.187925	-0.646436	-0.326339	-0.663557
62033		-0.499405	0.084418	-0.984010	0.380095	0.105252	0.231831	-0.798584	0.156494	0.303467	0.193351	-0.645574	-0.327489	-0.662270
62034		-0.682884	2.722444	-0.139755	0.228190	0.053404	0.405537	-0.795410	0.169434	0.307617	0.198773	-0.646197	-0.326100	-0.660740
62035		-1.256865	1.671751	-0.524637	-0.336246	-0.185220	0.349841	-0.802979	0.165527	0.306885	0.198199	-0.649940	-0.321094	-0.659692
62036		-0.147883	0.098923	-0.316459	-0.699336	-0.126508	0.108999	-0.790527	0.160400	0.318115	0.192915	-0.653090	-0.314897	-0.661133
62037		0.473452	-1.546236	0.173003	-0.314228	0.144405	-0.208258	-0.783203	0.155029	0.309082	0.189211	-0.651790	-0.313804	-0.664000
62038		-0.455645	-2.144902	1.479337	0.738252	0.105354	-0.540159	-0.775635	0.153320	0.303223	0.191156	-0.646972	-0.324208	-0.663156
62039		2.842339	2.609499	0.658657	0.689490	-0.073973	-0.956799	-0.774414	0.128906	0.304199	0.188487	-0.641956	-0.337931	-0.661943
62040		12.645161	7.338420	-1.552723	-0.962306	-0.327727	-1.393452	-0.755371	0.110596	0.321533	0.167817	-0.640862	-0.341978	-0.666472
62041		20.372436	3.198640	-0.635644	-1.200049	0.081687	-1.296474	-0.755127	0.075928	0.314209	0.147737	-0.636955	-0.342281	-0.674764
62042		21.166767	0.542512	-3.297848	-0.297631	-0.076692	-0.816360	-0.755859	0.049316	0.314697	0.138162	-0.634580	-0.346539	-0.676854
62043		26.359678	8.917752	-2.179147	0.145815	-0.494364	-0.549648	-0.752197	0.039551	0.332764	0.132527	-0.636066	-0.353100	-0.673184
62044		21.799297	9.791594	1.297435	-0.933399	-0.558063	-0.485226	-0.743896	0.030762	0.340332	0.118564	-0.640055	-0.350144	-0.673551
62045		15.727696	-5.099083	-2.426678	-0.168432	0.166027	0.303173	-0.750000	0.024902	0.337646	0.120512	-0.640187	-0.346197	-0.675119
62046		13.434897	6.873669	-1.543650	1.303179	0.171801	0.927647	-0.750732	0.057129	0.330322	0.139482	-0.640636	-0.349536	-0.669295
62047		7.950501	5.357991	0.410710	-0.253859	-0.131268	1.066781	-0.745605	0.072021	0.342773	0.145786	-0.646751	-0.339166	-0.667403
62048		7.223473	0.264843	-0.616158	-0.548726	-0.423296	1.134860	-0.733887	0.092773	0.354004	0.149016	-0.655970	-0.326283	-0.664106
62049		7.717584	0.362824	0.486100	-0.263693	-0.037320	0.868756	-0.734375	0.100586	0.352783	0.153923	-0.660241	-0.317165	-0.663171
62050		6.743549	-0.671109	-0.931289	0.341218	0.105274	0.622661	-0.726807	0.125000	0.351318	0.162311	-0.661130	-0.314746	-0.661436
62051		6.916778	1.061455	-1.247287	1.162433	0.089717	0.561191	-0.733398	0.140869	0.346436	0.176895	-0.660127	-0.319600	-0.656351
62052		7.206145	4.355016	-1.095146	0.461634	0.089677	0.514529	-0.723145	0.148682	0.350586	0.185273	-0.660379	-0.319022	-0.654063
62053		9.837930	4.119461	-2.135187	-0.149681	-0.022346	0.419325	-0.730469	0.158936	0.346924	0.187378	-0.662545	-0.314499	-0.653464
62054		9.555620	2.115073	-1.739659	-0.211590	0.012763	0.399622	-0.724121	0.161133	0.354492	0.188942	-0.664469	-0.309546	-0.653424
62055		9.975402	2.726785	-1.576041	0.273963	0.176273	0.301329	-0.724365	0.171875	0.348145	0.194368	-0.663509	-0.308994	-0.653069
62056		9.393149	4.061447	-1.524202	0.307020	0.104632	0.332698	-0.725342	0.176270	0.346436	0.200043	-0.663153	-0.308621	-0.651893
62057		8.978591	3.092844	-1.629806	-0.016691	-0.025037	0.354743	-0.723633	0.189453	0.349609	0.202712	-0.664728	-0.305760	-0.650811
62058		9.280517	2.228408	-1.443491	-0.091806	0.008385	0.377509	-0.727295	0.189941	0.343750	0.205071	-0.666293	-0.302023	-0.650217
62059		9.482285	1.499741	-0.721073	-0.204263	0.062278	0.393383	-0.720459	0.196777	0.346680	0.206818	-0.667751	-0.297096	-0.650437
62060		9.360460	1.769275	-0.907668	-0.229330	0.045672	0.363460	-0.716064	0.202881	0.351318	0.208048	-0.669278	-0.292256	-0.650668
62061		9.305143	1.412734	-1.444467	-0.363919	-0.008787	0.362814	-0.718018	0.207764	0.350098	0.207943	-0.671573	-0.286465	-0.650912
62062		9.720502	0.829211	-1.676204	-0.402964	-0.009464	0.393578	-0.705322	0.211426	0.349365	0.207749	-0.674057	-0.280090	-0.651181
62063		9.638160	-0.130149	-0.909382	-0.375877	0.053840	0.329627	-0.710205	0.216553	0.349609	0.207477	-0.675703	-0.274304	-0.652024
62064		9.942511	-0.684181	-0.147500	0.008868	0.029539	0.185573	-0.706543	0.219971	0.350098	0.209191	-0.676043	-0.272921	-0.651705
62065		9.705046	0.594272	-0.195478	0.463148	0.131348	0.147529	-0.710205	0.231689	0.343750	0.214774	-0.674222	-0.275279	-0.650783
62066		9.509641	1.269275	-0.147679	0.418496	0.136203	0.199697	-0.714111	0.242920	0.333740	0.220413	-0.672635	-0.276806	-0.649891
62067		9.582274	1.481090	-0.101201	0.129622	0.141414	0.270233	-0.710938	0.237061	0.327148	0.224207	-0.672029	-0.275369	-0.649831
62068		9.489928	1.119909	-0.444831	-0.023038	0.134773	0.297751	-0.712402	0.251221	0.327148	0.226909	-0.671989	-0.272469	-0.650157
62069		9.412015	0.297709	-0.486723	0.066507	0.089790	0.280859	-0.711914	0.248535	0.324219	0.230076	-0.671993	-0.270571	-0.649833
62070		9.351075	0.277821	-0.472110	0.166990	0.051913	0.261964	-0.710205	0.266846	0.311768	0.233795	-0.671944	-0.269744	-0.648899
62071		9.733068	0.721895	-0.193256	0.167360	0.046716	0.214213	-0.704102	0.265137	0.330566	0.237114	-0.671764	-0.269335	-0.648050
62072		9.743251	0.846244	0.120163	0.002932	0.082995	0.155834	-0.710938	0.263184	0.311279	0.238706	-0.671576	-0.267987	-0.648219
62073		9.700963	0.495055	-0.084078	-0.137992	0.066417	0.120741	-0.702881	0.265625	0.320068	0.238755	-0.671825	-0.265815	-0.648837
62074		9.467006	0.022056	-0.408703	-0.095844	0.036515	0.102329	-0.706055	0.272949	0.314453	0.238920	-0.672125	-0.264240	-0.649108
62075		9.692132	-0.031863	-0.540090	-0.010016	0.021575	0.102452	-0.704834	0.272705	0.323975	0.239757	-0.672289	-0.263403	-0.648971
62076		9.658489	0.259968	-0.466611	-0.037956	-0.011599	0.105043	-0.702637	0.270996	0.321045	0.240274	-0.672813	-0.262421	-0.648634
62077		9.706573	0.503471	-0.271114	-0.073634	-0.002990	0.081840	-0.697021	0.279297	0.311768	0.240326	-0.673299	-0.261312	-0.648558
62078		9.771067	0.250786	-0.130974	-0.119538	0.008820	0.064023	-0.692627	0.278809	0.318115	0.239892	-0.673765	-0.259951	-0.648782
62079		9.881414	-0.178115	-0.477653	-0.202150	-0.011654	0.054614	-0.694580	0.276123	0.325195	0.238622	-0.674611	-0.258062	-0.649125
62080		9.525938	-0.244351	-0.717535	-0.144106	-0.018832	0.067049	-0.703369	0.276611	0.321777	0.237914	-0.675380	-0.256557	-0.649182
62081		9.593879	-0.148935	-0.586997	-0.052565	-0.036678	0.064485	-0.701172	0.278809	0.319824	0.237891	-0.676014	-0.255856	-0.648807
62082		9.959176	-0.097792	-0.354947	-0.068941	-0.055656	0.060571	-0.698730	0.280762	0.322266	0.237638	-0.676836	-0.255112	-0.648336
62083		9.803641	0.005541	-0.430458	-0.079969	-0.009660	0.060964	-0.696533	0.282471	0.323975	0.237443	-0.677318	-0.254140	-0.648285
62084		9.796250	-0.144328	-0.444181	-0.024251	-0.011597	0.042007	-0.702148	0.289062	0.328857	0.237564	-0.677590	-0.253787	-0.648095
62085		9.772120	-0.167857	-0.547128	0.000859	-0.010563	0.018793	-0.696289	0.278320	0.327393	0.237718	-0.677704	-0.253837	-0.647900
62086		9.629100	0.044767	-0.608130	0.040278	-0.001391	-0.011078	-0.688721	0.275879	0.330078	0.237978	-0.677535	-0.254415	-0.647754
62087		9.667163	-0.000255	-0.651266	0.031014	-0.035314	-0.007548	-0.691650	0.283447	0.322754	0.238084	-0.677680	-0.254992	-0.647337
62088		9.798790	0.076413	-0.524081	-0.003015	-0.019358	0.009538	-0.693115	0.279053	0.317871	0.238095	-0.677848	-0.255106	-0.647111
62089		9.734700	0.166028	-0.555906	-0.036898	-0.017021	0.018766	-0.693848	0.278564	0.327393	0.237889	-0.678130	-0.254848	-0.646994
62090		9.751171	0.071352	-0.569903	-0.036318	-0.037547	0.021573	-0.690186	0.270996	0.327881	0.237648	-0.678585	-0.254637	-0.646688
62091		9.774328	0.080637	-0.608744	-0.033622	-0.028215	0.024189	-0.697266	0.265869	0.322998	0.237471	-0.678968	-0.254385	-0.646451
62092		9.695165	0.099131	-0.781504	-0.002277	-0.028623	0.030349	-0.692627	0.282715	0.325195	0.237592	-0.679281	-0.254320	-0.646103
62093		9.708258	0.108856	-0.726158	-0.006386	-0.052684	0.039550	-0.687012	0.276367	0.332275	0.237710	-0.679824	-0.254251	-0.645515
62094		9.749602	0.058720	-0.589009	-0.026326	-0.042727	0.038530	-0.690918	0.274658	0.332275	0.237676	-0.680345	-0.253993	-0.645080
62095		9.769848	0.061232	-0.660581	-0.006224	-0.004669	0.028615	-0.695312	0.278809	0.329590	0.237846	-0.680468	-0.253860	-0.644940
62096		9.771625	0.009861	-0.636098	0.021259	-0.013775	0.020568	-0.687744	0.287354	0.321533	0.238158	-0.680556	-0.254048	-0.644658
62097		9.681335	-0.031271	-0.691842	-0.014101	-0.023938	0.020234	-0.694092	0.274414	0.334717	0.238154	-0.680825	-0.254003	-0.644393
62098		9.673247	-0.045128	-0.669221	0.000207	-0.007283	0.012537	-0.688721	0.278564	0.328857	0.238233	-0.680901	-0.254059	-0.644261
62099		9.746391	-0.017628	-0.705365	0.029023	-0.029589	0.011686	-0.692627	0.276367	0.322021	0.238492	-0.681065	-0.254432	-0.643845
62100		9.734159	0.012165	-0.659337	0.052245	-0.020427	0.004668	-0.685547	0.289795	0.335449	0.238909	-0.681064	-0.255014	-0.643462
62101		9.757872	0.072553	-0.751313	0.038466	-0.007675	0.005402	-0.691162	0.283203	0.333984	0.239295	-0.680999	-0.255478	-0.643202
62102		9.683834	0.006726	-0.691303	0.014620	-0.016105	0.015812	-0.690430	0.287598	0.330811	0.239512	-0.681110	-0.255666	-0.642929
62103		9.719839	-0.078226	-0.770921	-0.013403	-0.034735	0.023176	-0.687988	0.276611	0.336914	0.239499	-0.681475	-0.255631	-0.642561
62104		9.695131	-0.033971	-0.712215	0.030332	-0.017848	0.008809	-0.684082	0.279541	0.337402	0.239774	-0.681534	-0.255992	-0.642252
62105		9.733220	0.062310	-0.763833	0.037300	0.005279	-0.013170	-0.687988	0.284180	0.329346	0.240017	-0.681315	-0.256538	-0.642176
62106		9.761954	0.054753	-0.738340	0.014727	-0.009289	-0.016897	-0.695068	0.281982	0.330811	0.239995	-0.681264	-0.256986	-0.642059
62107		9.768219	0.018355	-0.775504	0.000063	-0.013654	-0.007878	-0.685059	0.269287	0.337646	0.239894	-0.681323	-0.257239	-0.641933
62108		9.694572	0.019839	-0.800106	0.000941	-0.016907	0.006234	-0.685059	0.279053	0.334961	0.239884	-0.681459	-0.257364	-0.641742
62109		9.683748	-0.011424	-0.763079	-0.014916	-0.007368	0.010116	-0.694092	0.277588	0.333984	0.239826	-0.681572	-0.257330	-0.641657
62110		9.710171	0.100547	-0.735842	-0.003493	-0.001385	0.001032	-0.697510	0.289795	0.334717	0.239798	-0.681575	-0.257432	-0.641624
62111		9.736616	0.151093	-0.786902	0.006446	-0.013303	-0.006412	-0.678467	0.282471	0.336182	0.239787	-0.681612	-0.257748	-0.641462
62112		9.701912	0.125045	-0.787023	-0.027518	0.004035	-0.011141	-0.689209	0.283936	0.336426	0.239508	-0.681600	-0.257780	-0.641566
62113		9.738110	0.110559	-0.782772	-0.026878	-0.003705	-0.005950	-0.694336	0.278564	0.341797	0.239244	-0.681664	-0.257790	-0.641592
62114		9.720304	0.105137	-0.727676	-0.028846	-0.013785	-0.001606	-0.685791	0.278809	0.332031	0.238945	-0.681834	-0.257755	-0.641537
62115		9.721131	0.059703	-0.768707	-0.041906	-0.006460	0.001188	-0.684326	0.274414	0.336426	0.238590	-0.681990	-0.257582	-0.641574
62116		9.710723	0.094566	-0.814047	-0.053123	-0.005263	0.004693	-0.692871	0.283447	0.338379	0.238161	-0.682184	-0.257272	-0.641651
62117		9.696436	0.106912	-0.746857	-0.044165	0.017574	0.007287	-0.689209	0.279297	0.341553	0.237924	-0.682170	-0.256969	-0.641874
62118		9.699013	0.093183	-0.747030	-0.036201	0.015245	0.005364	-0.688477	0.280273	0.332764	0.237726	-0.682149	-0.256745	-0.642060
62119		9.747795	0.076217	-0.781825	-0.028941	-0.010303	0.002139	-0.691162	0.274414	0.335449	0.237483	-0.682297	-0.256686	-0.642016
62120		9.720360	0.088791	-0.700683	-0.014705	-0.007520	-0.003685	-0.692139	0.271729	0.335938	0.237300	-0.682367	-0.256757	-0.641981
62121		9.688697	0.129678	-0.791280	-0.018863	0.015757	-0.004934	-0.693848	0.272949	0.331787	0.237137	-0.682261	-0.256725	-0.642167
62122		9.703685	0.054519	-0.726797	-0.041514	0.007302	-0.004138	-0.687988	0.274902	0.341309	0.236762	-0.682289	-0.256535	-0.642352
62123		9.744169	0.029217	-0.778767	-0.030452	-0.001064	-0.004565	-0.686768	0.275146	0.339844	0.236473	-0.682351	-0.256481	-0.642413
62124		9.709511	0.048668	-0.673005	-0.003016	0.005698	-0.005447	-0.682861	0.276855	0.333252	0.236437	-0.682274	-0.256640	-0.642445
62125		9.701044	0.071924	-0.762795	0.001457	0.010533	-0.007325	-0.696777	0.275391	0.338379	0.236451	-0.682134	-0.256851	-0.642504
62126		9.716887	0.062030	-0.738985	0.006714	0.006827	-0.009512	-0.693848	0.271484	0.345703	0.236455	-0.682006	-0.257105	-0.642537
62127		9.734595	0.055461	-0.787303	-0.006550	0.028240	-0.010073	-0.694336	0.270996	0.337158	0.236403	-0.681749	-0.257182	-0.642798
62128		9.703513	0.063048	-0.593980	-0.005573	0.014031	-0.005572	-0.694092	0.269287	0.347412	0.236346	-0.681615	-0.257270	-0.642926
62129		9.739134	0.095273	-0.732351	-0.002761	0.002823	-0.004739	-0.687988	0.265869	0.333008	0.236281	-0.681571	-0.257397	-0.642945
62130		9.689851	0.096529	-0.712738	-0.003135	0.009778	-0.005012	-0.693115	0.283203	0.333984	0.236227	-0.681466	-0.257503	-0.643034
62131		9.707797	0.073383	-0.713469	-0.001479	0.020513	-0.009318	-0.691650	0.267822	0.338379	0.236252	-0.681243	-0.257701	-0.643183
62132		9.701656	0.115544	-0.653351	0.015409	0.008758	-0.017161	-0.699951	0.273682	0.338867	0.236259	-0.681054	-0.258064	-0.643234
62133		9.714262	0.135924	-0.737727	0.019921	0.018385	-0.016513	-0.692383	0.273926	0.327637	0.236353	-0.680772	-0.258444	-0.643345
62134		9.766515	0.110377	-0.706577	0.003788	0.025323	-0.012512	-0.694580	0.273193	0.333496	0.236378	-0.680488	-0.258661	-0.643550
62135		9.710186	0.103335	-0.611952	0.007535	0.029152	-0.011224	-0.687500	0.272705	0.326904	0.236454	-0.680170	-0.258877	-0.643771
62136		9.745683	0.103965	-0.739588	0.002322	0.001552	-0.009152	-0.686523	0.276123	0.330322	0.236424	-0.680092	-0.259129	-0.643763
62137		9.663211	0.110113	-0.641431	0.022333	0.009692	-0.004138	-0.687744	0.270020	0.337158	0.236651	-0.679904	-0.259495	-0.643730
62138		9.736684	0.142397	-0.690729	0.016733	0.024191	-0.010684	-0.692871	0.268799	0.333252	0.236795	-0.679606	-0.259791	-0.643873
62139		9.732698	0.171015	-0.633665	0.011818	0.016137	-0.010753	-0.694824	0.276611	0.329346	0.236853	-0.679386	-0.260056	-0.643977
62140		9.706520	0.171153	-0.660241	0.021398	0.015409	-0.010122	-0.691162	0.275146	0.329346	0.237032	-0.679135	-0.260438	-0.644022
62141		9.743614	0.189052	-0.640825	0.024921	0.005139	-0.009981	-0.700195	0.272217	0.334717	0.237208	-0.678958	-0.260876	-0.643966
62142		9.720034	0.192705	-0.657190	0.004778	0.003158	-0.010387	-0.694824	0.277832	0.332520	0.237172	-0.678863	-0.261125	-0.643978
62143		9.665587	0.204239	-0.645386	-0.003728	0.019619	-0.008519	-0.695068	0.277832	0.335449	0.237175	-0.678658	-0.261288	-0.644127
62144		9.707114	0.195887	-0.696716	-0.011814	0.026547	-0.009603	-0.702148	0.273926	0.336670	0.237126	-0.678419	-0.261375	-0.644361
62145		9.707730	0.183769	-0.618918	-0.004650	0.037048	-0.018132	-0.689209	0.264893	0.331787	0.237071	-0.678052	-0.261526	-0.644707
62146		9.721172	0.190130	-0.607454	0.009501	0.022176	-0.026415	-0.688232	0.262695	0.336670	0.236998	-0.677742	-0.261879	-0.644916
62147		9.712302	0.280880	-0.574731	0.041626	0.003754	-0.027985	-0.694580	0.271973	0.331543	0.237121	-0.677486	-0.262552	-0.644867
62148		9.695878	0.264848	-0.651425	-0.015768	0.010203	-0.019777	-0.701416	0.273926	0.335693	0.236883	-0.677360	-0.262719	-0.645019
62149		9.720913	0.189078	-0.618574	-0.028557	0.001319	-0.007433	-0.706787	0.273682	0.332520	0.236608	-0.677384	-0.262706	-0.645099
62150		9.767568	0.155086	-0.574161	-0.019036	0.002630	-0.000153	-0.696045	0.272949	0.332275	0.236464	-0.677392	-0.262694	-0.645149
62151		9.738995	0.166277	-0.578532	-0.006115	-0.003251	-0.000791	-0.696289	0.270264	0.331299	0.236427	-0.677406	-0.262829	-0.645093
62152		9.694692	0.205270	-0.675775	-0.011270	-0.005228	-0.004181	-0.699219	0.268799	0.333008	0.236295	-0.677443	-0.262939	-0.645057
62153		9.668572	0.205321	-0.642437	-0.007696	-0.009553	-0.008287	-0.697266	0.264893	0.333984	0.236133	-0.677494	-0.263110	-0.644993
62154		9.698567	0.295607	-0.601919	-0.002759	-0.008885	-0.013985	-0.692627	0.267090	0.331543	0.235952	-0.677510	-0.263348	-0.644945
62155		9.734290	0.281992	-0.665372	-0.012356	-0.010338	-0.016369	-0.698975	0.274658	0.325439	0.235691	-0.677554	-0.263561	-0.644908
62156		9.710511	0.287340	-0.684139	-0.038100	-0.002752	-0.013065	-0.694580	0.270752	0.332275	0.235294	-0.677608	-0.263555	-0.644998
62157		9.723514	0.291966	-0.659516	-0.037294	-0.011845	-0.009972	-0.697021	0.277100	0.336914	0.234893	-0.677752	-0.263545	-0.644997
62158		9.743825	0.241444	-0.599878	-0.055186	-0.005122	-0.008909	-0.692871	0.257324	0.325928	0.234414	-0.677890	-0.263407	-0.645082
62159		9.705639	0.162463	-0.686635	-0.056943	0.002088	-0.006036	-0.697266	0.268311	0.333984	0.233839	-0.678006	-0.263074	-0.645306
62160		9.721828	0.185322	-0.630728	-0.026335	-0.009202	-0.003223	-0.697998	0.272949	0.334961	0.233584	-0.678119	-0.263077	-0.645277
62161		9.718781	0.183083	-0.667941	-0.014851	-0.010535	-0.005164	-0.692871	0.270264	0.338867	0.233439	-0.678197	-0.263228	-0.645187
62162		9.679117	0.198429	-0.752305	-0.012090	-0.003108	-0.011567	-0.690918	0.263672	0.340820	0.233293	-0.678190	-0.263432	-0.645164
62163		9.691746	0.298249	-0.570551	-0.000171	-0.008085	-0.018280	-0.693359	0.274414	0.337158	0.233141	-0.678176	-0.263764	-0.645098
62164		9.709497	0.327798	-0.655120	-0.012766	-0.003904	-0.026152	-0.691895	0.258301	0.334473	0.232902	-0.678120	-0.264125	-0.645096
62165		9.724741	0.339313	-0.682156	-0.025616	-0.003309	-0.029564	-0.697998	0.263428	0.337402	0.232414	-0.678109	-0.264288	-0.645216
62166		9.781620	0.291549	-0.623872	-0.014497	-0.019080	-0.020441	-0.695557	0.258545	0.335938	0.232075	-0.678214	-0.264544	-0.645123
62167		9.723094	0.185258	-0.598702	-0.025680	0.004904	0.000061	-0.696045	0.270020	0.337646	0.231856	-0.678233	-0.264436	-0.645226
62168		9.680728	0.161261	-0.662668	-0.026093	0.004252	0.011751	-0.701660	0.257324	0.333984	0.231815	-0.678277	-0.264322	-0.645240
62169		9.728126	0.204956	-0.684258	0.003893	0.000274	0.010331	-0.699951	0.261963	0.333984	0.231885	-0.678283	-0.264348	-0.645199
62170		9.741908	0.236574	-0.644350	0.015006	0.005983	0.005676	-0.699951	0.266602	0.341064	0.232071	-0.678188	-0.264529	-0.645158
62171		9.697829	0.291378	-0.699801	0.001550	0.003147	-0.002729	-0.691406	0.268311	0.343994	0.232111	-0.678122	-0.264726	-0.645132
62172		9.687592	0.311070	-0.695396	0.003228	-0.003151	-0.005061	-0.705078	0.256592	0.336426	0.232170	-0.678092	-0.265020	-0.645022
62173		9.758798	0.339878	-0.630495	0.007683	0.002705	0.001609	-0.699707	0.265869	0.334229	0.232196	-0.678042	-0.265127	-0.645021
62174		9.693097	0.333219	-0.695513	-0.000754	-0.002149	0.009954	-0.696045	0.268066	0.333252	0.232288	-0.678065	-0.265203	-0.644933
62175		9.700479	0.276157	-0.682453	-0.017520	0.001243	0.008931	-0.701416	0.255371	0.334961	0.232266	-0.678101	-0.265169	-0.644916
62176		9.693624	0.313102	-0.624051	-0.000186	0.011443	0.006252	-0.693848	0.267334	0.338379	0.232288	-0.678020	-0.265144	-0.645004
62177		9.724309	0.320765	-0.762021	0.003043	0.005071	0.003778	-0.700439	0.257568	0.331543	0.232421	-0.677953	-0.265316	-0.644956
62178		9.727626	0.322084	-0.682214	-0.009220	0.004727	0.014727	-0.705566	0.262451	0.334717	0.232427	-0.677975	-0.265183	-0.644985
62179		9.724977	0.282401	-0.642467	-0.022982	-0.002333	0.016620	-0.698486	0.259033	0.334717	0.232339	-0.678093	-0.264975	-0.644978
62180		9.696072	0.257789	-0.658212	-0.008968	0.014169	0.008484	-0.697266	0.261475	0.335449	0.232350	-0.678016	-0.264892	-0.645089
62181		9.696413	0.305045	-0.754783	0.011049	0.017776	0.006158	-0.691650	0.267822	0.331055	0.232550	-0.677840	-0.265006	-0.645155
62182		9.668336	0.313544	-0.712666	-0.007597	0.004216	0.013060	-0.701416	0.262695	0.337646	0.232666	-0.677837	-0.265020	-0.645111
62183		9.717841	0.262235	-0.650069	-0.022711	0.009256	0.012103	-0.702637	0.262451	0.331787	0.232599	-0.677848	-0.264835	-0.645200
62184		9.764862	0.256448	-0.678525	-0.019644	0.009024	0.014270	-0.697754	0.270752	0.329102	0.232560	-0.677855	-0.264645	-0.645283
62185		9.723550	0.246077	-0.635406	-0.008947	0.019921	0.019539	-0.698242	0.262451	0.334229	0.232773	-0.677744	-0.264554	-0.645361
62186		9.685344	0.287507	-0.677516	0.001463	0.026749	0.019812	-0.696045	0.266357	0.336426	0.233032	-0.677568	-0.264449	-0.645496
62187		9.688688	0.302928	-0.644122	0.006430	-0.003351	0.015443	-0.700684	0.267090	0.335205	0.233240	-0.677601	-0.264553	-0.645343
62188		9.753475	0.271848	-0.638508	-0.010192	-0.019948	0.011564	-0.691162	0.264648	0.327637	0.233209	-0.677802	-0.264592	-0.645128
62189		9.761035	0.246181	-0.614410	-0.000858	0.002953	0.016452	-0.698242	0.266602	0.334473	0.233367	-0.677805	-0.264595	-0.645065
62190		9.716874	0.248323	-0.634599	-0.006101	0.008746	0.020351	-0.695068	0.268799	0.327393	0.233535	-0.677792	-0.264506	-0.645055
62191		9.659504	0.232764	-0.653232	-0.001606	0.015732	0.020250	-0.704590	0.267090	0.325928	0.233780	-0.677700	-0.264455	-0.645083
62192		9.673202	0.246578	-0.649192	0.003574	0.017896	0.008380	-0.694824	0.263916	0.335938	0.233928	-0.677540	-0.264486	-0.645185
62193		9.747046	0.276262	-0.634246	0.004600	-0.000896	0.005420	-0.698975	0.266113	0.322510	0.234018	-0.677533	-0.264620	-0.645105
62194		9.741132	0.235510	-0.630941	-0.002740	-0.007365	0.003924	-0.695312	0.270508	0.331299	0.233998	-0.677579	-0.264717	-0.645024
62195		9.753010	0.169528	-0.674155	0.003034	0.012388	0.009577	-0.693848	0.265137	0.345215	0.234205	-0.677466	-0.264822	-0.645025
62196		9.683422	0.203843	-0.667048	0.012322	0.008110	0.014711	-0.687988	0.263184	0.332031	0.234493	-0.677400	-0.264937	-0.644942
62197		9.677181	0.271082	-0.638490	0.020742	0.011205	0.016554	-0.696777	0.271729	0.327148	0.234854	-0.677285	-0.265075	-0.644875
62198		9.750263	0.265648	-0.682042	-0.001913	-0.007982	0.016394	-0.693115	0.273682	0.330078	0.234999	-0.677370	-0.265135	-0.644709
62199		9.703729	0.280836	-0.678139	-0.005020	0.002736	0.019877	-0.700439	0.269043	0.338379	0.235217	-0.677387	-0.265144	-0.644608
62200		9.747763	0.236724	-0.623875	-0.007285	0.013535	0.019617	-0.694336	0.268555	0.326904	0.235392	-0.677339	-0.265043	-0.644636
62201		9.723771	0.184493	-0.623044	-0.009736	0.028824	0.021314	-0.696289	0.267334	0.330566	0.235599	-0.677175	-0.264854	-0.644810
62202		9.683705	0.239071	-0.637731	-0.006804	0.028456	0.018004	-0.696533	0.275146	0.332031	0.235791	-0.677000	-0.264703	-0.644985
62203		9.704965	0.230024	-0.627568	0.001270	0.019489	0.014910	-0.699707	0.260498	0.330811	0.236081	-0.676847	-0.264757	-0.645017
62204		9.731073	0.212615	-0.654284	-0.002865	0.012540	0.009173	-0.699219	0.269531	0.333008	0.236094	-0.676779	-0.264668	-0.645120
62205		9.728630	0.206610	-0.620985	0.005288	0.009979	0.011295	-0.692139	0.272705	0.329102	0.236290	-0.676694	-0.264741	-0.645108
62206		9.730511	0.157117	-0.613963	-0.003619	0.012483	0.020829	-0.699951	0.271729	0.328857	0.236544	-0.676637	-0.264706	-0.645089
62207		9.689990	0.194695	-0.628166	0.004418	0.013984	0.023394	-0.697510	0.269775	0.329346	0.236850	-0.676556	-0.264667	-0.645078
62208		9.708307	0.180987	-0.612815	0.008693	0.004842	0.017916	-0.704102	0.272461	0.328613	0.237102	-0.676524	-0.264720	-0.644997
62209		9.716172	0.171191	-0.655462	0.017369	0.004095	0.011987	-0.699463	0.268311	0.319580	0.237378	-0.676446	-0.264896	-0.644905
62210		9.704268	0.216258	-0.607200	0.015612	-0.001886	0.010879	-0.695068	0.272461	0.325928	0.237557	-0.676423	-0.265032	-0.644807
62211		9.717765	0.229698	-0.652147	0.012920	-0.008117	0.018402	-0.701172	0.271240	0.337158	0.237829	-0.676478	-0.265176	-0.644591
62212		9.727440	0.189145	-0.652684	0.008639	0.004164	0.023730	-0.694824	0.271484	0.320557	0.238132	-0.676476	-0.265185	-0.644477
62213		9.732983	0.190135	-0.537008	-0.000410	0.013440	0.024129	-0.694336	0.278076	0.342285	0.238376	-0.676416	-0.265078	-0.644494
62214		9.717445	0.181052	-0.574528	0.001607	0.001403	0.015335	-0.699951	0.269287	0.331787	0.238648	-0.676419	-0.265213	-0.644334
62215		9.702718	0.206347	-0.687721	0.024042	0.002238	0.008409	-0.696777	0.272949	0.337646	0.238910	-0.676340	-0.265438	-0.644227
62216		9.759567	0.181226	-0.613053	0.005047	0.001178	0.011682	-0.695068	0.271729	0.326660	0.239100	-0.676332	-0.265551	-0.644118
62217		9.729491	0.123388	-0.577486	-0.008980	0.003906	0.019520	-0.694092	0.280029	0.327881	0.239205	-0.676367	-0.265441	-0.644088
62218		9.683107	0.138577	-0.595055	0.003806	-0.004213	0.019645	-0.695068	0.275635	0.322021	0.239493	-0.676409	-0.265559	-0.643888
62219		9.711636	0.122636	-0.634291	0.011820	0.004638	0.017617	-0.693604	0.271484	0.336426	0.239785	-0.676358	-0.265656	-0.643793
62220		9.704509	0.141198	-0.615875	0.011493	0.003739	0.012507	-0.697754	0.275879	0.321533	0.240025	-0.676319	-0.265784	-0.643692
62221		9.748401	0.208852	-0.650419	0.018181	0.000304	0.014189	-0.696777	0.278320	0.331055	0.240313	-0.676273	-0.265958	-0.643561
62222		9.747049	0.155611	-0.615459	0.008871	-0.000271	0.019312	-0.693848	0.280273	0.332764	0.240620	-0.676276	-0.266072	-0.643396
62223		9.710158	0.135567	-0.655142	-0.009171	-0.002646	0.019211	-0.696533	0.274414	0.325439	0.240803	-0.676348	-0.266084	-0.643247
62224		9.724881	0.103737	-0.586270	-0.004813	-0.006359	0.010459	-0.697266	0.274414	0.340576	0.240828	-0.676422	-0.266106	-0.643151
62225		9.717848	0.124233	-0.655678	0.006201	0.010612	0.004143	-0.695557	0.287354	0.323242	0.241000	-0.676312	-0.266262	-0.643138
62226		9.687695	0.164102	-0.616081	0.007516	-0.007088	0.001468	-0.694824	0.274170	0.335938	0.241213	-0.676285	-0.266623	-0.642936
62227		9.726360	0.148704	-0.644413	-0.009279	-0.011086	0.009855	-0.699463	0.269531	0.334229	0.241220	-0.676413	-0.266665	-0.642781
62228		9.737389	0.082016	-0.646299	-0.017697	-0.005708	0.009458	-0.696289	0.273193	0.321289	0.241083	-0.676536	-0.266537	-0.642757
62229		9.726838	0.161154	-0.605588	0.019911	0.018368	0.005303	-0.697998	0.273438	0.330566	0.241318	-0.676324	-0.266687	-0.642830
62230		9.709414	0.185047	-0.577637	-0.005712	-0.003239	0.003702	-0.694092	0.274658	0.321777	0.241285	-0.676359	-0.266739	-0.642783
62231		9.723766	0.139539	-0.657225	-0.022424	-0.005969	0.002891	-0.691650	0.278564	0.327148	0.241094	-0.676457	-0.266675	-0.642778
62232		9.715532	0.128671	-0.654229	-0.015016	-0.005854	0.004652	-0.696533	0.277100	0.331055	0.241062	-0.676528	-0.266734	-0.642692
62233		9.726286	0.141338	-0.580783	-0.007222	-0.001025	0.005564	-0.694336	0.273682	0.322754	0.241095	-0.676544	-0.266809	-0.642631
62234		9.721438	0.149344	-0.632965	-0.012462	0.002660	0.007697	-0.697754	0.276123	0.326416	0.241045	-0.676562	-0.266746	-0.642657
62235		9.706161	0.159954	-0.655240	-0.012684	-0.006540	0.006598	-0.693359	0.274414	0.330322	0.240988	-0.676643	-0.266753	-0.642590
62236		9.707064	0.191196	-0.599776	-0.019514	-0.004898	0.007137	-0.696533	0.273438	0.329102	0.240891	-0.676741	-0.266699	-0.642546
62237		9.716475	0.155358	-0.687321	-0.021042	0.002663	0.000249	-0.699951	0.275879	0.328857	0.240720	-0.676762	-0.266641	-0.642612
62238		9.703375	0.154715	-0.625782	-0.023915	-0.000029	0.001227	-0.697510	0.275391	0.327148	0.240547	-0.676807	-0.266582	-0.642654
62239		9.750294	0.150629	-0.634122	-0.020835	0.002336	0.004195	-0.690430	0.273926	0.328125	0.240430	-0.676833	-0.266516	-0.642697
62240		9.710067	0.114578	-0.616263	-0.020031	0.001228	0.007210	-0.694092	0.271484	0.326660	0.240354	-0.676883	-0.266444	-0.642703
62241		9.729201	0.137341	-0.632500	-0.004356	0.007933	0.004312	-0.691895	0.273926	0.332520	0.240357	-0.676827	-0.266451	-0.642757
62242		9.723318	0.192302	-0.642386	-0.004222	0.017126	-0.002480	-0.697266	0.275635	0.334961	0.240399	-0.676672	-0.266547	-0.642865
62243		9.697284	0.191028	-0.604645	-0.007457	0.006072	0.000404	-0.699219	0.275879	0.329590	0.240415	-0.676619	-0.266641	-0.642876
62244		9.723202	0.176338	-0.676673	-0.011056	0.011878	0.001693	-0.688721	0.276367	0.323242	0.240411	-0.676529	-0.266662	-0.642964
62245		9.718295	0.185230	-0.640660	-0.007992	-0.003587	0.003595	-0.702881	0.281494	0.334961	0.240423	-0.676558	-0.266764	-0.642886
62246		9.721395	0.203879	-0.566563	-0.006117	0.001455	0.004130	-0.695557	0.275391	0.324951	0.240532	-0.676528	-0.266921	-0.642812
62247		9.712889	0.176732	-0.622674	-0.015871	0.004559	0.003643	-0.701660	0.269287	0.338379	0.240470	-0.676518	-0.266901	-0.642854
62248		9.696057	0.217611	-0.643216	-0.012768	0.004384	0.003375	-0.697754	0.277344	0.327148	0.240375	-0.676524	-0.266847	-0.642906
62249		9.716427	0.195137	-0.654520	-0.009719	0.010397	0.005288	-0.688721	0.279297	0.333740	0.240429	-0.676446	-0.266877	-0.642955
62250		9.736118	0.155251	-0.618718	-0.011560	-0.002548	0.010246	-0.687256	0.274414	0.326660	0.240554	-0.676495	-0.266971	-0.642818
62251		9.754759	0.083077	-0.618924	-0.022687	0.003049	0.004297	-0.692383	0.273926	0.325928	0.240461	-0.676526	-0.266917	-0.642843
62252		9.716157	0.096918	-0.635355	0.001344	0.005409	-0.000037	-0.692627	0.277344	0.338135	0.240515	-0.676451	-0.267059	-0.642843
62253		9.657778	0.148704	-0.598993	0.012642	0.005359	0.000192	-0.696777	0.273682	0.330566	0.240772	-0.676334	-0.267388	-0.642732
62254		9.725578	0.139480	-0.645769	-0.000382	0.004199	0.001380	-0.686768	0.276611	0.331299	0.240820	-0.676280	-0.267508	-0.642722
62255		9.716310	0.174300	-0.645241	-0.004584	-0.001268	0.003191	-0.699951	0.276367	0.328857	0.240917	-0.676280	-0.267677	-0.642614
62256		9.736989	0.168099	-0.641469	0.006406	-0.003814	0.003551	-0.695068	0.272705	0.328125	0.241034	-0.676265	-0.267881	-0.642501
62257		9.721727	0.178642	-0.618977	-0.003001	0.009074	0.008706	-0.693604	0.270264	0.326660	0.241114	-0.676208	-0.267881	-0.642532
62258		9.731112	0.141505	-0.595207	-0.006698	0.008002	0.005728	-0.702393	0.272705	0.322510	0.241095	-0.676171	-0.267839	-0.642595
62259		9.697682	0.145112	-0.644786	0.003441	0.015887	0.005123	-0.693115	0.269775	0.331543	0.241169	-0.676023	-0.267852	-0.642717
62260		9.711908	0.177949	-0.625299	0.000378	-0.001058	-0.001509	-0.697998	0.276611	0.321045	0.241141	-0.676017	-0.267973	-0.642684
62261		9.729671	0.169188	-0.568975	-0.010785	-0.002946	-0.000459	-0.689697	0.276123	0.330322	0.241063	-0.676030	-0.268051	-0.642666
62262		9.737561	0.242197	-0.646683	-0.005121	0.006495	-0.001951	-0.697998	0.277100	0.328369	0.241119	-0.675955	-0.268214	-0.642657
62263		9.699502	0.194439	-0.632115	0.002828	0.008872	0.001211	-0.692139	0.272217	0.330811	0.241253	-0.675838	-0.268392	-0.642655
62264		9.703751	0.168037	-0.574151	-0.013536	0.001841	0.001404	-0.693604	0.269531	0.328857	0.241185	-0.675850	-0.268411	-0.642660
62265		9.728998	0.136945	-0.599417	-0.017480	0.006165	0.000958	-0.691406	0.276123	0.330811	0.241039	-0.675846	-0.268335	-0.642750
62266		9.710087	0.191363	-0.637982	-0.001616	-0.002641	0.001769	-0.697754	0.271973	0.323730	0.241128	-0.675844	-0.268527	-0.642639
62267		9.712264	0.177997	-0.619726	0.001477	0.009744	0.000992	-0.692871	0.271973	0.331543	0.241156	-0.675741	-0.268599	-0.642708
62268		9.737854	0.162889	-0.583009	-0.029392	0.004362	0.000841	-0.702881	0.267578	0.330322	0.240961	-0.675778	-0.268489	-0.642787
62269		9.720671	0.188449	-0.620558	-0.019449	0.008320	0.000730	-0.700195	0.269287	0.328369	0.240754	-0.675764	-0.268347	-0.642939
62270		9.699512	0.177750	-0.619158	-0.010586	0.004113	-0.001080	-0.694580	0.275391	0.330566	0.240626	-0.675744	-0.268336	-0.643013
62271		9.710917	0.207472	-0.591326	-0.013181	0.006443	0.003000	-0.695557	0.273193	0.323730	0.240643	-0.675707	-0.268383	-0.643025
62272		9.782977	0.171786	-0.580264	-0.017213	0.011684	0.003132	-0.696289	0.273193	0.326660	0.240581	-0.675644	-0.268323	-0.643140
62273		9.718591	0.183908	-0.624979	0.007693	0.017182	0.005338	-0.701172	0.269531	0.330078	0.240778	-0.675471	-0.268438	-0.643200
62274		9.704014	0.210690	-0.604187	-0.000654	0.008971	0.007293	-0.693115	0.266357	0.324951	0.240832	-0.675408	-0.268435	-0.643246
62275		9.689159	0.159303	-0.549906	-0.006338	0.010575	0.003152	-0.693848	0.277100	0.329102	0.240768	-0.675350	-0.268374	-0.643357
62276		9.721377	0.168282	-0.645009	-0.013172	-0.004989	-0.000806	-0.705811	0.269531	0.328125	0.240745	-0.675387	-0.268514	-0.643268
62277		9.745204	0.182987	-0.632794	-0.011111	-0.004934	-0.001289	-0.693848	0.272705	0.326904	0.240575	-0.675434	-0.268525	-0.643278
62278		9.711066	0.187470	-0.576411	-0.010981	0.002537	-0.000384	-0.700439	0.265381	0.324707	0.240527	-0.675419	-0.268588	-0.643286
62279		9.717683	0.149230	-0.589579	-0.008631	-0.000678	-0.001672	-0.698730	0.265869	0.323730	0.240335	-0.675437	-0.268556	-0.643352
62280		9.725887	0.160117	-0.617475	0.005340	-0.014505	-0.001397	-0.695557	0.272217	0.324219	0.240233	-0.675522	-0.268692	-0.643244
62281		9.705641	0.181836	-0.628147	0.001172	-0.002169	0.001507	-0.700684	0.269287	0.329834	0.240272	-0.675510	-0.268838	-0.643181
62282		9.710319	0.171681	-0.574977	-0.009721	0.008861	0.000171	-0.697754	0.269531	0.332275	0.240200	-0.675450	-0.268830	-0.643274
62283		9.763446	0.191255	-0.603633	-0.011778	0.002526	0.000900	-0.695557	0.267578	0.329346	0.240116	-0.675455	-0.268834	-0.643299
62284		9.708466	0.184952	-0.612372	0.009209	0.000412	-0.000191	-0.697754	0.282715	0.333496	0.240165	-0.675414	-0.268996	-0.643256
62285		9.707007	0.213679	-0.633418	0.010574	0.004180	0.005015	-0.704590	0.270264	0.322998	0.240510	-0.675309	-0.269333	-0.643096
62286		9.698343	0.186260	-0.647264	-0.013286	-0.007824	0.003264	-0.700684	0.274414	0.326172	0.240361	-0.675390	-0.269313	-0.643075
62287		9.737651	0.203439	-0.574098	-0.004806	-0.004693	0.002722	-0.696289	0.269775	0.339111	0.240377	-0.675409	-0.269436	-0.642997
62288		9.696810	0.214627	-0.669616	0.005532	0.010262	0.001555	-0.697021	0.269287	0.325928	0.240499	-0.675311	-0.269570	-0.642999
62289		9.721419	0.244755	-0.635126	0.011291	0.018783	-0.000490	-0.701172	0.270020	0.327637	0.240636	-0.675104	-0.269710	-0.643106
62290		9.704865	0.223758	-0.581103	-0.016958	-0.003124	0.000953	-0.698242	0.266113	0.335938	0.240477	-0.675159	-0.269683	-0.643119
62291		9.732243	0.258168	-0.602798	-0.013038	-0.000660	0.000218	-0.704590	0.266113	0.327881	0.240326	-0.675208	-0.269649	-0.643138
62292		9.696679	0.276590	-0.672917	-0.008589	-0.001701	0.000186	-0.698242	0.276611	0.325439	0.240174	-0.675233	-0.269633	-0.643176
62293		9.740786	0.205793	-0.577127	-0.021390	0.002548	0.005963	-0.702148	0.267334	0.334229	0.240147	-0.675247	-0.269618	-0.643177
62294		9.745986	0.195795	-0.610964	-0.029596	0.006064	0.004386	-0.691895	0.262695	0.326416	0.239920	-0.675294	-0.269408	-0.643301
62295		9.700486	0.153642	-0.640556	-0.006911	0.007689	0.005145	-0.693848	0.271973	0.331787	0.239844	-0.675274	-0.269318	-0.643388
62296		9.681402	0.206537	-0.612446	-0.007842	0.003346	0.005391	-0.696777	0.272705	0.334473	0.239889	-0.675270	-0.269364	-0.643356
62297		9.728758	0.218229	-0.603788	-0.021403	-0.008370	0.001207	-0.698975	0.276611	0.327148	0.239755	-0.675386	-0.269378	-0.643278
62298		9.721440	0.162276	-0.597735	-0.003721	-0.007957	0.000617	-0.701416	0.261230	0.328613	0.239808	-0.675414	-0.269587	-0.643141
62299		9.716416	0.171320	-0.585431	0.001701	0.000597	0.001962	-0.696533	0.278076	0.335205	0.239712	-0.675412	-0.269579	-0.643183
62300		9.735260	0.179026	-0.642759	-0.008216	-0.007026	0.003086	-0.692383	0.260742	0.330566	0.239791	-0.675467	-0.269758	-0.643020
62301		9.718116	0.219117	-0.599510	-0.001355	-0.000262	0.004074	-0.694580	0.269531	0.330811	0.239706	-0.675502	-0.269722	-0.643030
62302		9.713161	0.227270	-0.586524	0.001784	-0.001455	0.005679	-0.697754	0.274902	0.332275	0.239782	-0.675512	-0.269824	-0.642949
62303		9.708248	0.235810	-0.596761	-0.012445	-0.011989	0.003933	-0.699463	0.267822	0.330078	0.239760	-0.675626	-0.269926	-0.642795
62304		9.702646	0.213263	-0.685582	-0.008431	0.002113	0.002148	-0.697754	0.275391	0.321045	0.239692	-0.675624	-0.269931	-0.642820
62305		9.701828	0.195821	-0.637606	-0.003565	-0.001002	0.002465	-0.694824	0.274658	0.335205	0.239760	-0.675594	-0.270085	-0.642761
62306		9.751936	0.210943	-0.638284	-0.010894	-0.008938	0.003683	-0.696289	0.275146	0.328613	0.239773	-0.675685	-0.270201	-0.642612
62307		9.718199	0.215366	-0.647253	-0.013204	0.007447	0.001134	-0.695312	0.270508	0.330078	0.239792	-0.675627	-0.270269	-0.642637
62308		9.692089	0.212904	-0.632677	-0.003964	0.005699	0.007107	-0.694824	0.265381	0.326904	0.239869	-0.675594	-0.270306	-0.642628
62309		9.689285	0.208012	-0.600938	-0.005530	0.004294	0.002126	-0.694336	0.272949	0.330811	0.239802	-0.675573	-0.270297	-0.642678
62310		9.711060	0.220493	-0.687972	-0.017764	-0.004639	-0.002898	-0.688965	0.271729	0.329834	0.239690	-0.675626	-0.270376	-0.642632
62311		9.763092	0.222823	-0.625534	-0.023308	0.011580	0.002126	-0.696533	0.278320	0.323730	0.239622	-0.675589	-0.270313	-0.642722
62312		9.699596	0.204815	-0.563215	-0.010842	0.002579	0.005062	-0.698975	0.260742	0.330566	0.239722	-0.675555	-0.270429	-0.642672
62313		9.720503	0.198058	-0.579502	0.008998	0.006766	0.008419	-0.687744	0.268555	0.332031	0.239768	-0.675509	-0.270411	-0.642711
62314		9.718570	0.272351	-0.669912	-0.004594	-0.005571	0.007575	-0.697998	0.271729	0.325928	0.239805	-0.675589	-0.270462	-0.642591
62315		9.719715	0.240071	-0.605935	-0.011981	-0.003691	0.009943	-0.699463	0.266357	0.332764	0.239811	-0.675650	-0.270449	-0.642530
62316		9.710900	0.274327	-0.648454	-0.014927	0.008220	0.006713	-0.708496	0.277588	0.326660	0.239735	-0.675641	-0.270333	-0.642617
62317		9.717890	0.250185	-0.621089	-0.014754	0.003244	0.005663	-0.700684	0.282471	0.327148	0.239773	-0.675608	-0.270384	-0.642616
62318		9.717684	0.233522	-0.658900	-0.013525	0.010594	0.004381	-0.688721	0.273193	0.331055	0.239935	-0.675501	-0.270520	-0.642611
62319		9.710212	0.238688	-0.657130	-0.015482	0.002823	0.005430	-0.692383	0.276611	0.325439	0.239961	-0.675518	-0.270546	-0.642572
62320		9.740491	0.211955	-0.612260	-0.014460	0.008240	0.008793	-0.698486	0.261963	0.325439	0.240070	-0.675476	-0.270570	-0.642566
62321		9.695540	0.185586	-0.646367	-0.012320	0.004245	0.007847	-0.687988	0.265625	0.329346	0.239919	-0.675504	-0.270392	-0.642667
62322		9.738899	0.159487	-0.596045	-0.002124	0.015395	0.004786	-0.695312	0.272217	0.329834	0.239971	-0.675405	-0.270375	-0.642759
62323		9.723276	0.231610	-0.557819	0.016887	0.001878	0.005833	-0.697510	0.265869	0.323975	0.240236	-0.675328	-0.270633	-0.642632
62324		9.717741	0.208100	-0.623203	0.017800	0.003596	0.004783	-0.692627	0.267334	0.332275	0.240377	-0.675245	-0.270786	-0.642602
62325		9.682293	0.224690	-0.670441	0.007465	0.003178	0.009594	-0.695068	0.278076	0.325439	0.240527	-0.675226	-0.270862	-0.642534
62326		9.738932	0.213587	-0.577313	-0.006420	0.006037	0.012452	-0.693115	0.267334	0.322510	0.240736	-0.675185	-0.270936	-0.642468
62327		9.731631	0.218246	-0.597581	-0.000322	0.006287	0.003138	-0.697021	0.274902	0.327393	0.240743	-0.675129	-0.270968	-0.642511
62328		9.705841	0.279042	-0.655880	0.008069	0.010335	0.003212	-0.696777	0.267578	0.326660	0.240963	-0.674990	-0.271175	-0.642486
62329		9.683156	0.311056	-0.570494	-0.004265	0.006325	0.007101	-0.695068	0.288574	0.327881	0.240977	-0.674961	-0.271149	-0.642523
62330		9.710914	0.203227	-0.614645	-0.023859	0.002248	0.014618	-0.697998	0.271240	0.326416	0.241217	-0.674976	-0.271237	-0.642380
62331		9.723718	0.123255	-0.619394	-0.008493	0.004498	0.007815	-0.710693	0.267090	0.321777	0.241247	-0.674962	-0.271227	-0.642388
62332		9.736088	0.182680	-0.532306	0.001659	0.019170	0.006153	-0.695801	0.272217	0.322510	0.241281	-0.674787	-0.271172	-0.642582
62333		9.724968	0.214079	-0.585909	-0.008609	0.002793	0.007579	-0.700439	0.272461	0.330811	0.241312	-0.674781	-0.271177	-0.642574
62334		9.716623	0.186584	-0.643519	-0.014677	-0.005607	0.010498	-0.696777	0.267822	0.324951	0.241307	-0.674874	-0.271153	-0.642489
62335		9.730904	0.155029	-0.618804	0.001050	-0.003562	0.010663	-0.704590	0.274902	0.333008	0.241353	-0.674919	-0.271163	-0.642420
62336		9.724333	0.205801	-0.498486	0.009106	0.015733	0.006584	-0.697998	0.267334	0.325928	0.241624	-0.674744	-0.271332	-0.642431
62337		9.711977	0.251669	-0.634079	0.010625	0.013027	0.005646	-0.696289	0.273193	0.322998	0.241755	-0.674613	-0.271400	-0.642491
62338		9.681336	0.258370	-0.649319	-0.015875	0.006380	0.010157	-0.694824	0.272705	0.323975	0.241769	-0.674607	-0.271324	-0.642524
62339		9.718281	0.208322	-0.600609	-0.023758	0.002480	0.009718	-0.696045	0.264404	0.324951	0.241697	-0.674660	-0.271196	-0.642548
62340		9.741736	0.156954	-0.512400	-0.024037	0.009388	0.009489	-0.693359	0.270752	0.326660	0.241507	-0.674689	-0.270919	-0.642706
62341		9.732841	0.237223	-0.578631	0.008391	0.008002	0.008444	-0.686768	0.269775	0.333252	0.241697	-0.674610	-0.271022	-0.642675
62342		9.681530	0.233805	-0.660202	0.004429	0.008551	0.011472	-0.695557	0.266113	0.329590	0.241892	-0.674573	-0.271066	-0.642622
62343		9.713251	0.191678	-0.575851	0.002273	0.006271	0.012635	-0.702148	0.259766	0.324707	0.241979	-0.674561	-0.271016	-0.642623
62344		9.771797	0.137056	-0.607253	0.004674	0.026039	0.008699	-0.697510	0.273926	0.326416	0.241992	-0.674374	-0.270850	-0.642884
62345		9.719600	0.132290	-0.574780	0.021052	0.031059	0.004473	-0.706299	0.275879	0.326660	0.242368	-0.674044	-0.271052	-0.643003
62346		9.714530	0.170984	-0.618512	0.020514	0.035587	0.001916	-0.704102	0.271240	0.319092	0.242746	-0.673652	-0.271278	-0.643176
62347		9.709985	0.148448	-0.488637	0.021916	0.031172	0.000745	-0.696533	0.274658	0.323975	0.243028	-0.673295	-0.271464	-0.643365
62348		9.737304	0.151171	-0.537823	0.037448	0.028943	-0.007992	-0.700684	0.277100	0.322510	0.243441	-0.672891	-0.271913	-0.643442
62349		9.734725	0.180130	-0.608238	0.040542	0.036555	-0.011271	-0.701172	0.268555	0.325928	0.243907	-0.672389	-0.272422	-0.643575
62350		9.712810	0.216502	-0.583155	0.033094	0.025912	-0.008467	-0.700195	0.272461	0.330078	0.244167	-0.672043	-0.272756	-0.643696
62351		9.732574	0.180070	-0.586538	0.028830	0.021476	-0.008573	-0.698730	0.273193	0.317139	0.244448	-0.671743	-0.273131	-0.643744
62352		9.709556	0.123056	-0.592831	0.065920	0.010028	-0.018933	-0.697510	0.270020	0.318848	0.244908	-0.671363	-0.273927	-0.643628
62353		9.708162	0.142243	-0.463698	0.094275	0.011090	-0.026106	-0.700195	0.274658	0.317871	0.245506	-0.670880	-0.274961	-0.643462
62354		9.774087	0.290451	-0.455927	0.054066	0.034624	-0.020615	-0.701416	0.263428	0.318359	0.245957	-0.670330	-0.275616	-0.643582
62355		9.736210	0.244523	-0.626312	0.036080	0.012564	-0.012803	-0.705811	0.277344	0.321777	0.246066	-0.670081	-0.275966	-0.643650
62356		9.708822	0.212252	-0.625607	0.045250	0.001408	-0.006380	-0.692871	0.270264	0.314697	0.246484	-0.669867	-0.276570	-0.643454
62357		9.723072	0.248570	-0.461158	0.050156	0.020047	-0.004570	-0.703125	0.277588	0.314453	0.246919	-0.669528	-0.277039	-0.643438
62358		9.716374	0.225940	-0.411998	0.035081	0.029259	-0.005318	-0.708008	0.271240	0.315674	0.247350	-0.669117	-0.277463	-0.643518
62359		9.741848	0.225213	-0.496970	0.021389	0.023681	-0.004899	-0.709473	0.282227	0.317627	0.247544	-0.668813	-0.277698	-0.643658
62360		9.734763	0.261847	-0.579351	0.012566	0.018112	-0.004254	-0.706055	0.280273	0.312988	0.247824	-0.668548	-0.278028	-0.643682
62361		9.722806	0.249251	-0.519303	0.005446	0.011637	-0.006733	-0.702393	0.271484	0.305420	0.247972	-0.668352	-0.278316	-0.643705
62362		9.727136	0.240886	-0.485983	0.007241	0.010804	-0.004410	-0.700684	0.274414	0.313721	0.248004	-0.668190	-0.278471	-0.643794
62363		9.729203	0.212676	-0.505266	0.004138	0.010985	-0.004175	-0.693604	0.271484	0.312744	0.248079	-0.668046	-0.278648	-0.643838
62364		9.731499	0.201203	-0.507457	0.010474	0.007183	-0.008443	-0.703613	0.274658	0.312988	0.248122	-0.667920	-0.278881	-0.643851
62365		9.730516	0.232825	-0.527246	0.009094	0.009574	-0.011483	-0.700684	0.271484	0.307373	0.248178	-0.667739	-0.279169	-0.643893
62366		9.736668	0.258469	-0.524724	0.003630	0.009843	-0.009854	-0.708984	0.273926	0.309814	0.248150	-0.667583	-0.279354	-0.643984
62367		9.724758	0.230797	-0.505888	0.001743	0.004331	-0.009447	-0.703857	0.267090	0.312988	0.248128	-0.667460	-0.279578	-0.644023
62368		9.724741	0.233429	-0.505009	0.000656	0.002956	-0.012334	-0.709229	0.272705	0.306152	0.247972	-0.667383	-0.279725	-0.644099
62369		9.751371	0.254022	-0.499237	0.004709	0.003462	-0.011766	-0.703857	0.272705	0.320801	0.247940	-0.667243	-0.279988	-0.644142
62370		9.707257	0.263879	-0.498892	0.000947	0.007447	-0.008320	-0.702637	0.270508	0.322266	0.247940	-0.667140	-0.280174	-0.644168
62371		9.733766	0.266560	-0.509680	-0.001242	0.006703	-0.002042	-0.704102	0.275391	0.316895	0.247941	-0.667085	-0.280263	-0.644186
62372		9.738304	0.319572	-0.508434	-0.005421	0.001374	-0.002678	-0.696289	0.273926	0.317871	0.247955	-0.667051	-0.280412	-0.644151
62373		9.691230	0.324574	-0.500565	-0.007534	-0.000278	-0.004864	-0.705566	0.264893	0.317627	0.247917	-0.667051	-0.280545	-0.644107
62374		9.736726	0.351340	-0.507096	-0.008969	0.008764	-0.006697	-0.699463	0.274902	0.310791	0.247735	-0.666989	-0.280536	-0.644246
62375		9.709624	0.335246	-0.488349	-0.019844	0.006267	-0.005734	-0.702148	0.271240	0.313721	0.247621	-0.666945	-0.280579	-0.644317
62376		9.728964	0.344710	-0.521716	-0.024545	0.001300	-0.006962	-0.707275	0.270752	0.313965	0.247389	-0.666964	-0.280564	-0.644393
62377		9.727569	0.313818	-0.512673	-0.030213	0.000775	-0.004984	-0.708252	0.266602	0.321289	0.247117	-0.667002	-0.280490	-0.644490
62378		9.712693	0.282016	-0.486735	-0.029297	-0.000650	-0.005905	-0.703125	0.261963	0.311035	0.246788	-0.667073	-0.280383	-0.644588
62379		9.722537	0.265037	-0.490472	-0.020818	0.003455	-0.008271	-0.709717	0.275635	0.312988	0.246454	-0.667077	-0.280295	-0.644750
62380		9.713322	0.302665	-0.489290	-0.011702	0.005268	-0.008754	-0.705566	0.266357	0.320312	0.246410	-0.666981	-0.280469	-0.644791
62381		9.738697	0.336024	-0.521912	-0.016891	0.006401	-0.009927	-0.705078	0.271973	0.309570	0.246190	-0.666944	-0.280482	-0.644908
62382		9.735756	0.334813	-0.511969	-0.024930	0.002828	-0.006419	-0.704346	0.271484	0.308105	0.246002	-0.666928	-0.280496	-0.644990
62383		9.714124	0.341040	-0.472494	-0.028784	0.000450	-0.000250	-0.703125	0.267578	0.315918	0.245821	-0.666962	-0.280434	-0.645051
62384		9.695974	0.349460	-0.463760	-0.029216	0.000376	0.005551	-0.702881	0.267822	0.311768	0.245633	-0.667053	-0.280266	-0.645101
62385		9.719176	0.392099	-0.492461	-0.032475	0.004982	0.007715	-0.705566	0.268066	0.316162	0.245454	-0.667112	-0.280048	-0.645203
62386		9.726113	0.351663	-0.504418	-0.029645	0.003919	0.010273	-0.701416	0.264648	0.318604	0.245324	-0.667184	-0.279839	-0.645268
62387		9.737884	0.317372	-0.490053	-0.018459	0.005289	0.010274	-0.702637	0.269775	0.322266	0.245246	-0.667236	-0.279667	-0.645319
62388		9.754089	0.335463	-0.475124	-0.014958	0.003561	0.009475	-0.697510	0.266602	0.316162	0.245262	-0.667279	-0.279601	-0.645298
62389		9.701115	0.314123	-0.466636	-0.022809	0.005406	0.009680	-0.708984	0.270508	0.314209	0.245172	-0.667337	-0.279422	-0.645350
62390		9.715622	0.267764	-0.478367	-0.022235	0.006159	0.005958	-0.708008	0.260986	0.326416	0.245112	-0.667331	-0.279340	-0.645414
62391		9.691466	0.252670	-0.469434	-0.003191	0.001083	0.000800	-0.703125	0.266357	0.314453	0.245021	-0.667352	-0.279343	-0.645425
62392		9.733726	0.320098	-0.493027	0.013906	0.005372	0.001157	-0.708984	0.260742	0.319580	0.245165	-0.667251	-0.279537	-0.645391
62393		9.739200	0.325540	-0.487036	0.018668	0.007276	0.008002	-0.704346	0.267578	0.310059	0.245328	-0.667162	-0.279640	-0.645377
62394		9.719617	0.361370	-0.476919	0.005731	0.005203	0.008452	-0.699707	0.262939	0.311768	0.245475	-0.667097	-0.279726	-0.645351
62395		9.699033	0.348117	-0.498118	0.002481	0.005670	0.012620	-0.711426	0.265625	0.310791	0.245562	-0.667082	-0.279683	-0.645351
62396		9.707508	0.355589	-0.501010	-0.003457	0.003780	0.010414	-0.709961	0.266113	0.308838	0.245611	-0.667056	-0.279666	-0.645367
62397		9.718362	0.366938	-0.490932	-0.004116	0.003472	0.007745	-0.701416	0.261719	0.312012	0.245640	-0.667021	-0.279674	-0.645389
62398		9.724389	0.372371	-0.507103	-0.008273	0.004890	0.005869	-0.704590	0.267090	0.320068	0.245560	-0.667023	-0.279589	-0.645454
62399		9.735488	0.338166	-0.471322	-0.015368	0.001995	0.010163	-0.709473	0.270020	0.318115	0.245516	-0.667088	-0.279471	-0.645455
62400		9.728810	0.296009	-0.466687	-0.014898	0.004635	0.013047	-0.700684	0.273193	0.311768	0.245550	-0.667113	-0.279371	-0.645458
62401		9.718225	0.279197	-0.474774	-0.012074	0.003569	0.015611	-0.705811	0.263184	0.314453	0.245673	-0.667141	-0.279312	-0.645409
62402		9.726125	0.286106	-0.456261	-0.007913	0.001689	0.010526	-0.702637	0.268311	0.312500	0.245640	-0.667176	-0.279219	-0.645425
62403		9.722151	0.293659	-0.486161	-0.007499	0.003254	0.009821	-0.707764	0.263428	0.323975	0.245683	-0.667183	-0.279189	-0.645415
62404		9.746010	0.304909	-0.471107	-0.000909	0.005949	0.013768	-0.710938	0.268066	0.308594	0.245743	-0.667199	-0.279096	-0.645416
62405		9.721922	0.286700	-0.461632	-0.001878	0.006738	0.018050	-0.700439	0.267822	0.319580	0.245911	-0.667157	-0.279051	-0.645415
62406		9.710463	0.298587	-0.491047	-0.004915	0.003388	0.016899	-0.704834	0.268799	0.306885	0.246010	-0.667211	-0.278948	-0.645365
62407		9.735685	0.325582	-0.502225	-0.008673	0.003258	0.014451	-0.700928	0.269043	0.319336	0.246085	-0.667215	-0.278886	-0.645360
62408		9.734509	0.305535	-0.475177	-0.007526	0.005234	0.013978	-0.710449	0.271240	0.310059	0.246156	-0.667248	-0.278791	-0.645340
62409		9.747092	0.302203	-0.447014	-0.007268	0.007598	0.016282	-0.705078	0.268799	0.311035	0.246298	-0.667209	-0.278737	-0.645349
62410		9.762667	0.256048	-0.402669	-0.015080	-0.001325	0.017230	-0.705811	0.270996	0.314697	0.246315	-0.667293	-0.278598	-0.645315
62411		9.705715	0.214159	-0.383350	-0.012105	-0.003129	0.008900	-0.698486	0.263184	0.318604	0.246305	-0.667358	-0.278573	-0.645263
62412		9.721697	0.216485	-0.387407	0.001232	0.001508	0.005909	-0.697266	0.273926	0.319580	0.246287	-0.667386	-0.278553	-0.645250
62413		9.738860	0.219478	-0.434426	0.006443	0.002967	0.007890	-0.713623	0.270508	0.318115	0.246470	-0.667373	-0.278664	-0.645146
62414		9.724540	0.246306	-0.439052	0.006572	-0.005095	0.007004	-0.701904	0.267334	0.311279	0.246582	-0.667383	-0.278808	-0.645030
62415		9.727494	0.294137	-0.474784	0.005504	-0.007473	0.005970	-0.709717	0.270264	0.314453	0.246631	-0.667426	-0.278919	-0.644918
62416		9.718271	0.266473	-0.468144	-0.004862	-0.004663	0.002675	-0.700684	0.268555	0.319336	0.246612	-0.667451	-0.279004	-0.644863
62417		9.734767	0.270228	-0.494683	-0.005046	-0.002326	0.002893	-0.710205	0.268555	0.315674	0.246568	-0.667502	-0.279027	-0.644818
62418		9.730696	0.280162	-0.526127	-0.003382	-0.005307	-0.001954	-0.706055	0.266357	0.316406	0.246500	-0.667516	-0.279145	-0.644777
62419		9.686787	0.304476	-0.510697	-0.003382	-0.005307	-0.001954	-0.698730	0.266846	0.314697	0.246403	-0.667549	-0.279231	-0.644743
62420		9.725618	0.306927	-0.497650	-0.016740	-0.004259	-0.003742	-0.703369	0.266357	0.311035	0.246190	-0.667620	-0.279217	-0.644758
62421		9.750444	0.276446	-0.502752	-0.023221	-0.004295	-0.001447	-0.698242	0.269531	0.308838	0.245950	-0.667693	-0.279153	-0.644801
62422		9.702038	0.278527	-0.552744	-0.018008	-0.002839	0.000532	-0.708496	0.276367	0.316895	0.245819	-0.667742	-0.279142	-0.644805
62423		9.716279	0.327375	-0.517175	-0.013735	-0.002578	0.002630	-0.711670	0.272461	0.310059	0.245817	-0.667770	-0.279212	-0.644746
62424		9.714902	0.355710	-0.517417	-0.019891	-0.004286	0.006786	-0.698486	0.269043	0.328369	0.245762	-0.667820	-0.279198	-0.644722
62425		9.736280	0.365001	-0.517200	-0.028329	-0.001661	0.007902	-0.690674	0.264893	0.318115	0.245570	-0.667984	-0.278974	-0.644722
62426		9.716050	0.338790	-0.479085	-0.024480	-0.002458	0.009768	-0.700684	0.270752	0.317139	0.245385	-0.668143	-0.278742	-0.644729
62427		9.716660	0.337079	-0.501142	-0.027148	-0.001237	0.010214	-0.697021	0.273682	0.317383	0.245267	-0.668257	-0.278568	-0.644730
62428		9.722412	0.280113	-0.510493	-0.033747	0.001685	0.009362	-0.700195	0.273926	0.316406	0.245131	-0.668368	-0.278358	-0.644757
62429		9.724629	0.265628	-0.514851	-0.031630	-0.001782	0.007518	-0.702148	0.264893	0.320312	0.244994	-0.668481	-0.278208	-0.644757
62430		9.718706	0.256797	-0.497891	-0.013002	-0.001248	0.008868	-0.705566	0.267090	0.316406	0.244915	-0.668563	-0.278102	-0.644748
62431		9.743590	0.255329	-0.445067	-0.009030	-0.001281	0.004945	-0.697510	0.265625	0.319092	0.244873	-0.668591	-0.278104	-0.644734
62432		9.698991	0.230327	-0.481764	-0.005223	-0.000008	0.003105	-0.704590	0.262939	0.317139	0.244823	-0.668625	-0.278105	-0.644717
62433		9.736872	0.244874	-0.506803	0.005096	-0.000755	0.002688	-0.701416	0.267822	0.324951	0.244834	-0.668610	-0.278195	-0.644689
62434		9.727749	0.294699	-0.466736	0.008768	0.000270	0.005714	-0.703613	0.265137	0.314941	0.244940	-0.668614	-0.278295	-0.644601
62435		9.731126	0.358671	-0.482881	-0.001960	-0.001068	0.007755	-0.710938	0.265137	0.317139	0.244959	-0.668632	-0.278312	-0.644568
62436		9.702705	0.306694	-0.480828	-0.014802	-0.004034	0.007588	-0.698486	0.263184	0.318604	0.244863	-0.668700	-0.278249	-0.644562
62437		9.711869	0.285748	-0.464328	-0.017610	-0.003472	0.005951	-0.695801	0.263672	0.317383	0.244693	-0.668809	-0.278118	-0.644570
62438		9.725382	0.285870	-0.482076	-0.006293	-0.002383	0.002060	-0.700439	0.263184	0.309326	0.244599	-0.668862	-0.278110	-0.644554
62439		9.743249	0.307086	-0.533958	-0.010953	-0.001091	0.000532	-0.703125	0.265869	0.320557	0.244482	-0.668869	-0.278121	-0.644586
62440		9.736428	0.283323	-0.513316	-0.018488	-0.004032	0.002700	-0.702637	0.269531	0.322510	0.244311	-0.668962	-0.278043	-0.644588
62441		9.700652	0.254716	-0.494092	-0.020147	-0.006161	0.003503	-0.699463	0.263916	0.321533	0.244160	-0.669083	-0.277974	-0.644550
62442		9.700835	0.239183	-0.534715	-0.014908	-0.002511	-0.000647	-0.703613	0.267090	0.310791	0.243973	-0.669155	-0.277922	-0.644567
62443		9.730894	0.276222	-0.520359	-0.010951	-0.001096	0.000528	-0.699951	0.261963	0.309082	0.243911	-0.669148	-0.277980	-0.644574
62444		9.757365	0.277687	-0.533136	-0.010342	-0.002379	0.000531	-0.707520	0.263916	0.325439	0.243797	-0.669159	-0.278003	-0.644595
62445		9.709789	0.281108	-0.504122	-0.006585	-0.002267	0.002980	-0.704590	0.266357	0.320801	0.243712	-0.669209	-0.277997	-0.644578
62446		9.705217	0.289991	-0.513082	-0.006747	-0.000968	0.005064	-0.705566	0.261719	0.321045	0.243686	-0.669241	-0.278001	-0.644553
62447		9.719081	0.305451	-0.512409	-0.004328	0.000016	0.007276	-0.696289	0.274170	0.312500	0.243655	-0.669270	-0.277971	-0.644548
62448		9.728882	0.331470	-0.542388	-0.007827	-0.002823	0.003089	-0.707520	0.262451	0.314453	0.243695	-0.669292	-0.278066	-0.644469
62449		9.731321	0.334218	-0.529496	-0.008160	-0.000626	0.000308	-0.707031	0.261230	0.325195	0.243609	-0.669278	-0.278112	-0.644496
62450		9.721222	0.291117	-0.517712	-0.010522	-0.000045	0.000760	-0.702393	0.260742	0.315674	0.243456	-0.669317	-0.278067	-0.644533
62451		9.723330	0.278829	-0.522447	-0.006688	-0.001240	-0.004319	-0.702637	0.260742	0.327148	0.243319	-0.669309	-0.278134	-0.644564
62452		9.737119	0.296452	-0.521971	-0.003956	-0.001417	-0.001179	-0.695557	0.262695	0.313965	0.243184	-0.669354	-0.278135	-0.644568
62453		9.716037	0.301773	-0.505166	-0.008367	-0.001415	0.000652	-0.701172	0.264648	0.318359	0.243094	-0.669377	-0.278155	-0.644569
62454		9.716583	0.302076	-0.526780	-0.009231	0.002593	0.002388	-0.704102	0.268555	0.318359	0.243035	-0.669378	-0.278149	-0.644594
62455		9.701196	0.298429	-0.544041	-0.006072	0.002553	-0.000260	-0.705078	0.269531	0.314209	0.243023	-0.669347	-0.278228	-0.644596
62456		9.700246	0.343842	-0.524999	-0.002808	0.000567	-0.001635	-0.711182	0.263916	0.333496	0.243051	-0.669294	-0.278387	-0.644571
62457		9.753527	0.363136	-0.531880	-0.011696	-0.000476	-0.001567	-0.698975	0.271729	0.325684	0.242873	-0.669352	-0.278344	-0.644597
62458		9.717465	0.319792	-0.529287	-0.022320	0.001419	-0.002085	-0.704346	0.264893	0.318604	0.242695	-0.669419	-0.278271	-0.644626
62459		9.707384	0.277363	-0.516977	-0.022916	0.002178	-0.001163	-0.704834	0.266357	0.322998	0.242505	-0.669441	-0.278202	-0.644704
62460		9.729302	0.289180	-0.537578	-0.014055	0.000099	-0.001120	-0.700439	0.266846	0.318115	0.242379	-0.669470	-0.278198	-0.644723
62461		9.704822	0.336482	-0.514859	-0.013903	0.000232	0.001891	-0.695068	0.267822	0.321289	0.242299	-0.669499	-0.278188	-0.644728
62462		9.702174	0.348091	-0.488481	-0.015846	-0.002300	0.004537	-0.701416	0.263184	0.327148	0.242201	-0.669592	-0.278117	-0.644699
62463		9.730265	0.335611	-0.484113	-0.017846	-0.001711	0.001630	-0.701904	0.265381	0.323486	0.242011	-0.669686	-0.278012	-0.644718
62464		9.726248	0.345643	-0.514194	-0.021070	0.002868	0.003821	-0.706055	0.260742	0.328369	0.241866	-0.669740	-0.277887	-0.644770
62465		9.707572	0.322164	-0.541055	-0.019039	-0.000194	0.003475	-0.704590	0.261475	0.324219	0.241672	-0.669823	-0.277751	-0.644814
62466		9.735976	0.325698	-0.518653	-0.018999	-0.003183	0.001147	-0.697510	0.267822	0.324951	0.241474	-0.669907	-0.277670	-0.644837
62467		9.742236	0.348561	-0.518257	-0.015045	-0.001766	0.002333	-0.700195	0.259033	0.323730	0.241359	-0.669992	-0.277612	-0.644816
62468		9.719173	0.304330	-0.511333	-0.010750	0.001612	0.004339	-0.705566	0.260010	0.323486	0.241252	-0.670033	-0.277534	-0.644847
62469		9.726452	0.281494	-0.528853	-0.008693	0.001676	0.003888	-0.699951	0.256104	0.323486	0.241179	-0.670048	-0.277504	-0.644872
62470		9.715238	0.313204	-0.540655	-0.001062	0.002692	0.003014	-0.706543	0.253418	0.325928	0.241126	-0.670047	-0.277500	-0.644895
62471		9.719960	0.349363	-0.556595	0.002578	-0.000311	0.000131	-0.707031	0.258545	0.322266	0.241053	-0.670041	-0.277555	-0.644905
62472		9.746239	0.366083	-0.529243	-0.000739	0.000110	-0.001162	-0.700195	0.263428	0.321289	0.241002	-0.670016	-0.277645	-0.644911
62473		9.726469	0.341982	-0.512455	-0.010569	0.003964	0.001220	-0.709229	0.268555	0.314209	0.240927	-0.670014	-0.277627	-0.644949
62474		9.702918	0.312752	-0.565358	-0.007327	0.003926	0.004020	-0.713623	0.265137	0.315674	0.240998	-0.669949	-0.277722	-0.644949
62475		9.703855	0.328370	-0.568332	-0.004663	0.002709	0.003569	-0.704590	0.260010	0.326904	0.241061	-0.669878	-0.277836	-0.644950
62476		9.732308	0.331603	-0.545102	-0.006047	0.001500	0.001586	-0.703369	0.264404	0.321289	0.240972	-0.669899	-0.277819	-0.644968
62477		9.724272	0.336685	-0.522586	-0.008795	0.003623	0.002618	-0.706787	0.258057	0.319824	0.240937	-0.669890	-0.277822	-0.644990
62478		9.728934	0.325918	-0.512796	-0.008823	0.006083	0.005869	-0.699219	0.260986	0.328369	0.240908	-0.669856	-0.277785	-0.645052
62479		9.708223	0.314324	-0.533947	-0.005070	0.006191	0.008327	-0.696289	0.260010	0.320068	0.240885	-0.669884	-0.277678	-0.645077
62480		9.699265	0.331563	-0.549618	-0.005119	0.005005	0.012605	-0.707031	0.263916	0.325928	0.240927	-0.669905	-0.277583	-0.645081
62481		9.733233	0.339415	-0.521144	-0.008189	0.003232	0.008638	-0.709473	0.259521	0.315430	0.240919	-0.669931	-0.277516	-0.645086
62482		9.728229	0.346898	-0.507083	-0.004217	0.002712	0.005654	-0.707031	0.261719	0.319092	0.240959	-0.669879	-0.277580	-0.645098
62483		9.727780	0.344724	-0.484223	-0.001902	0.005640	0.006609	-0.703369	0.258057	0.327148	0.241022	-0.669825	-0.277615	-0.645114
62484		9.733011	0.334082	-0.496027	0.000364	0.006491	0.005819	-0.704834	0.266357	0.323975	0.241017	-0.669809	-0.277581	-0.645148
62485		9.710717	0.336581	-0.534674	0.001215	0.003016	0.003147	-0.705078	0.265381	0.307617	0.241062	-0.669788	-0.277648	-0.645123
62486		9.726212	0.339029	-0.515661	0.002800	0.005531	0.003864	-0.708252	0.259766	0.320801	0.241231	-0.669661	-0.277839	-0.645110
62487		9.731468	0.298270	-0.485566	0.003458	0.000223	0.003384	-0.702881	0.260010	0.320068	0.241270	-0.669632	-0.277941	-0.645082
62488		9.727304	0.322689	-0.475909	0.006605	0.001609	0.005844	-0.701660	0.259277	0.314209	0.241353	-0.669604	-0.278027	-0.645043
62489		9.704444	0.323788	-0.493370	0.008720	0.003224	0.008065	-0.700928	0.262939	0.318115	0.241505	-0.669539	-0.278144	-0.645003
62490		9.705109	0.322673	-0.514488	0.002399	0.002910	0.006395	-0.700195	0.269775	0.318359	0.241585	-0.669512	-0.278205	-0.644975
62491		9.720541	0.355344	-0.538525	0.001955	0.002903	0.004308	-0.702881	0.261230	0.318359	0.241686	-0.669482	-0.278302	-0.644926
62492		9.742029	0.364664	-0.537121	0.000728	0.001300	0.006260	-0.704834	0.266602	0.325439	0.241736	-0.669469	-0.278352	-0.644899
62493		9.728231	0.346178	-0.537637	-0.005745	0.001753	0.007601	-0.704102	0.264893	0.316650	0.241739	-0.669505	-0.278313	-0.644877
62494		9.706594	0.287237	-0.513488	-0.014400	0.000449	0.009149	-0.700928	0.257324	0.320312	0.241719	-0.669542	-0.278252	-0.644873
62495		9.691282	0.282109	-0.530771	-0.009017	0.004774	0.007124	-0.700195	0.263916	0.319336	0.241665	-0.669548	-0.278168	-0.644923
62496		9.719741	0.315178	-0.549597	0.000319	0.004412	0.004071	-0.699219	0.257080	0.323242	0.241709	-0.669516	-0.278217	-0.644919
62497		9.734637	0.347340	-0.551673	-0.001856	0.002134	0.005201	-0.703125	0.262451	0.322021	0.241665	-0.669537	-0.278183	-0.644929
62498		9.739595	0.351634	-0.524381	-0.003342	0.003767	0.007973	-0.702881	0.252930	0.322998	0.241688	-0.669539	-0.278156	-0.644929
62499		9.723725	0.345453	-0.519909	-0.004779	0.001376	0.010265	-0.704834	0.256592	0.317383	0.241645	-0.669579	-0.278062	-0.644945
62500		9.695849	0.354939	-0.523635	-0.008511	0.006326	0.011874	-0.701416	0.261963	0.321045	0.241667	-0.669559	-0.277979	-0.644993
62501		9.712246	0.341622	-0.565682	-0.011968	0.006108	0.008488	-0.705566	0.268799	0.325195	0.241627	-0.669571	-0.277868	-0.645043
62502		9.727758	0.343576	-0.546462	-0.008778	0.003105	0.003526	-0.702393	0.259766	0.319092	0.241583	-0.669592	-0.277837	-0.645051
62503		9.718164	0.331144	-0.498475	-0.010148	0.000856	0.003389	-0.706543	0.263672	0.315674	0.241505	-0.669609	-0.277814	-0.645072
62504		9.728188	0.326960	-0.484311	-0.012334	0.005721	0.004895	-0.701172	0.263916	0.320068	0.241495	-0.669568	-0.277808	-0.645121
62505		9.730027	0.297130	-0.505684	-0.007769	0.005323	0.007014	-0.705078	0.261963	0.328125	0.241495	-0.669565	-0.277760	-0.645145
62506		9.715085	0.308163	-0.504612	-0.005245	0.002936	0.005404	-0.711182	0.260986	0.319824	0.241435	-0.669600	-0.277692	-0.645161
62507		9.721573	0.329652	-0.502912	-0.003769	0.002706	0.007729	-0.703613	0.259521	0.321289	0.241477	-0.669574	-0.277715	-0.645162
62508		9.719589	0.340908	-0.497506	-0.004943	0.002294	0.005403	-0.704590	0.260010	0.321289	0.241450	-0.669580	-0.277698	-0.645174
62509		9.718202	0.353263	-0.513879	-0.003187	0.002997	0.004959	-0.706543	0.262451	0.317139	0.241442	-0.669569	-0.277703	-0.645185
62510		9.734664	0.370965	-0.498892	-0.008244	0.002549	0.011966	-0.697754	0.266113	0.317627	0.241495	-0.669574	-0.277663	-0.645177
62511		9.716872	0.330964	-0.487123	-0.014316	0.000406	0.014559	-0.706299	0.262939	0.316650	0.241503	-0.669656	-0.277525	-0.645149
62512		9.702686	0.295215	-0.505988	-0.014533	0.000141	0.013975	-0.698486	0.268066	0.318848	0.241517	-0.669703	-0.277430	-0.645135
62513		9.731736	0.296983	-0.504851	-0.002864	0.000776	0.007725	-0.707764	0.257080	0.320557	0.241570	-0.669727	-0.277440	-0.645087
62514		9.733159	0.327772	-0.489991	-0.001135	0.003581	0.003593	-0.706055	0.265625	0.314209	0.241568	-0.669685	-0.277484	-0.645112
62515		9.730114	0.368460	-0.483649	-0.008738	0.000474	0.008130	-0.705322	0.265381	0.318115	0.241617	-0.669680	-0.277512	-0.645087
62516		9.698887	0.312958	-0.495289	-0.014654	-0.002081	0.014649	-0.699219	0.265625	0.315186	0.241626	-0.669760	-0.277407	-0.645046
62517		9.723090	0.308189	-0.521277	-0.012084	-0.001875	0.013863	-0.708740	0.257568	0.317871	0.241659	-0.669830	-0.277329	-0.644994
62518		9.726984	0.340350	-0.493844	-0.006960	-0.000406	0.010451	-0.701416	0.259033	0.312500	0.241674	-0.669843	-0.277310	-0.644983
62519		9.746331	0.331212	-0.545678	-0.009348	0.002804	0.006285	-0.708252	0.270020	0.317139	0.241675	-0.669817	-0.277318	-0.645006
62520		9.730824	0.295729	-0.520574	-0.009260	0.001374	0.006623	-0.703613	0.255371	0.320557	0.241721	-0.669809	-0.277352	-0.644983
62521		9.703943	0.276840	-0.526260	-0.006366	-0.001166	0.009524	-0.703369	0.269287	0.319580	0.241682	-0.669855	-0.277292	-0.644976
62522		9.705629	0.292365	-0.551572	-0.004204	0.002693	0.005639	-0.707275	0.266357	0.321533	0.241731	-0.669845	-0.277326	-0.644953
62523		9.723904	0.267047	-0.499233	-0.002411	-0.000626	0.004711	-0.702881	0.263184	0.319092	0.241756	-0.669852	-0.277382	-0.644912
62524		9.744646	0.290548	-0.536640	-0.000761	0.003947	0.007182	-0.707764	0.259766	0.322510	0.241817	-0.669826	-0.277408	-0.644905
62525		9.726710	0.297433	-0.527374	0.005725	0.001909	0.008619	-0.698975	0.271484	0.316895	0.241906	-0.669805	-0.277460	-0.644872
62526		9.721721	0.304435	-0.513838	0.000233	0.000067	0.008438	-0.704834	0.265869	0.311768	0.242023	-0.669813	-0.277524	-0.644792
62527		9.722818	0.318923	-0.517401	-0.002129	0.001173	0.007959	-0.700928	0.266113	0.312012	0.242141	-0.669771	-0.277621	-0.644748
62528		9.725550	0.305287	-0.543219	-0.000552	0.005261	0.005920	-0.708984	0.262695	0.324707	0.242258	-0.669699	-0.277717	-0.644739
62529		9.726067	0.319686	-0.523939	0.004152	0.004627	0.004113	-0.704834	0.259521	0.321289	0.242307	-0.669654	-0.277778	-0.644740
62530		9.726139	0.318602	-0.523268	-0.006097	0.000829	0.004913	-0.703857	0.258057	0.322021	0.242257	-0.669669	-0.277760	-0.644751
62531		9.726597	0.333078	-0.505047	-0.010640	-0.000343	0.005553	-0.695312	0.270508	0.314941	0.242153	-0.669717	-0.277688	-0.644772
62532		9.712242	0.299333	-0.523837	-0.010369	0.002509	0.006959	-0.705078	0.258545	0.315430	0.242175	-0.669734	-0.277668	-0.644755
62533		9.738255	0.298540	-0.513498	-0.009867	0.003710	0.004776	-0.701172	0.263672	0.322998	0.242142	-0.669703	-0.277664	-0.644800
62534		9.731468	0.304765	-0.534463	-0.008463	0.002461	0.003510	-0.701416	0.266846	0.312012	0.242069	-0.669728	-0.277618	-0.644822
62535		9.726469	0.312789	-0.520633	-0.011531	0.001049	0.006472	-0.706299	0.263916	0.329102	0.242092	-0.669723	-0.277639	-0.644809
62536		9.723068	0.292066	-0.529718	-0.013671	0.002416	0.006574	-0.701172	0.258545	0.326904	0.241972	-0.669791	-0.277496	-0.644846
62537		9.726622	0.309841	-0.519534	-0.009037	0.001628	0.007193	-0.696533	0.262939	0.321045	0.241864	-0.669856	-0.277367	-0.644874
62538		9.738296	0.322362	-0.531090	-0.007291	0.003386	0.004913	-0.697266	0.259277	0.320801	0.241815	-0.669878	-0.277312	-0.644893
62539		9.723736	0.303643	-0.509282	-0.013029	0.004778	0.005554	-0.702393	0.267334	0.313721	0.241713	-0.669903	-0.277197	-0.644955
62540		9.700831	0.259990	-0.523905	-0.011022	0.001719	0.005206	-0.701172	0.259766	0.323486	0.241727	-0.669891	-0.277225	-0.644950
62541		9.757067	0.265433	-0.556478	-0.002289	0.002112	0.003109	-0.701904	0.258545	0.316162	0.241680	-0.669899	-0.277219	-0.644962
62542		9.739665	0.334571	-0.531738	-0.000084	0.002277	0.005675	-0.701660	0.266113	0.328857	0.241727	-0.669864	-0.277280	-0.644954
62543		9.708120	0.340822	-0.505681	-0.008736	0.000982	0.007187	-0.708496	0.267090	0.320312	0.241643	-0.669947	-0.277158	-0.644952
62544		9.704699	0.320086	-0.514937	-0.012045	0.001422	0.005883	-0.702637	0.265137	0.324951	0.241617	-0.669961	-0.277136	-0.644957
62545		9.722780	0.310096	-0.522997	-0.011538	0.002098	0.004622	-0.700684	0.263672	0.317627	0.241524	-0.670007	-0.277050	-0.644980
62546		9.735524	0.339391	-0.538467	-0.005064	0.000583	0.005144	-0.700928	0.268066	0.320557	0.241531	-0.670012	-0.277077	-0.644961
62547		9.744392	0.318672	-0.521160	-0.013742	0.001933	0.002054	-0.693115	0.261230	0.319824	0.241443	-0.670039	-0.277037	-0.644983
62548		9.711313	0.293636	-0.509511	-0.016889	0.001415	0.005593	-0.704102	0.267578	0.319092	0.241307	-0.670109	-0.276901	-0.645020
62549		9.704793	0.269638	-0.510369	-0.010128	0.000318	0.004274	-0.700439	0.260010	0.318604	0.241282	-0.670127	-0.276907	-0.645008
62550		9.713379	0.279278	-0.513748	0.000354	0.001948	0.000828	-0.704834	0.254150	0.319092	0.241283	-0.670092	-0.276993	-0.645006
62551		9.744569	0.316303	-0.519286	0.000264	0.003908	-0.000427	-0.702393	0.261963	0.319092	0.241263	-0.670024	-0.277086	-0.645045
62552		9.720710	0.302782	-0.532480	-0.004590	0.005805	0.003458	-0.710449	0.271973	0.323730	0.241268	-0.669981	-0.277106	-0.645079
62553		9.725190	0.291811	-0.523169	-0.002277	0.001048	0.004947	-0.702637	0.263428	0.323486	0.241315	-0.669982	-0.277158	-0.645039
62554		9.694269	0.299202	-0.519100	0.000514	0.000987	0.005672	-0.704102	0.263672	0.314697	0.241333	-0.669996	-0.277174	-0.645010
62555		9.725498	0.335229	-0.524780	0.002987	0.003686	0.002721	-0.694336	0.266113	0.319092	0.241436	-0.669915	-0.277322	-0.644992
62556		9.750156	0.349097	-0.531098	-0.005177	0.005188	-0.000712	-0.706055	0.254639	0.322998	0.241391	-0.669894	-0.277343	-0.645022
62557		9.724538	0.318458	-0.518912	-0.006192	0.003832	0.001805	-0.707275	0.259033	0.316406	0.241306	-0.669874	-0.277331	-0.645080
62558		9.706141	0.311523	-0.527759	-0.006546	0.001884	0.000976	-0.701660	0.261475	0.318848	0.241285	-0.669829	-0.277409	-0.645101
62559		9.721537	0.314008	-0.509485	-0.001607	-0.000605	0.003439	-0.697266	0.263428	0.318115	0.241287	-0.669832	-0.277468	-0.645072
62560		9.730136	0.323662	-0.512804	0.002032	0.003550	0.000977	-0.706787	0.268311	0.323242	0.241316	-0.669792	-0.277555	-0.645065
62561		9.724492	0.347112	-0.537099	-0.000405	0.005558	0.001080	-0.703857	0.255127	0.319092	0.241338	-0.669747	-0.277616	-0.645077
62562		9.713593	0.333878	-0.545554	-0.005679	0.003979	0.001465	-0.707275	0.264893	0.322998	0.241284	-0.669709	-0.277639	-0.645126
62563		9.722827	0.329452	-0.510026	-0.005795	-0.000667	-0.001115	-0.703857	0.263672	0.318848	0.241210	-0.669719	-0.277691	-0.645122
62564		9.735352	0.314340	-0.523369	-0.006685	0.000725	-0.000191	-0.704102	0.265381	0.313477	0.241161	-0.669710	-0.277748	-0.645125
