// Start Time: Unknown
// Update Rate: 40.0Hz
// Filter Profile: human (46.1)
// Firmware Version: 4.6.0
PacketCounter	SampleTimeFine	Acc_X	Acc_Y	Acc_Z	Gyr_X	Gyr_Y	Gyr_Z	Mag_X	Mag_Y	Mag_Z	Quat_q0	Quat_q1	Quat_q2	Quat_q3
61647		9.712322	-0.502390	-1.075817	0.008258	0.001294	0.007546	-0.625732	0.379883	0.370850	0.288273	-0.687527	-0.286865	-0.601592
61648		9.715642	-0.515999	-1.068541	0.003971	0.004055	0.006894	-0.625000	0.379883	0.369141	0.288374	-0.687507	-0.286821	-0.601588
61649		9.713540	-0.501624	-1.052565	0.008122	0.004577	0.004062	-0.625000	0.383789	0.359131	0.288492	-0.687457	-0.286831	-0.601584
61650		9.723012	-0.500436	-1.053059	0.006911	-0.001596	0.002401	-0.633057	0.379395	0.364258	0.288564	-0.687452	-0.286868	-0.601538
61651		9.721444	-0.498825	-1.062513	0.005957	-0.000179	0.003538	-0.628174	0.380127	0.357910	0.288641	-0.687443	-0.286882	-0.601504
61652		9.717090	-0.468361	-1.032853	0.007460	-0.000692	0.005564	-0.620361	0.378418	0.361084	0.288745	-0.687439	-0.286893	-0.601454
61653		9.714823	-0.454163	-1.018459	0.000837	-0.003373	0.007378	-0.633545	0.382568	0.358154	0.288794	-0.687480	-0.286849	-0.601404
61654		9.719462	-0.501390	-1.073769	0.001126	-0.008853	0.009669	-0.625000	0.377441	0.359619	0.288841	-0.687561	-0.286811	-0.601307
61655		9.709309	-0.499221	-1.062975	-0.000549	-0.009623	0.009671	-0.624512	0.379150	0.362549	0.288869	-0.687655	-0.286764	-0.601209
61656		9.709568	-0.514946	-1.089205	-0.005158	-0.007149	0.010316	-0.617188	0.388672	0.360107	0.288870	-0.687747	-0.286669	-0.601148
61657		9.723517	-0.529440	-1.076384	0.000402	-0.009830	0.010456	-0.626465	0.387695	0.350830	0.288913	-0.687843	-0.286624	-0.601040
61658		9.715810	-0.549893	-1.092111	0.001618	-0.005466	0.009229	-0.623291	0.380859	0.360352	0.288976	-0.687894	-0.286582	-0.600971
61659		9.699604	-0.561013	-1.073157	-0.000133	-0.007849	0.005499	-0.616699	0.378174	0.348633	0.288985	-0.687964	-0.286561	-0.600896
61660		9.718882	-0.571303	-1.100908	0.002665	-0.006006	0.004255	-0.619873	0.388428	0.360352	0.289029	-0.688007	-0.286558	-0.600827
61661		9.719442	-0.530716	-1.101291	0.004036	-0.003846	0.001832	-0.626221	0.384521	0.355225	0.289082	-0.688029	-0.286572	-0.600770
61662		9.700087	-0.528861	-1.088037	0.006986	-0.003000	0.001317	-0.619141	0.388184	0.357666	0.289157	-0.688027	-0.286612	-0.600717
61663		9.729633	-0.519096	-1.070173	0.005863	-0.002864	0.004483	-0.620361	0.391113	0.348145	0.289249	-0.688049	-0.286614	-0.600646
61664		9.723011	-0.527414	-1.051680	0.004492	-0.006832	0.004021	-0.623047	0.390137	0.362305	0.289326	-0.688089	-0.286624	-0.600558
61665		9.718539	-0.527707	-1.092918	0.002836	-0.003513	0.004153	-0.618652	0.383545	0.364014	0.289387	-0.688120	-0.286608	-0.600502
61666		9.722257	-0.553971	-1.111356	0.001161	-0.003679	0.005118	-0.625000	0.381348	0.354736	0.289417	-0.688170	-0.286576	-0.600445
61667		9.717477	-0.571401	-1.095227	0.003560	-0.002532	0.003363	-0.620850	0.378418	0.360596	0.289468	-0.688176	-0.286575	-0.600413
61668		9.697874	-0.562938	-1.069649	0.001180	-0.002005	0.001399	-0.628662	0.395508	0.358154	0.289468	-0.688201	-0.286567	-0.600389
61669		9.703166	-0.590687	-1.078737	0.001806	-0.004917	-0.000365	-0.620605	0.381836	0.360840	0.289517	-0.688224	-0.286578	-0.600334
61670		9.696455	-0.567107	-1.092598	0.000475	-0.001313	-0.001531	-0.625488	0.385010	0.364258	0.289508	-0.688239	-0.286575	-0.600322
61671		9.712614	-0.564109	-1.125648	0.001826	-0.002036	-0.002160	-0.616943	0.385254	0.363525	0.289510	-0.688255	-0.286589	-0.600296
61672		9.701847	-0.593478	-1.101520	0.006298	-0.000633	-0.005334	-0.623291	0.386963	0.366211	0.289531	-0.688257	-0.286652	-0.600254
61673		9.722156	-0.583325	-1.082036	0.004164	0.000376	-0.009443	-0.620850	0.383789	0.364258	0.289511	-0.688244	-0.286729	-0.600242
61674		9.711541	-0.587612	-1.102568	0.012348	-0.002346	-0.009485	-0.626465	0.383545	0.354248	0.289543	-0.688219	-0.286879	-0.600184
61675		9.704148	-0.541953	-1.079758	0.009491	-0.001111	-0.010881	-0.623291	0.389648	0.359863	0.289580	-0.688137	-0.287022	-0.600191
61676		9.710105	-0.519282	-1.075441	0.009245	-0.001591	-0.008736	-0.619141	0.390137	0.368652	0.289643	-0.688103	-0.287132	-0.600147
61677		9.732420	-0.524994	-1.071359	0.006524	-0.003628	-0.006643	-0.618164	0.377930	0.359131	0.289657	-0.688152	-0.287207	-0.600048
61678		9.709441	-0.557574	-1.077254	0.004145	-0.001897	-0.006684	-0.629883	0.388184	0.353760	0.289606	-0.688141	-0.287286	-0.600048
61679		9.697225	-0.559831	-1.107481	-0.001109	-0.002418	-0.007285	-0.626221	0.389893	0.356201	0.289605	-0.688090	-0.287330	-0.600085
61680		9.723555	-0.535609	-1.096503	-0.000004	-0.004828	-0.007692	-0.628174	0.395020	0.361084	0.289607	-0.688081	-0.287385	-0.600069
61681		9.700608	-0.567338	-1.102696	-0.006194	-0.002261	-0.010875	-0.625977	0.388428	0.356934	0.289560	-0.688086	-0.287407	-0.600075
61682		9.701847	-0.615159	-1.106752	-0.003568	-0.002299	-0.011056	-0.624756	0.386230	0.363525	0.289501	-0.688061	-0.287459	-0.600107
61683		9.711479	-0.609490	-1.108262	-0.000530	-0.001778	-0.017333	-0.615967	0.382568	0.356934	0.289377	-0.688044	-0.287586	-0.600125
61684		9.704450	-0.568175	-1.097422	0.001234	0.000478	-0.020212	-0.627686	0.383789	0.357910	0.289256	-0.687994	-0.287724	-0.600175
61685		9.723999	-0.510974	-1.086535	0.001786	0.000181	-0.018974	-0.624023	0.379150	0.362305	0.289160	-0.687901	-0.287881	-0.600253
61686		9.750238	-0.555630	-1.043076	0.017052	-0.005226	-0.022500	-0.627197	0.393799	0.356201	0.289071	-0.687825	-0.288205	-0.600227
61687		9.677215	-0.495571	-1.139831	-0.010484	-0.001921	-0.015370	-0.624756	0.383545	0.353516	0.289018	-0.687798	-0.288222	-0.600276
61688		9.730884	-0.490687	-1.107727	0.005516	0.000156	-0.015716	-0.622314	0.386230	0.358154	0.289004	-0.687681	-0.288375	-0.600342
61689		9.695777	-0.542230	-1.085600	-0.006818	0.001726	-0.013794	-0.623535	0.385742	0.360352	0.288908	-0.687657	-0.288405	-0.600401
61690		9.717561	-0.508961	-1.101785	-0.001975	-0.001919	-0.012867	-0.625000	0.386963	0.357666	0.288831	-0.687658	-0.288480	-0.600402
61691		9.726219	-0.483679	-1.067002	0.000729	-0.001548	-0.011241	-0.620605	0.382812	0.359619	0.288828	-0.687620	-0.288562	-0.600407
61692		9.700386	-0.510440	-1.091182	-0.004923	-0.000367	-0.008503	-0.621338	0.378906	0.359131	0.288731	-0.687644	-0.288570	-0.600423
61693		9.717070	-0.536219	-1.091059	-0.001499	0.000988	-0.007667	-0.625977	0.384277	0.362793	0.288622	-0.687637	-0.288602	-0.600468
61694		9.717808	-0.547561	-1.115124	-0.000147	-0.000330	-0.009257	-0.625000	0.385254	0.359131	0.288559	-0.687637	-0.288663	-0.600468
61695		9.714221	-0.526980	-1.109587	0.005027	0.000402	-0.009504	-0.626953	0.384521	0.360596	0.288590	-0.687586	-0.288758	-0.600467
61696		9.730021	-0.532263	-1.073190	0.003198	0.000022	-0.011190	-0.625732	0.380859	0.359375	0.288567	-0.687540	-0.288863	-0.600480
61697		9.705649	-0.506375	-1.063096	0.004152	-0.001387	-0.012328	-0.622559	0.383545	0.366943	0.288494	-0.687491	-0.288993	-0.600509
61698		9.705106	-0.521549	-1.109185	0.003746	-0.003761	-0.009116	-0.630371	0.394531	0.356445	0.288413	-0.687578	-0.289077	-0.600407
61699		9.703321	-0.510120	-1.106772	0.004071	0.000617	-0.010289	-0.620117	0.377930	0.359863	0.288605	-0.687468	-0.289157	-0.600402
61700		9.725140	-0.501516	-1.078154	0.002158	-0.001850	-0.010062	-0.620850	0.379883	0.359863	0.288483	-0.687485	-0.289240	-0.600402
61701		9.717967	-0.517165	-1.092270	0.002876	-0.000863	-0.010853	-0.630127	0.380371	0.359619	0.288399	-0.687485	-0.289327	-0.600400
61702		9.710794	-0.532937	-1.106393	0.004862	-0.002076	-0.009398	-0.624512	0.380615	0.354492	0.288342	-0.687414	-0.289462	-0.600443
61703		9.707636	-0.542650	-1.068614	0.003908	-0.002467	-0.011144	-0.633789	0.384521	0.359131	0.288330	-0.687332	-0.289582	-0.600486
61704		9.709925	-0.555791	-1.084016	0.005182	-0.002982	-0.012619	-0.619385	0.385010	0.364502	0.288327	-0.687226	-0.289753	-0.600526
61705		9.703865	-0.494690	-1.109010	0.003990	-0.000978	-0.014019	-0.617676	0.375244	0.356934	0.288286	-0.687293	-0.289842	-0.600425
61706		9.720687	-0.518968	-1.109116	0.007412	-0.001416	-0.016068	-0.625732	0.393311	0.355713	0.288161	-0.687259	-0.290000	-0.600448
61707		9.703534	-0.474307	-1.085120	0.008206	0.000577	-0.014091	-0.623291	0.385254	0.353516	0.288410	-0.687147	-0.290129	-0.600395
61708		9.720005	-0.492581	-1.073147	0.000962	-0.002724	-0.009663	-0.625977	0.375488	0.363037	0.288491	-0.687090	-0.290192	-0.600391
61709		9.715418	-0.530719	-1.114246	0.004543	-0.001271	-0.012780	-0.625732	0.385986	0.360352	0.288285	-0.687086	-0.290334	-0.600425
61710		9.700791	-0.509025	-1.117000	0.007646	0.001486	-0.014368	-0.625977	0.380615	0.359619	0.288347	-0.687022	-0.290476	-0.600400
61711		9.705101	-0.482977	-1.121260	0.008121	0.002586	-0.012054	-0.619873	0.379639	0.363770	0.288337	-0.686943	-0.290613	-0.600428
61712		9.722828	-0.449015	-1.074554	0.007564	0.000604	-0.010532	-0.622559	0.374512	0.360352	0.288269	-0.687000	-0.290706	-0.600352
61713		9.723358	-0.501966	-1.099036	0.004299	0.000643	-0.006791	-0.621582	0.376953	0.366699	0.288135	-0.687006	-0.290774	-0.600376
61714		9.706139	-0.507424	-1.087398	0.007720	0.001410	-0.006918	-0.630615	0.381348	0.354004	0.288007	-0.687092	-0.290839	-0.600308
61715		9.699639	-0.489402	-1.112417	0.004379	-0.000153	-0.006906	-0.622803	0.379639	0.358643	0.288085	-0.686943	-0.290950	-0.600387
61716		9.721891	-0.536156	-1.108104	0.006208	0.001919	-0.008942	-0.618164	0.380859	0.359619	0.288085	-0.686908	-0.291032	-0.600388
61717		9.731076	-0.476785	-1.083738	0.005968	0.003115	-0.010520	-0.627197	0.382812	0.361572	0.288095	-0.686921	-0.291083	-0.600343
61718		9.719891	-0.467586	-1.079437	0.003185	0.001249	-0.009269	-0.616943	0.385742	0.369141	0.288085	-0.686904	-0.291155	-0.600332
61719		9.699739	-0.515768	-1.098779	0.000795	0.003563	-0.008351	-0.629395	0.391357	0.364014	0.288041	-0.687092	-0.291099	-0.600165
61720		9.699560	-0.506982	-1.086146	0.001037	0.001170	-0.008695	-0.626221	0.381592	0.359131	0.288144	-0.687109	-0.291116	-0.600088
61721		9.715130	-0.488720	-1.094234	0.001273	0.002862	-0.008918	-0.619629	0.377441	0.358643	0.288136	-0.687057	-0.291168	-0.600127
61722		9.731344	-0.500753	-1.069638	0.002472	-0.000335	-0.009437	-0.620850	0.382080	0.342773	0.288060	-0.687075	-0.291224	-0.600115
61723		9.722424	-0.507388	-1.080308	0.001988	0.003254	-0.010671	-0.628906	0.374023	0.361572	0.288276	-0.686838	-0.291286	-0.600253
61724		9.717538	-0.490958	-1.095778	-0.000235	0.000485	-0.009142	-0.623535	0.383789	0.359131	0.288060	-0.686814	-0.291376	-0.600340
61725		9.699981	-0.488813	-1.072365	0.000164	-0.000018	-0.010555	-0.629150	0.382080	0.358154	0.288075	-0.686819	-0.291416	-0.600308
61726		9.719354	-0.488639	-1.086366	-0.003259	0.000410	-0.008508	-0.631836	0.377686	0.357666	0.288051	-0.686769	-0.291454	-0.600358
61727		9.710042	-0.488755	-1.085181	0.001433	0.001273	-0.009147	-0.621582	0.383057	0.361328	0.287982	-0.686656	-0.291562	-0.600468
61728		9.727126	-0.472903	-1.084164	-0.002863	0.001106	-0.008000	-0.630371	0.374756	0.366455	0.287962	-0.686725	-0.291538	-0.600410
61729		9.714204	-0.502924	-1.089959	0.002226	0.002067	-0.009093	-0.632324	0.381592	0.360596	0.287745	-0.686735	-0.291637	-0.600454
61730		9.702972	-0.493879	-1.085898	0.005014	0.000454	-0.009503	-0.625732	0.383057	0.352051	0.287755	-0.686656	-0.291759	-0.600481
61731		9.712145	-0.482528	-1.074937	0.005180	-0.001739	-0.010692	-0.620850	0.372070	0.367920	0.287891	-0.686541	-0.291865	-0.600496
61732		9.714185	-0.489363	-1.077858	0.002470	-0.000324	-0.009436	-0.627197	0.380859	0.363037	0.287608	-0.686684	-0.291914	-0.600444
61733		9.729604	-0.512105	-1.086909	-0.000875	0.000992	-0.011226	-0.625244	0.383057	0.364502	0.287523	-0.686700	-0.291966	-0.600441
61734		9.723526	-0.499380	-1.123782	0.005803	0.002346	-0.014131	-0.633545	0.382324	0.360840	0.287507	-0.686713	-0.292062	-0.600387
61735		9.730883	-0.477852	-1.109254	0.007868	0.003233	-0.014590	-0.620361	0.382568	0.350586	0.287536	-0.686578	-0.292238	-0.600442
61736		9.696926	-0.470754	-1.040552	0.015114	0.000804	-0.015414	-0.635986	0.380371	0.356201	0.287749	-0.686431	-0.292408	-0.600425
61737		9.710108	-0.459956	-1.091401	0.005403	0.002255	-0.013678	-0.626953	0.385498	0.365723	0.287771	-0.686237	-0.292588	-0.600549
61738		9.713023	-0.438578	-1.117343	0.012968	-0.000369	-0.010157	-0.622559	0.386475	0.358398	0.287874	-0.686270	-0.292720	-0.600398
61739		9.727300	-0.441492	-1.090067	0.004050	0.001869	-0.008368	-0.624268	0.380615	0.364502	0.288019	-0.686275	-0.292732	-0.600317
61740		9.729397	-0.465670	-1.035432	0.002941	0.000780	-0.007123	-0.636475	0.377686	0.358398	0.287986	-0.686346	-0.292770	-0.600233
61741		9.709849	-0.479757	-1.066634	0.001191	0.000788	-0.007003	-0.629883	0.376709	0.360596	0.287938	-0.686226	-0.292878	-0.600340
61742		9.707189	-0.479974	-1.097285	0.005254	-0.000724	-0.007924	-0.627197	0.382080	0.359375	0.287882	-0.686190	-0.292991	-0.600352
61743		9.714722	-0.466860	-1.095635	0.003979	-0.000219	-0.006451	-0.627930	0.382568	0.362305	0.287940	-0.686181	-0.293038	-0.600312
61744		9.732908	-0.488544	-1.074022	0.003023	-0.000016	-0.007237	-0.626221	0.382812	0.357666	0.287964	-0.686199	-0.293090	-0.600255
61745		9.710123	-0.473152	-1.067098	0.003042	-0.004101	-0.007352	-0.625244	0.388428	0.359619	0.288020	-0.686210	-0.293140	-0.600192
61746		9.716512	-0.505612	-1.087558	0.003256	0.001081	-0.008422	-0.625488	0.377686	0.359619	0.288170	-0.686215	-0.293155	-0.600106
61747		9.702717	-0.439827	-1.068816	0.009160	-0.002925	-0.005853	-0.626465	0.373535	0.356689	0.288185	-0.686220	-0.293255	-0.600043
61748		9.725134	-0.445745	-1.064629	0.007801	-0.001623	-0.004266	-0.622070	0.383301	0.363770	0.288157	-0.686179	-0.293344	-0.600061
61749		9.738512	-0.460888	-1.071539	0.003594	-0.003203	-0.004193	-0.631592	0.376221	0.367188	0.288200	-0.686299	-0.293351	-0.599900
61750		9.708173	-0.458142	-1.066676	0.003439	-0.003898	-0.001201	-0.623291	0.377441	0.355225	0.288108	-0.686368	-0.293434	-0.599824
61751		9.699028	-0.466876	-1.078910	-0.002515	-0.006071	-0.001966	-0.622803	0.377197	0.363281	0.288079	-0.686419	-0.293404	-0.599795
61752		9.708414	-0.505590	-1.081656	0.003522	-0.004695	-0.001315	-0.629883	0.382324	0.349365	0.288037	-0.686532	-0.293418	-0.599679
61753		9.721625	-0.479963	-1.088606	0.002564	-0.003894	-0.001141	-0.623535	0.379395	0.361328	0.288201	-0.686427	-0.293427	-0.599716
61754		9.703335	-0.415277	-1.110319	0.004060	-0.000909	0.000038	-0.621094	0.375244	0.365479	0.288241	-0.686487	-0.293414	-0.599634
61755		9.710774	-0.421212	-1.052132	0.006461	-0.003703	0.004767	-0.625977	0.379150	0.361328	0.288217	-0.686639	-0.293392	-0.599482
61756		9.622800	-0.065115	-0.854543	-0.019035	-0.008788	0.021645	-0.624512	0.378662	0.364746	0.288184	-0.686892	-0.293068	-0.599367
61757		9.626370	-0.025864	-0.805839	-0.096196	-0.022453	0.058913	-0.618408	0.388916	0.362793	0.287676	-0.687701	-0.291893	-0.599256
61758		9.847485	-0.509298	-1.319963	-0.104554	-0.028595	0.093772	-0.620117	0.380615	0.364258	0.287524	-0.688736	-0.290296	-0.598917
61759		9.742874	0.249315	-1.369134	-0.085282	-0.021351	0.118020	-0.625488	0.388916	0.364746	0.287601	-0.689690	-0.288671	-0.598567
61760		9.800119	-1.206330	-1.485709	-0.063483	0.007701	0.111750	-0.619629	0.382568	0.359375	0.288034	-0.690265	-0.287176	-0.598415
61761		9.725510	-0.914860	-0.988197	-0.020532	0.015352	0.077797	-0.626221	0.388428	0.368652	0.288544	-0.690480	-0.286259	-0.598360
61762		9.655752	-1.141492	-1.153898	-0.026033	0.013254	0.045362	-0.627441	0.377197	0.365723	0.288757	-0.690654	-0.285626	-0.598360
61763		9.621998	-1.217478	-1.246098	0.012373	0.016450	-0.005114	-0.621582	0.384033	0.365479	0.288781	-0.690425	-0.285755	-0.598551
61764		9.656928	-0.989825	-1.094661	0.026018	0.020211	-0.044166	-0.625488	0.378906	0.367676	0.288755	-0.690047	-0.286235	-0.598769
61765		9.796270	-0.713258	-1.009498	0.027783	0.028082	-0.063834	-0.614746	0.379639	0.368164	0.288535	-0.689527	-0.286909	-0.599152
61766		9.763905	-0.708006	-1.162781	0.045524	0.028932	-0.072825	-0.624023	0.382080	0.360107	0.288413	-0.689021	-0.287700	-0.599413
61767		9.772794	-0.528554	-1.103002	0.053863	0.025847	-0.077778	-0.614258	0.379150	0.361328	0.288430	-0.688342	-0.288649	-0.599729
61768		9.647891	-0.368136	-1.006326	0.056293	0.025329	-0.068361	-0.627686	0.387695	0.360352	0.288477	-0.687808	-0.289469	-0.599925
61769		9.764651	-0.187239	-0.853419	0.029617	0.016431	-0.048482	-0.623291	0.375244	0.356934	0.288552	-0.687405	-0.290005	-0.600092
61770		9.724654	-0.362671	-0.993944	0.012501	0.008794	-0.028183	-0.627441	0.376465	0.365234	0.288445	-0.687188	-0.290281	-0.600257
61771		9.672936	-0.338776	-1.059794	0.021546	0.008148	-0.012183	-0.620605	0.386963	0.367188	0.288486	-0.687058	-0.290512	-0.600275
61772		9.717012	-0.421578	-1.025879	0.010400	0.003731	0.004209	-0.621094	0.385986	0.362061	0.288666	-0.687161	-0.290442	-0.600105
61773		9.746333	-0.495164	-1.008189	0.003092	-0.001710	0.010542	-0.625488	0.380859	0.362305	0.288836	-0.687292	-0.290291	-0.599946
61774		9.754138	-0.559094	-1.076723	0.003801	-0.000116	0.010712	-0.626465	0.388916	0.363770	0.288945	-0.687359	-0.290199	-0.599860
61775		9.686406	-0.575436	-1.078790	0.013416	0.003319	0.009222	-0.625977	0.384766	0.353760	0.289234	-0.687379	-0.290150	-0.599722
61776		9.722418	-0.541936	-1.033986	0.017884	-0.000994	0.009655	-0.622803	0.378418	0.362305	0.289563	-0.687316	-0.290156	-0.599633
61777		9.748134	-0.562922	-1.022978	0.001268	-0.002691	0.007895	-0.627686	0.383545	0.354492	0.289570	-0.687418	-0.290078	-0.599550
61778		9.651210	-0.637574	-1.057014	0.014079	-0.001974	0.003626	-0.626953	0.386719	0.359375	0.289790	-0.687342	-0.290135	-0.599504
61779		9.670581	-0.558050	-1.070209	0.016624	-0.001788	0.002603	-0.624512	0.385742	0.367920	0.290026	-0.687310	-0.290207	-0.599391
61780		9.677077	-0.575577	-1.045130	0.026330	-0.002638	0.001840	-0.621094	0.377197	0.353271	0.290256	-0.687345	-0.290363	-0.599164
61781		9.749714	-0.576556	-1.026752	0.013206	-0.000871	-0.000999	-0.627686	0.387695	0.356201	0.290340	-0.687284	-0.290429	-0.599161
61782		9.741385	-0.640175	-1.062699	0.011950	-0.003965	-0.005285	-0.626465	0.379883	0.361328	0.290494	-0.687224	-0.290544	-0.599100
61783		9.698612	-0.592760	-1.075408	0.022618	-0.006815	-0.008139	-0.631104	0.384033	0.355713	0.290562	-0.687182	-0.290801	-0.598990
61784		9.704499	-0.511633	-1.026303	0.026503	-0.004925	-0.005951	-0.633301	0.380859	0.362793	0.290787	-0.687037	-0.291072	-0.598916
61785		9.740071	-0.616470	-1.029546	0.012746	-0.004364	-0.007149	-0.613281	0.388916	0.349854	0.290792	-0.686977	-0.291284	-0.598879
61786		9.720078	-0.623549	-1.049763	0.015057	-0.004184	-0.011672	-0.617188	0.379883	0.360352	0.290969	-0.686951	-0.291371	-0.598781
61787		9.674322	-0.528644	-1.080505	0.014894	-0.003184	-0.012406	-0.622314	0.377686	0.360840	0.290940	-0.686969	-0.291520	-0.598702
61788		9.713888	-0.501397	-1.031675	0.013660	-0.014339	-0.010301	-0.623779	0.380371	0.357178	0.290848	-0.687042	-0.291725	-0.598563
61789		9.753378	-0.540906	-1.041432	0.007200	-0.009918	-0.007519	-0.629639	0.387939	0.356689	0.290808	-0.687070	-0.291845	-0.598492
61790		9.715896	-0.596676	-1.051764	0.009495	-0.007332	-0.008208	-0.617676	0.384766	0.348389	0.290907	-0.687022	-0.292000	-0.598423
61791		9.673008	-0.507674	-1.064614	0.010757	-0.005432	-0.005845	-0.620605	0.375977	0.368164	0.291049	-0.686982	-0.292062	-0.598369
61792		9.705479	-0.483776	-1.086570	0.000285	-0.011170	-0.001507	-0.623047	0.389160	0.361084	0.290833	-0.687191	-0.292062	-0.598234
61793		9.726766	-0.601367	-1.061556	-0.000748	-0.011854	0.001545	-0.622070	0.385742	0.357666	0.290873	-0.687342	-0.292022	-0.598061
61794		9.724943	-0.598921	-1.073240	0.005516	-0.007697	-0.002719	-0.625732	0.382080	0.358887	0.290931	-0.687392	-0.292056	-0.597959
61795		9.707117	-0.598269	-1.051587	0.007899	-0.007113	-0.005439	-0.624512	0.383301	0.360596	0.290938	-0.687395	-0.292165	-0.597899
61796		9.692048	-0.578594	-1.056475	-0.002906	-0.008580	-0.005334	-0.629395	0.385254	0.361572	0.290849	-0.687474	-0.292185	-0.597841
61797		9.689543	-0.585704	-1.101298	-0.004893	-0.008584	-0.008712	-0.630859	0.383301	0.370361	0.290746	-0.687517	-0.292250	-0.597810
61798		9.715762	-0.608353	-1.104563	0.001005	-0.012692	-0.012738	-0.624756	0.384521	0.369141	0.290567	-0.687615	-0.292425	-0.597699
61799		9.706988	-0.554844	-1.072650	0.004172	-0.010108	-0.013491	-0.613770	0.380859	0.355713	0.290441	-0.687716	-0.292571	-0.597572
61800		9.690445	-0.572136	-1.087374	-0.001485	-0.007308	-0.014485	-0.622803	0.388184	0.348633	0.290300	-0.687783	-0.292595	-0.597553
61801		9.693652	-0.573227	-1.070358	-0.000776	-0.006312	-0.015280	-0.623535	0.387451	0.367432	0.290329	-0.687707	-0.292685	-0.597582
61802		9.726215	-0.546344	-1.092313	-0.001320	-0.008896	-0.014708	-0.619873	0.386230	0.361084	0.290206	-0.687809	-0.292778	-0.597479
61803		9.699909	-0.558949	-1.093720	-0.003403	-0.005702	-0.014139	-0.616455	0.386475	0.357178	0.290106	-0.687869	-0.292813	-0.597441
61804		9.724875	-0.502316	-1.117018	-0.003863	-0.009083	-0.013680	-0.629883	0.390381	0.364258	0.290019	-0.687952	-0.292827	-0.597381
61805		9.744757	-0.565877	-1.088216	0.004629	-0.006701	-0.013953	-0.618896	0.380615	0.358398	0.290037	-0.687939	-0.292989	-0.597307
61806		9.699926	-0.548751	-1.098724	0.002069	-0.004010	-0.014734	-0.617432	0.388184	0.362549	0.289936	-0.687942	-0.293067	-0.597314
61807		9.678775	-0.534095	-1.082959	0.006126	-0.004307	-0.013739	-0.615723	0.388184	0.366943	0.289945	-0.687987	-0.293144	-0.597220
61808		9.684792	-0.558346	-1.092320	-0.000138	-0.007388	-0.014152	-0.619385	0.375000	0.361572	0.289856	-0.688123	-0.293180	-0.597089
61809		9.714695	-0.549976	-1.087703	0.000009	-0.006094	-0.016186	-0.623291	0.381104	0.366943	0.289639	-0.688155	-0.293283	-0.597107
61810		9.740844	-0.564141	-1.077839	0.011212	-0.006294	-0.019634	-0.624023	0.379395	0.358887	0.289544	-0.688152	-0.293514	-0.597043
61811		9.726711	-0.554834	-1.106049	0.001343	-0.004500	-0.019582	-0.621826	0.382080	0.358154	0.289405	-0.688101	-0.293669	-0.597093
61812		9.710193	-0.529234	-1.119444	0.009129	-0.004891	-0.021939	-0.624023	0.385742	0.355713	0.289349	-0.688032	-0.293879	-0.597096
61813		9.689471	-0.519855	-1.115926	0.007150	-0.005980	-0.020627	-0.629150	0.388916	0.364746	0.289346	-0.687952	-0.294073	-0.597094
61814		9.696567	-0.496769	-1.103623	0.002776	-0.005382	-0.019362	-0.625000	0.383301	0.354004	0.289309	-0.687923	-0.294255	-0.597056
61815		9.701414	-0.558650	-1.122520	0.002777	-0.005975	-0.020320	-0.616699	0.380615	0.361328	0.289252	-0.687842	-0.294418	-0.597097
61816		9.709809	-0.496341	-1.100714	0.006272	-0.005964	-0.020566	-0.625732	0.384277	0.357910	0.289138	-0.687862	-0.294562	-0.597058
61817		9.704246	-0.471259	-1.105549	0.002031	-0.001092	-0.016545	-0.626709	0.373047	0.368408	0.289117	-0.687786	-0.294677	-0.597099
61818		9.718683	-0.472020	-1.079018	0.004033	-0.002876	-0.016045	-0.624023	0.383789	0.354980	0.288917	-0.687781	-0.294835	-0.597123
61819		9.726111	-0.550718	-1.111945	0.000538	-0.003478	-0.016756	-0.618164	0.392090	0.363525	0.288888	-0.687719	-0.294936	-0.597159
61820		9.702530	-0.510046	-1.150450	-0.002878	-0.003087	-0.014704	-0.621582	0.382568	0.367432	0.288888	-0.687785	-0.294949	-0.597076
61821		9.712813	-0.492518	-1.119306	-0.001745	-0.006065	-0.016059	-0.620850	0.379883	0.352051	0.288748	-0.687860	-0.295030	-0.597018
61822		9.722237	-0.520741	-1.110354	0.002009	-0.008437	-0.016641	-0.627441	0.381592	0.362061	0.288677	-0.687831	-0.295132	-0.597035
61823		9.722258	-0.516506	-1.112141	-0.000559	-0.006351	-0.018379	-0.628174	0.377686	0.366211	0.288559	-0.687814	-0.295275	-0.597041
61824		9.724352	-0.486624	-1.127830	-0.002568	-0.003968	-0.017920	-0.624268	0.377441	0.360596	0.288373	-0.687809	-0.295402	-0.597074
61825		9.709354	-0.498689	-1.120003	-0.005588	-0.003481	-0.016322	-0.627686	0.371094	0.362305	0.288197	-0.687806	-0.295457	-0.597135
61826		9.712669	-0.464670	-1.113964	-0.001218	-0.003460	-0.016632	-0.629639	0.380859	0.363037	0.287981	-0.687772	-0.295572	-0.597222
61827		9.708247	-0.495016	-1.143873	-0.001315	-0.010020	-0.016617	-0.625244	0.377197	0.359131	0.287862	-0.687782	-0.295719	-0.597195
61828		9.716814	-0.474989	-1.122574	0.004107	-0.003630	-0.016159	-0.624512	0.380615	0.363281	0.287790	-0.687729	-0.295848	-0.597227
61829		9.704558	-0.451215	-1.095781	0.007068	-0.004416	-0.012960	-0.625244	0.381348	0.363037	0.287783	-0.687719	-0.295970	-0.597181
61830		9.715706	-0.473517	-1.145336	0.001555	-0.000271	-0.009378	-0.621582	0.380615	0.364014	0.287783	-0.687705	-0.296011	-0.597177
61831		9.722894	-0.487292	-1.119747	0.007328	0.001751	-0.011284	-0.623291	0.377441	0.368896	0.287805	-0.687680	-0.296080	-0.597161
61832		9.701087	-0.432511	-1.103047	0.003035	-0.004639	-0.008304	-0.622559	0.377686	0.361328	0.287728	-0.687750	-0.296127	-0.597094
61833		9.721274	-0.480778	-1.130566	0.002249	-0.005438	-0.008354	-0.622314	0.377441	0.363525	0.287683	-0.687781	-0.296162	-0.597062
61834		9.717675	-0.501842	-1.126620	0.006445	-0.004417	-0.009401	-0.632080	0.384277	0.363525	0.287657	-0.687802	-0.296232	-0.597017
61835		9.709782	-0.470072	-1.128639	0.005306	-0.001443	-0.008046	-0.623291	0.388184	0.359375	0.287740	-0.687743	-0.296335	-0.596993
61836		9.728601	-0.463153	-1.131335	0.000634	-0.003553	-0.009306	-0.627686	0.378174	0.361328	0.287816	-0.687748	-0.296363	-0.596938
61837		9.693385	-0.514383	-1.118350	0.005835	-0.000039	-0.010537	-0.623535	0.375977	0.360596	0.287819	-0.687683	-0.296453	-0.596966
61838		9.723569	-0.478942	-1.136105	-0.001152	-0.001269	-0.011952	-0.636475	0.378174	0.357910	0.287717	-0.687672	-0.296479	-0.597014
61839		9.716746	-0.469565	-1.092679	0.006799	-0.001418	-0.011669	-0.624268	0.376465	0.362061	0.287748	-0.687531	-0.296640	-0.597082
61840		9.719541	-0.455410	-1.131546	0.003168	-0.002738	-0.009382	-0.620361	0.377686	0.360840	0.287699	-0.687531	-0.296686	-0.597082
61841		9.683913	-0.499908	-1.106847	0.005397	-0.003416	-0.010073	-0.621094	0.375000	0.363525	0.287677	-0.687545	-0.296734	-0.597054
61842		9.697615	-0.513243	-1.113399	0.007320	0.001177	-0.012245	-0.626953	0.380371	0.363037	0.287629	-0.687521	-0.296800	-0.597071
61843		9.714524	-0.496210	-1.112177	0.006009	0.003957	-0.013542	-0.624756	0.378418	0.364990	0.287648	-0.687434	-0.296900	-0.597112
61844		9.713693	-0.469875	-1.156693	0.001599	0.000646	-0.013218	-0.619141	0.380615	0.364258	0.287584	-0.687418	-0.296960	-0.597132
61845		9.705257	-0.457757	-1.122194	0.006450	-0.000009	-0.014097	-0.619629	0.375244	0.361572	0.287572	-0.687419	-0.297033	-0.597100
61846		9.716953	-0.461347	-1.125483	0.004433	0.002956	-0.012681	-0.618896	0.376465	0.363525	0.287515	-0.687391	-0.297063	-0.597146
61847		9.705684	-0.451950	-1.120851	0.006175	0.004159	-0.010892	-0.620605	0.384521	0.367188	0.287495	-0.687372	-0.297082	-0.597168
61848		9.728873	-0.462587	-1.127831	0.004483	-0.001116	-0.012781	-0.620361	0.384033	0.365234	0.287504	-0.687404	-0.297143	-0.597096
61849		9.712391	-0.473836	-1.128100	0.002770	0.002746	-0.011710	-0.623779	0.374512	0.364746	0.287523	-0.687406	-0.297164	-0.597073
61850		9.729706	-0.463812	-1.138854	0.005391	0.002770	-0.011897	-0.624756	0.385986	0.363281	0.287467	-0.687371	-0.297222	-0.597112
61851		9.706757	-0.475638	-1.107034	0.006525	0.001584	-0.010377	-0.625244	0.368164	0.364990	0.287562	-0.687335	-0.297287	-0.597075
61852		9.718945	-0.406310	-1.112601	-0.000074	0.002219	-0.009375	-0.620605	0.375000	0.359375	0.287408	-0.687325	-0.297289	-0.597161
61853		9.722565	-0.461607	-1.126390	-0.005678	0.005942	-0.007601	-0.631592	0.378174	0.366943	0.287327	-0.687311	-0.297190	-0.597264
61854		9.724969	-0.468613	-1.127596	-0.003623	0.006265	-0.009027	-0.620850	0.375732	0.361816	0.287276	-0.687258	-0.297191	-0.597349
61855		9.709312	-0.469186	-1.093638	-0.001041	0.003602	-0.008245	-0.626709	0.376221	0.363281	0.287219	-0.687259	-0.297142	-0.597401
61856		9.719446	-0.443784	-1.129731	-0.001825	0.002801	-0.008293	-0.630371	0.372559	0.362549	0.287164	-0.687239	-0.297127	-0.597458
61857		9.705138	-0.465083	-1.132237	-0.001345	0.002705	-0.007901	-0.623535	0.379883	0.363770	0.287089	-0.687190	-0.297133	-0.597547
61858		9.705372	-0.463138	-1.131026	0.007729	0.006972	-0.008878	-0.624023	0.377197	0.354736	0.287158	-0.687128	-0.297160	-0.597571
61859		9.707087	-0.411117	-1.086986	0.005899	0.002762	-0.004901	-0.630615	0.377197	0.355713	0.287242	-0.687061	-0.297155	-0.597610
61860		9.746632	-0.455149	-1.114085	0.001867	0.006901	-0.004946	-0.628174	0.374023	0.355225	0.287314	-0.686942	-0.297147	-0.597716
61861		9.721600	-0.459225	-1.078416	0.005665	0.007837	-0.005538	-0.632812	0.369873	0.364258	0.287379	-0.686815	-0.297149	-0.597830
61862		9.697554	-0.449174	-1.091209	0.000271	0.001420	-0.005989	-0.623779	0.375488	0.357666	0.287287	-0.686783	-0.297155	-0.597908
61863		9.714490	-0.486442	-1.123632	0.004549	0.002260	-0.006188	-0.624268	0.373047	0.366211	0.287313	-0.686744	-0.297150	-0.597943
61864		9.712713	-0.429897	-1.099231	0.007441	-0.000095	-0.006704	-0.623047	0.380615	0.362061	0.287277	-0.686763	-0.297168	-0.597929
61865		9.720947	-0.457831	-1.097594	-0.002124	0.001309	-0.008908	-0.617188	0.378418	0.359375	0.287252	-0.686778	-0.297138	-0.597939
61866		9.704499	-0.470177	-1.097550	0.005725	0.003172	-0.006593	-0.628174	0.378174	0.359863	0.287297	-0.686780	-0.297103	-0.597932
61867		9.691434	-0.459881	-1.102603	0.005119	0.001373	-0.005905	-0.628662	0.378662	0.362061	0.287353	-0.686734	-0.297131	-0.597945
61868		9.709142	-0.457824	-1.125648	0.006698	0.001203	-0.008679	-0.627197	0.375977	0.363037	0.287394	-0.686684	-0.297196	-0.597950
61869		9.718134	-0.446791	-1.114406	0.009097	0.000725	-0.006717	-0.622803	0.377686	0.368652	0.287431	-0.686654	-0.297248	-0.597942
61870		9.730949	-0.447439	-1.096355	0.000179	0.002216	-0.005879	-0.625000	0.375732	0.360840	0.287380	-0.686709	-0.297191	-0.597930
61871		9.729363	-0.471081	-1.081416	0.001849	0.001253	-0.008763	-0.629883	0.372803	0.360352	0.287346	-0.686693	-0.297192	-0.597964
61872		9.696920	-0.476637	-1.117645	0.003323	0.003657	-0.008556	-0.623535	0.373535	0.362305	0.287318	-0.686621	-0.297220	-0.598046
61873		9.725246	-0.467053	-1.119910	0.009923	0.003041	-0.009552	-0.618408	0.379150	0.361328	0.287320	-0.686580	-0.297266	-0.598071
61874		9.712835	-0.444342	-1.091910	0.006712	-0.000567	-0.011549	-0.626221	0.372070	0.358154	0.287316	-0.686597	-0.297293	-0.598040
61875		9.715487	-0.531237	-1.103848	0.002862	0.001385	-0.012776	-0.625732	0.381348	0.360596	0.287242	-0.686538	-0.297341	-0.598118
61876		9.705495	-0.415520	-1.104695	0.007444	0.002544	-0.014276	-0.619873	0.363770	0.368896	0.287281	-0.686470	-0.297435	-0.598131
61877		9.695773	-0.408134	-1.091340	0.006624	-0.000358	-0.012396	-0.631836	0.381592	0.363281	0.287071	-0.686524	-0.297438	-0.598169
61878		9.719479	-0.425870	-1.110865	0.005794	-0.002076	-0.008602	-0.620850	0.378906	0.354736	0.287121	-0.686498	-0.297517	-0.598135
61879		9.712975	-0.424325	-1.079341	0.005212	-0.000001	-0.006972	-0.625977	0.374756	0.364746	0.287185	-0.686478	-0.297517	-0.598128
61880		9.733366	-0.465769	-1.093442	0.004257	-0.000402	-0.008713	-0.629883	0.374512	0.356689	0.287136	-0.686489	-0.297533	-0.598130
61881		9.713037	-0.466462	-1.100893	0.005227	-0.001776	-0.009841	-0.620117	0.376221	0.364746	0.287141	-0.686427	-0.297612	-0.598160
61882		9.705523	-0.423011	-1.069092	-0.002221	0.002103	-0.008800	-0.632324	0.383057	0.366943	0.287044	-0.686480	-0.297533	-0.598184
61883		9.712187	-0.420819	-1.100628	0.002596	-0.000624	-0.007743	-0.632568	0.379150	0.359131	0.287071	-0.686480	-0.297569	-0.598154
61884		9.716056	-0.430622	-1.094474	0.000125	-0.004347	-0.005848	-0.625732	0.368896	0.367920	0.287087	-0.686473	-0.297597	-0.598141
61885		9.719850	-0.486539	-1.109876	0.001993	-0.002425	-0.007054	-0.631836	0.372070	0.364014	0.286953	-0.686532	-0.297575	-0.598148
61886		9.692875	-0.460175	-1.109819	0.003653	-0.002198	-0.008024	-0.622070	0.376709	0.359131	0.286898	-0.686519	-0.297621	-0.598166
61887		9.718299	-0.434771	-1.098654	0.003463	-0.000017	-0.006849	-0.622559	0.376953	0.362305	0.286903	-0.686526	-0.297598	-0.598167
61888		9.708468	-0.429031	-1.085632	0.004903	-0.000301	-0.005671	-0.631348	0.369629	0.360352	0.286914	-0.686551	-0.297573	-0.598146
61889		9.726623	-0.434577	-1.121019	0.005552	-0.000208	-0.002628	-0.628418	0.385498	0.355225	0.286922	-0.686516	-0.297582	-0.598178
61890		9.725079	-0.413649	-1.084836	0.000989	0.002502	-0.000188	-0.629395	0.373047	0.362549	0.287086	-0.686477	-0.297532	-0.598168
61891		9.729016	-0.516901	-1.119937	-0.009850	0.004345	-0.000923	-0.628662	0.377197	0.362061	0.287000	-0.686498	-0.297377	-0.598263
61892		9.719932	-0.527378	-1.049049	0.009223	0.001473	-0.009712	-0.630127	0.380127	0.365967	0.287042	-0.686441	-0.297451	-0.598271
61893		9.699007	-0.465571	-1.092048	0.001472	-0.001208	-0.012135	-0.632812	0.375244	0.364990	0.286998	-0.686439	-0.297502	-0.598269
61894		9.705657	-0.416626	-1.102639	0.006312	-0.000646	-0.011094	-0.626221	0.383301	0.369873	0.286974	-0.686397	-0.297590	-0.598285
61895		9.725670	-0.450309	-1.104628	0.005166	0.001133	-0.011661	-0.627441	0.381104	0.358154	0.286974	-0.686413	-0.297628	-0.598248
61896		9.730741	-0.426888	-1.100294	0.004079	0.000018	-0.010407	-0.628906	0.382080	0.362061	0.287012	-0.686371	-0.297671	-0.598256
61897		9.715995	-0.441102	-1.091572	0.006972	-0.001731	-0.009964	-0.627197	0.378662	0.359375	0.287064	-0.686348	-0.297744	-0.598221
61898		9.706580	-0.395874	-1.069888	0.007594	-0.004330	-0.005947	-0.628418	0.379883	0.368164	0.287119	-0.686352	-0.297784	-0.598171
61899		9.716126	-0.465797	-1.068639	0.000829	0.001133	-0.004751	-0.629883	0.376465	0.369141	0.287121	-0.686383	-0.297748	-0.598152
61900		9.734936	-0.459006	-1.070663	-0.000594	-0.000358	-0.008797	-0.627197	0.375000	0.366211	0.287045	-0.686409	-0.297748	-0.598158
61901		9.733302	-0.472878	-1.125470	-0.000102	-0.001634	-0.010317	-0.631348	0.380859	0.361572	0.286952	-0.686438	-0.297751	-0.598169
61902		9.733283	-0.424379	-1.104564	0.005617	-0.001644	-0.010295	-0.631836	0.381592	0.362549	0.286985	-0.686401	-0.297824	-0.598159
61903		9.688753	-0.444055	-1.102466	0.007643	-0.003995	-0.010745	-0.633057	0.376221	0.360840	0.287028	-0.686376	-0.297927	-0.598115
61904		9.716955	-0.461587	-1.082825	0.006171	-0.005812	-0.009992	-0.632080	0.375000	0.369385	0.287020	-0.686356	-0.298021	-0.598096
61905		9.710824	-0.438682	-1.087845	0.002515	-0.001589	-0.010502	-0.632324	0.378174	0.357666	0.286954	-0.686360	-0.298077	-0.598096
61906		9.732416	-0.446853	-1.104767	-0.002994	-0.000476	-0.011716	-0.631836	0.376953	0.367920	0.286899	-0.686317	-0.298091	-0.598164
61907		9.717570	-0.432710	-1.120032	0.007495	-0.001479	-0.014371	-0.627930	0.373047	0.354004	0.286871	-0.686282	-0.298216	-0.598155
61908		9.710410	-0.395307	-1.100463	0.005736	-0.000325	-0.012335	-0.623047	0.368164	0.364258	0.286845	-0.686213	-0.298264	-0.598223
61909		9.729776	-0.394511	-1.114539	0.005906	-0.000138	-0.009685	-0.629883	0.368652	0.363770	0.286756	-0.686225	-0.298264	-0.598251
61910		9.720125	-0.415887	-1.077726	0.004518	-0.001569	-0.007129	-0.625977	0.378906	0.353516	0.286694	-0.686222	-0.298277	-0.598278
61911		9.718106	-0.451075	-1.096742	-0.004301	-0.001519	-0.007356	-0.620361	0.378174	0.359619	0.286668	-0.686225	-0.298215	-0.598319
61912		9.717604	-0.460472	-1.130290	0.000672	-0.000817	-0.010269	-0.628418	0.382080	0.357178	0.286624	-0.686254	-0.298179	-0.598324
61913		9.712042	-0.426202	-1.101564	0.003650	-0.002172	-0.008023	-0.628906	0.383301	0.358887	0.286679	-0.686236	-0.298202	-0.598307
61914		9.713017	-0.391933	-1.104354	0.006682	0.000678	-0.009639	-0.632080	0.381836	0.360352	0.286763	-0.686185	-0.298256	-0.598299
61915		9.722932	-0.461142	-1.102459	0.001614	0.000769	-0.006617	-0.625000	0.372314	0.357422	0.286815	-0.686153	-0.298260	-0.598308
61916		9.710274	-0.439210	-1.074881	0.005295	-0.000754	-0.007082	-0.628174	0.374268	0.361328	0.286800	-0.686142	-0.298247	-0.598334
61917		9.726219	-0.434585	-1.107856	0.002113	-0.001095	-0.009091	-0.620361	0.374268	0.358643	0.286755	-0.686137	-0.298251	-0.598359
61918		9.709889	-0.446641	-1.108271	0.006111	0.000980	-0.010879	-0.628662	0.375244	0.359619	0.286730	-0.686127	-0.298250	-0.598384
61919		9.712563	-0.414248	-1.101532	0.004251	-0.000951	-0.009670	-0.628174	0.384766	0.360840	0.286715	-0.686101	-0.298278	-0.598406
61920		9.703287	-0.414608	-1.100688	-0.000987	-0.001049	-0.009298	-0.626221	0.374756	0.362793	0.286733	-0.686107	-0.298277	-0.598391
61921		9.716669	-0.421310	-1.095091	0.000746	0.000166	-0.007511	-0.622559	0.374512	0.363281	0.286688	-0.686122	-0.298243	-0.598412
61922		9.717335	-0.426329	-1.106945	0.002403	0.000403	-0.008482	-0.628418	0.380615	0.366455	0.286641	-0.686147	-0.298210	-0.598424
61923		9.707527	-0.419716	-1.093836	0.002232	0.000221	-0.011132	-0.622559	0.375732	0.369629	0.286624	-0.686148	-0.298239	-0.598416
61924		9.722326	-0.400912	-1.102891	0.001417	-0.001512	-0.007335	-0.632812	0.373047	0.366699	0.286562	-0.686222	-0.298201	-0.598380
61925		9.720704	-0.397171	-1.112149	0.002382	0.002175	-0.005616	-0.626709	0.370117	0.369385	0.286546	-0.686203	-0.298190	-0.598414
61926		9.712327	-0.433013	-1.098687	0.002181	0.000479	-0.005378	-0.627930	0.380371	0.369141	0.286480	-0.686241	-0.298148	-0.598424
61927		9.719200	-0.459155	-1.106565	0.003340	-0.001883	-0.005764	-0.626953	0.374512	0.367432	0.286492	-0.686288	-0.298140	-0.598368
61928		9.710138	-0.421216	-1.096365	0.002092	0.000683	-0.006225	-0.632080	0.377197	0.364014	0.286461	-0.686312	-0.298107	-0.598371
61929		9.715142	-0.465391	-1.076972	0.004638	0.003633	-0.008236	-0.628418	0.377441	0.365479	0.286487	-0.686259	-0.298126	-0.598410
61930		9.694824	-0.399788	-1.098298	0.004924	0.001254	-0.008560	-0.624512	0.378418	0.363770	0.286494	-0.686247	-0.298139	-0.598414
61931		9.705177	-0.429997	-1.086957	0.001604	0.001367	-0.005662	-0.626953	0.373291	0.359375	0.286496	-0.686271	-0.298078	-0.598416
61932		9.731586	-0.418467	-1.099354	0.002187	-0.000108	-0.006333	-0.632324	0.375488	0.358154	0.286472	-0.686268	-0.298039	-0.598450
61933		9.721216	-0.424657	-1.119322	0.006050	0.001843	-0.004169	-0.633789	0.377930	0.363037	0.286537	-0.686214	-0.298033	-0.598485
61934		9.713059	-0.421481	-1.096700	0.004414	-0.000164	-0.006064	-0.629395	0.377686	0.360840	0.286574	-0.686187	-0.298051	-0.598489
61935		9.723386	-0.451918	-1.085667	0.005678	-0.000035	-0.006581	-0.629150	0.369629	0.371338	0.286610	-0.686167	-0.298056	-0.598491
61936		9.702149	-0.419128	-1.104925	0.005286	-0.000145	-0.006126	-0.625488	0.372314	0.358643	0.286568	-0.686187	-0.298063	-0.598485
61937		9.744311	-0.386603	-1.105120	0.002839	-0.000017	-0.003290	-0.619385	0.383057	0.366211	0.286563	-0.686198	-0.297992	-0.598510
61938		9.711409	-0.435460	-1.069113	0.005464	0.007195	-0.002568	-0.623047	0.374268	0.365967	0.286651	-0.686218	-0.297886	-0.598499
61939		9.704013	-0.458113	-1.102768	0.002565	0.001184	-0.004877	-0.629639	0.372070	0.368652	0.286626	-0.686257	-0.297817	-0.598500
61940		9.729825	-0.439758	-1.103151	0.002964	0.000705	-0.006287	-0.631592	0.372314	0.364990	0.286588	-0.686267	-0.297804	-0.598513
61941		9.708945	-0.434431	-1.098204	0.005974	0.000873	-0.006927	-0.626709	0.370361	0.366211	0.286589	-0.686238	-0.297826	-0.598536
61942		9.729684	-0.409444	-1.126454	0.012459	0.002297	-0.005905	-0.626221	0.370361	0.366455	0.286629	-0.686208	-0.297854	-0.598536
61943		9.736916	-0.444703	-1.064557	0.004887	0.000338	-0.004716	-0.628174	0.378418	0.362061	0.286603	-0.686228	-0.297820	-0.598543
61944		9.708598	-0.424016	-1.085380	0.009354	-0.000949	-0.006087	-0.628662	0.380615	0.359619	0.286664	-0.686218	-0.297838	-0.598516
61945		9.707578	-0.427620	-1.106464	0.004212	0.002017	-0.004894	-0.626709	0.375732	0.366943	0.286721	-0.686199	-0.297797	-0.598531
61946		9.718691	-0.426062	-1.097910	0.006247	-0.000323	-0.005339	-0.623047	0.379639	0.362305	0.286731	-0.686222	-0.297780	-0.598509
61947		9.726898	-0.408556	-1.074762	0.010313	0.002744	-0.004372	-0.625000	0.388184	0.364502	0.286816	-0.686216	-0.297746	-0.598490
61948		9.712305	-0.424616	-1.065330	0.005057	0.000524	-0.002066	-0.631592	0.369629	0.357178	0.286910	-0.686265	-0.297664	-0.598431
61949		9.715881	-0.447378	-1.091345	0.006217	0.002038	-0.001521	-0.625244	0.379395	0.362549	0.286959	-0.686213	-0.297634	-0.598482
61950		9.717586	-0.449267	-1.082033	0.001562	-0.002838	-0.001792	-0.631592	0.377197	0.352051	0.286970	-0.686279	-0.297546	-0.598444
61951		9.725208	-0.443803	-1.092880	0.002454	-0.000715	-0.003790	-0.623047	0.375244	0.360352	0.287011	-0.686243	-0.297505	-0.598486
61952		9.707940	-0.422886	-1.105106	0.009350	0.002931	-0.005159	-0.630127	0.379639	0.360107	0.287061	-0.686223	-0.297475	-0.598500
61953		9.710805	-0.419559	-1.074030	0.007290	-0.000116	-0.002751	-0.632568	0.374023	0.353760	0.287143	-0.686211	-0.297455	-0.598484
61954		9.718440	-0.414322	-1.084652	0.005828	-0.001945	-0.001993	-0.632568	0.375244	0.362305	0.287203	-0.686177	-0.297441	-0.598502
61955		9.726361	-0.436887	-1.071897	0.003866	-0.005785	0.000308	-0.632324	0.378418	0.366699	0.287234	-0.686221	-0.297409	-0.598452
61956		9.723475	-0.439690	-1.103322	0.002804	-0.000935	0.000555	-0.629639	0.381836	0.363281	0.287282	-0.686254	-0.297348	-0.598421
61957		9.691483	-0.436463	-1.106668	0.005336	0.002612	-0.000506	-0.629395	0.374512	0.362061	0.287377	-0.686252	-0.297285	-0.598410
61958		9.712514	-0.440502	-1.110830	0.003866	0.001373	0.001206	-0.627197	0.382080	0.353516	0.287428	-0.686259	-0.297203	-0.598418
61959		9.733984	-0.432834	-1.082145	0.002226	-0.000051	0.000269	-0.629639	0.372559	0.360107	0.287506	-0.686268	-0.297100	-0.598421
61960		9.713472	-0.475225	-1.098809	0.002132	-0.003132	-0.000550	-0.631348	0.378418	0.361572	0.287505	-0.686298	-0.297037	-0.598419
61961		9.722147	-0.465519	-1.088469	0.006692	-0.001333	-0.001101	-0.626221	0.375488	0.359619	0.287579	-0.686299	-0.297015	-0.598393
61962		9.688509	-0.420802	-1.092536	0.005812	-0.000762	-0.000085	-0.625977	0.379395	0.358643	0.287630	-0.686317	-0.296947	-0.598381
61963		9.723999	-0.447429	-1.115667	0.001733	-0.002652	0.000859	-0.631104	0.383789	0.364014	0.287669	-0.686369	-0.296846	-0.598353
61964		9.727642	-0.334690	-1.070044	-0.000131	-0.000128	0.003952	-0.627686	0.382812	0.361328	0.287748	-0.686419	-0.296724	-0.598319
61965		9.689475	-0.137664	-0.997437	-0.017988	-0.006891	0.018059	-0.630371	0.371338	0.360596	0.287746	-0.686640	-0.296354	-0.598249
61966		9.708205	-0.358219	-1.184843	-0.069915	-0.004281	0.040253	-0.630615	0.380127	0.359131	0.287420	-0.687081	-0.295413	-0.598365
61967		9.700670	-0.608705	-1.221582	-0.026414	-0.004599	0.039194	-0.629639	0.371826	0.364258	0.287512	-0.687361	-0.294810	-0.598297
61968		9.648257	-0.509718	-1.055471	-0.025201	-0.000040	0.033961	-0.622803	0.373779	0.360352	0.287533	-0.687594	-0.294244	-0.598297
61969		9.601231	-0.624354	-1.013648	-0.043468	-0.015488	0.033340	-0.625244	0.376221	0.366455	0.287336	-0.688025	-0.293565	-0.598231
61970		9.558106	-0.206380	-1.054506	0.002952	-0.041114	0.045112	-0.617432	0.379395	0.362549	0.287540	-0.688530	-0.293240	-0.597710
61971		9.649130	0.373338	-1.033912	-0.002098	-0.065129	0.101341	-0.620361	0.380127	0.368896	0.288040	-0.689456	-0.292443	-0.596792
61972		9.640091	0.483409	-1.387710	-0.016315	-0.043648	0.201420	-0.613037	0.380859	0.371582	0.289234	-0.690632	-0.290625	-0.595742
61973		9.764227	0.894138	-1.354960	0.055500	-0.018005	0.324075	-0.618896	0.387939	0.365723	0.292022	-0.691822	-0.288165	-0.594195
61974		9.868471	1.247466	-1.022575	0.110376	-0.001313	0.495405	-0.609375	0.401611	0.364502	0.296658	-0.693217	-0.284624	-0.591975
61975		9.787068	1.140777	-0.584707	0.176887	-0.025135	0.688863	-0.609619	0.411865	0.363281	0.303215	-0.695212	-0.279954	-0.588530
61976		9.459601	1.053289	-0.617424	0.153485	-0.068953	0.857907	-0.603271	0.423828	0.355225	0.310637	-0.698100	-0.273830	-0.584105
61977		8.789430	-1.794453	-1.482792	-0.222082	-0.094449	0.917127	-0.580811	0.441650	0.364746	0.315105	-0.702697	-0.264549	-0.580465
61978		9.863211	-2.746140	-0.949417	0.081713	-0.053743	0.861780	-0.579102	0.459229	0.362549	0.321927	-0.705607	-0.257695	-0.576260
61979		10.115583	-0.136961	-0.269729	0.365315	-0.040957	0.946309	-0.565918	0.469727	0.341309	0.331902	-0.707411	-0.252104	-0.570836
61980		9.150790	0.864866	-0.438383	0.276163	-0.098975	1.150274	-0.555664	0.482178	0.346436	0.342314	-0.710445	-0.244298	-0.564276
61981		8.717878	-1.415937	-1.377857	0.283788	-0.157883	1.285252	-0.541748	0.506836	0.351074	0.353427	-0.714105	-0.235550	-0.556471
61982		7.925393	-3.746026	-1.136125	0.283666	-0.175827	1.288606	-0.522461	0.522705	0.342773	0.364425	-0.717711	-0.226814	-0.548307
61983		9.716992	-2.241815	-1.349699	0.528570	-0.102768	1.278530	-0.509521	0.552490	0.335205	0.377654	-0.719446	-0.219464	-0.540009
61984		9.029367	3.369879	-0.971862	0.224719	-0.151331	1.464071	-0.471924	0.569580	0.337891	0.389223	-0.723188	-0.208665	-0.531003
61985		7.673517	-7.691670	-2.795176	-0.606437	-0.354161	1.440684	-0.457764	0.578613	0.352051	0.392420	-0.732067	-0.193394	-0.522191
61986		8.830327	-6.766311	-2.118204	-0.240909	-0.188242	1.137066	-0.434082	0.588867	0.346436	0.397218	-0.737092	-0.182425	-0.515397
61987		10.103775	-3.937567	-3.431012	-0.973999	-0.127470	0.954535	-0.424072	0.593750	0.368408	0.394192	-0.744741	-0.168158	-0.511563
61988		7.532507	-14.140475	-2.996989	-0.905830	-0.097240	0.445235	-0.415283	0.594971	0.372314	0.388505	-0.750631	-0.158900	-0.510262
61989		12.098697	-14.791609	-1.285026	-0.504812	-0.001828	-0.514090	-0.430420	0.589355	0.385254	0.380712	-0.751933	-0.160859	-0.513594
61990		18.848100	-11.507081	-2.604623	0.017624	0.015434	-1.265707	-0.445312	0.565674	0.375977	0.372946	-0.748999	-0.173064	-0.519577
61991		22.003025	-5.847345	0.783113	0.434383	0.149276	-1.510333	-0.470947	0.552002	0.378906	0.367574	-0.742501	-0.189447	-0.526963
61992		15.452722	-3.800778	-1.000086	1.210757	0.351905	-1.706068	-0.492676	0.542725	0.350342	0.368315	-0.730280	-0.211547	-0.535055
61993		6.225836	-1.221698	-2.025195	1.378229	0.521308	-2.212984	-0.526855	0.533691	0.324463	0.367345	-0.714154	-0.238452	-0.546060
61994		3.463703	2.039937	-3.110408	-0.242365	0.716471	-1.971108	-0.559814	0.500488	0.327637	0.353852	-0.704216	-0.251052	-0.561998
61995		3.571200	-1.350113	-2.889607	-0.793027	0.808279	-1.124444	-0.571777	0.471680	0.330078	0.341462	-0.698388	-0.251666	-0.576474
61996		1.251794	-5.683965	-2.349939	-0.215295	0.259557	-0.415932	-0.591309	0.471436	0.333008	0.337377	-0.696156	-0.252477	-0.581205
61997		1.391005	1.256737	-0.663439	0.662333	0.146290	-0.116498	-0.591064	0.467773	0.312744	0.342752	-0.691935	-0.257554	-0.580872
61998		1.196045	0.686824	0.551789	-0.032881	-0.006550	0.372386	-0.579834	0.478516	0.308594	0.345153	-0.693333	-0.254028	-0.579335
61999		0.649024	0.872066	-0.539054	-0.591629	-0.172432	0.774418	-0.577637	0.484131	0.328857	0.345104	-0.699552	-0.243695	-0.576318
62000		0.289932	-1.372417	-0.996264	-0.251239	-0.169728	0.933748	-0.553223	0.509766	0.328125	0.349101	-0.704673	-0.234333	-0.571535
62001		0.938336	-0.482166	-0.617861	0.712405	-0.296580	0.943955	-0.548340	0.506348	0.322754	0.361286	-0.706381	-0.232323	-0.562605
62002		2.035821	0.036144	2.233451	0.310956	-0.272639	1.122355	-0.524414	0.534912	0.329590	0.371089	-0.710096	-0.225709	-0.554177
62003		8.561564	-0.152337	-4.728540	-1.864863	-1.122372	2.040880	-0.490479	0.545898	0.372559	0.365269	-0.731806	-0.199601	-0.539628
62004		13.533351	4.490959	1.520958	-1.876519	-0.208481	1.586843	-0.470703	0.548096	0.401123	0.358128	-0.745415	-0.173179	-0.534892
62005		28.353984	-10.505047	-7.377242	-1.653950	-0.175665	1.173099	-0.441650	0.541748	0.412109	0.350079	-0.756309	-0.151847	-0.531399
62006		23.254589	-22.740579	-4.770230	0.116793	-0.341857	0.251801	-0.444092	0.539062	0.416016	0.352249	-0.758547	-0.151721	-0.526790
62007		23.100893	-18.828078	-0.186237	0.848952	-0.072005	-0.933859	-0.458984	0.542236	0.411621	0.353977	-0.753428	-0.166368	-0.528553
62008		23.535905	-10.346135	-4.695830	1.718370	0.236282	-1.829397	-0.478027	0.540771	0.385498	0.358389	-0.740104	-0.193639	-0.535076
62009		14.612623	2.004017	-3.599365	2.776637	0.399680	-2.488633	-0.517334	0.531738	0.344482	0.368016	-0.718195	-0.233022	-0.542643
62010		5.860796	6.208620	-3.185794	1.413660	0.564882	-2.624771	-0.557861	0.502686	0.320312	0.364280	-0.699741	-0.263233	-0.555312
62011		2.933225	0.351014	-3.817115	0.160146	0.406304	-1.558827	-0.583496	0.489746	0.316895	0.356093	-0.690960	-0.275935	-0.565359
62012		2.647159	-9.212809	-2.816192	0.948819	-0.115527	-0.533944	-0.588135	0.491211	0.300781	0.360067	-0.685696	-0.287610	-0.563430
62013		1.456968	1.635879	0.219803	2.008957	-0.233278	0.070617	-0.589111	0.505371	0.281250	0.376851	-0.678365	-0.302018	-0.553705
62014		0.688888	0.513484	2.690145	0.424156	-0.315592	0.507471	-0.572510	0.511963	0.277832	0.382761	-0.680470	-0.302038	-0.547017
62015		0.686242	-0.376692	0.705788	-0.085712	-0.161398	0.881906	-0.567871	0.529541	0.287842	0.387436	-0.685307	-0.294590	-0.541723
62016		0.766200	-0.048667	0.340258	-0.602258	-0.131888	1.120671	-0.536377	0.542969	0.295410	0.389321	-0.693199	-0.281373	-0.537339
62017		0.991690	-1.854221	-0.015499	-0.462686	-0.066690	1.242012	-0.521973	0.551025	0.300781	0.393368	-0.700236	-0.267573	-0.532292
62018		1.335754	-0.475360	1.091313	0.116118	0.046890	1.313794	-0.513184	0.572510	0.301270	0.403229	-0.703700	-0.256400	-0.525806
62019		2.295596	1.866331	1.194549	-0.156437	0.033028	1.468085	-0.488770	0.584473	0.304443	0.411537	-0.708892	-0.242095	-0.519134
62020		2.586144	-0.568377	2.857881	-1.061961	-0.236774	2.009915	-0.451904	0.600342	0.326904	0.414264	-0.721721	-0.218326	-0.509743
62021		6.244303	-8.481659	-2.317782	-1.864526	-0.619955	2.502023	-0.414307	0.614990	0.361816	0.411323	-0.741629	-0.186614	-0.495959
62022		16.201598	-1.481034	-3.746465	-1.515124	-0.221589	1.618776	-0.386230	0.617676	0.382812	0.406603	-0.754315	-0.163013	-0.488988
62023		25.560748	-12.920395	-12.495766	-1.088753	-0.097224	0.811406	-0.375244	0.613770	0.397949	0.401032	-0.762011	-0.148991	-0.486121
62024		26.355800	-17.531643	-7.907259	0.118011	-0.055458	-0.139355	-0.372803	0.612305	0.396484	0.401215	-0.761512	-0.151229	-0.486061
62025		24.444845	-18.641585	0.292065	0.428738	0.096674	-1.058407	-0.393066	0.609131	0.397461	0.399011	-0.756724	-0.163272	-0.491428
62026		19.921778	-15.167858	-0.687948	1.332174	0.236723	-2.129309	-0.417480	0.602295	0.375244	0.398772	-0.743954	-0.190039	-0.501397
62027		15.309782	-4.228985	-3.497337	2.697173	0.368411	-3.012805	-0.471436	0.587891	0.327881	0.405267	-0.720193	-0.232416	-0.512897
62028		9.081358	7.075104	-4.439798	1.797469	0.555926	-3.174899	-0.526855	0.570557	0.302246	0.402231	-0.697620	-0.269145	-0.528297
62029		4.319677	7.540826	-2.691295	0.056518	0.632129	-2.261846	-0.550781	0.536377	0.299561	0.389650	-0.685370	-0.285608	-0.544856
62030		4.197478	-4.811512	-2.079619	-0.345172	0.103749	-1.060335	-0.568848	0.518066	0.297852	0.379616	-0.682706	-0.291262	-0.552241
62031		1.421691	-0.035040	1.077575	1.094706	0.027699	-0.326020	-0.574951	0.519043	0.285156	0.386638	-0.676226	-0.301035	-0.550097
62032		-0.757151	2.128051	4.373233	-0.840119	-0.062301	-0.239638	-0.586670	0.509521	0.297119	0.377485	-0.679929	-0.297170	-0.553978
62033		-1.352618	-3.069992	0.054299	-1.371384	0.119731	-0.515371	-0.585449	0.494629	0.304932	0.362523	-0.683646	-0.291155	-0.562525
62034		0.307807	0.816927	-1.907809	-0.963424	0.266602	-0.742983	-0.590820	0.478027	0.318115	0.349918	-0.683454	-0.289197	-0.571676
62035		0.609383	0.690917	-1.509094	-1.013954	0.299225	-0.530222	-0.612061	0.457031	0.320801	0.338350	-0.683939	-0.284665	-0.580270
62036		-0.160618	-3.118492	-0.622711	-0.432679	0.063120	-0.278559	-0.612061	0.447266	0.325684	0.332811	-0.684354	-0.283503	-0.583543
62037		0.269878	0.555553	-1.283800	0.982617	-0.208071	-0.242913	-0.610107	0.452393	0.313477	0.338625	-0.680935	-0.293408	-0.579286
62038		4.466160	2.551813	3.373899	0.419839	-0.196678	0.311555	-0.600586	0.463623	0.308594	0.343711	-0.681760	-0.294488	-0.574755
62039		9.715369	-12.876847	-11.283148	-1.652652	-1.298083	3.462776	-0.555176	0.489746	0.343750	0.349274	-0.710104	-0.258141	-0.554187
62040		16.978779	-0.736301	4.827883	0.570845	-0.486467	2.141305	-0.512695	0.534912	0.353027	0.367543	-0.717572	-0.245225	-0.538393
62041		13.389153	4.366101	0.049370	0.631189	0.075976	1.727051	-0.490234	0.561523	0.341797	0.384873	-0.719384	-0.233167	-0.529144
62042		14.294843	-15.974524	-12.412743	-0.755186	-0.481165	1.127129	-0.473877	0.561279	0.355957	0.384005	-0.729463	-0.219983	-0.521567
62043		30.891370	-0.733597	2.223348	1.568241	0.161418	0.490311	-0.474609	0.584717	0.338623	0.401847	-0.722126	-0.224769	-0.516267
62044		10.386896	-11.413161	1.657165	-1.563314	0.174073	0.488144	-0.464600	0.580322	0.352539	0.391217	-0.730136	-0.209144	-0.519721
62045		6.858457	-11.148390	-1.031838	0.891537	0.052173	-0.549986	-0.476807	0.576416	0.343018	0.395862	-0.723989	-0.219473	-0.520543
62046		10.977888	-7.400679	-1.602923	-0.293903	0.003297	-1.016863	-0.489014	0.565918	0.343506	0.386515	-0.722618	-0.226509	-0.526424
62047		8.939002	-3.078176	-3.537920	-0.012471	0.238799	-1.121285	-0.503418	0.548584	0.349365	0.379640	-0.717910	-0.235156	-0.534023
62048		8.235138	0.984764	-1.881750	-0.286794	0.130962	-1.131257	-0.512207	0.535645	0.349365	0.369729	-0.715118	-0.242303	-0.541476
62049		8.492453	-4.892771	0.654357	-0.159722	0.039022	-1.080036	-0.531006	0.515625	0.349121	0.360927	-0.712421	-0.250129	-0.547380
62050		8.248923	-0.120244	0.020480	-0.066391	-0.038489	-1.033148	-0.539307	0.510986	0.355225	0.353021	-0.709808	-0.258641	-0.551955
62051		7.295707	-0.147860	-3.538292	-0.139368	-0.050817	-0.963272	-0.558105	0.494385	0.357178	0.344730	-0.707832	-0.265737	-0.556344
62052		9.098842	0.732577	-1.618695	-0.003677	-0.054925	-0.942768	-0.557861	0.474854	0.364258	0.337766	-0.705221	-0.273764	-0.560027
62053		10.566786	-1.042054	-0.837240	-0.248587	-0.000384	-0.739865	-0.577637	0.463623	0.361084	0.330088	-0.703976	-0.277770	-0.564184
62054		10.282353	-0.402652	-0.974385	-0.348620	-0.012454	-0.599266	-0.577637	0.451416	0.374512	0.322593	-0.703540	-0.280210	-0.567846
62055		10.575607	-1.244559	-2.109152	0.138874	0.009077	-0.526252	-0.586914	0.448975	0.370117	0.319777	-0.701335	-0.285009	-0.569773
62056		10.226873	-0.872100	-2.734871	0.256181	0.047554	-0.453111	-0.590576	0.440674	0.366211	0.318656	-0.698606	-0.289905	-0.571283
62057		9.716445	0.255541	-1.811817	0.402606	0.099275	-0.384666	-0.595703	0.440430	0.362061	0.319506	-0.695121	-0.295106	-0.572394
62058		9.563863	-0.395866	-0.814568	0.244937	0.083793	-0.315816	-0.602051	0.437012	0.355469	0.319358	-0.692644	-0.298561	-0.573686
62059		9.746423	0.031596	-0.844309	-0.012140	0.090214	-0.247158	-0.599854	0.432129	0.357422	0.317566	-0.691338	-0.299695	-0.575662
62060		9.617994	-0.505586	-1.582256	-0.008516	0.075367	-0.205951	-0.602051	0.429932	0.363525	0.315960	-0.690337	-0.300399	-0.577378
62061		9.653238	0.168858	-1.597210	-0.179135	0.073909	-0.181551	-0.609131	0.423584	0.359375	0.312900	-0.690199	-0.299437	-0.579704
62062		9.677405	-0.710118	-1.998096	-0.326671	0.100326	-0.159199	-0.600098	0.419189	0.358887	0.308983	-0.690396	-0.297415	-0.582604
62063		9.781502	-0.908222	-1.909276	-0.159354	0.155815	-0.141827	-0.605713	0.418213	0.357910	0.306781	-0.689651	-0.296100	-0.585313
62064		9.835509	-0.818214	-1.485803	0.086912	0.180549	-0.146752	-0.608398	0.416016	0.356445	0.306744	-0.687753	-0.296553	-0.587334
62065		9.576735	-1.894629	-0.376206	0.331026	0.164825	-0.189456	-0.615479	0.419922	0.350830	0.308413	-0.684870	-0.299216	-0.588477
62066		9.546425	-1.134687	-0.160589	0.366397	0.137753	-0.203783	-0.622559	0.422363	0.345459	0.310130	-0.681997	-0.302327	-0.589320
62067		9.508914	-0.012283	-0.896650	0.101595	0.120230	-0.200456	-0.625000	0.409912	0.337402	0.309525	-0.680283	-0.303528	-0.590999
62068		9.708374	-0.885684	-1.551104	0.056794	0.114088	-0.205768	-0.624268	0.414062	0.337891	0.308832	-0.678537	-0.305005	-0.592605
62069		9.534575	-0.661745	-1.131811	0.222142	0.132318	-0.204889	-0.633545	0.406494	0.335449	0.309388	-0.676161	-0.307281	-0.593854
62070		9.497893	0.333765	-0.411962	0.161943	0.107054	-0.172007	-0.631348	0.411865	0.322998	0.309746	-0.674207	-0.309212	-0.594887
62071		9.660891	0.205071	-0.220144	0.058838	0.070043	-0.092761	-0.631592	0.408936	0.338379	0.309684	-0.673239	-0.309826	-0.595696
62072		9.787996	0.345769	-0.436039	-0.042266	0.015306	-0.037280	-0.637939	0.400635	0.326172	0.308706	-0.673441	-0.309067	-0.596369
62073		9.674316	-0.380043	-0.845282	-0.080124	-0.007299	-0.000982	-0.631104	0.404297	0.336182	0.308047	-0.673810	-0.308479	-0.596597
62074		9.545516	-0.330313	-1.158465	-0.068321	-0.003937	0.010627	-0.634766	0.409668	0.331787	0.307292	-0.674339	-0.307426	-0.596931
62075		9.684816	-0.435718	-1.114798	-0.047856	0.015225	0.027147	-0.633789	0.408203	0.340576	0.306914	-0.674702	-0.306334	-0.597278
62076		9.669011	-0.403197	-0.834209	0.015689	0.012237	0.033040	-0.632080	0.406006	0.335938	0.307000	-0.674925	-0.305540	-0.597388
62077		9.721909	-0.141590	-0.598805	-0.031533	-0.012157	0.047056	-0.625732	0.413330	0.332764	0.306847	-0.675476	-0.304573	-0.597338
62078		9.731325	-0.494580	-0.749964	-0.076730	-0.028218	0.057150	-0.624023	0.409424	0.336182	0.306234	-0.676420	-0.303082	-0.597342
62079		9.758347	-0.587814	-0.955245	-0.043550	-0.046469	0.056713	-0.623047	0.410156	0.340332	0.305895	-0.677329	-0.302012	-0.597028
62080		9.595324	-0.749824	-1.118253	-0.007468	-0.042085	0.049458	-0.630371	0.410645	0.341553	0.305791	-0.678055	-0.301216	-0.596660
62081		9.645077	-0.733147	-1.142528	0.004063	-0.031433	0.036245	-0.631104	0.413574	0.335449	0.305786	-0.678561	-0.300694	-0.596349
62082		9.843732	-0.708360	-0.969519	0.001149	-0.019988	0.018953	-0.630127	0.413330	0.336426	0.305758	-0.678878	-0.300370	-0.596167
62083		9.761264	-0.665978	-0.723854	0.044260	-0.022281	0.005783	-0.625977	0.416504	0.339111	0.305999	-0.678992	-0.300501	-0.595847
62084		9.672445	-0.419305	-0.991758	0.011907	-0.033675	0.009176	-0.631592	0.422607	0.341553	0.305851	-0.679387	-0.300256	-0.595596
62085		9.740577	-0.245078	-1.089533	-0.013276	-0.040847	0.021987	-0.625244	0.413330	0.341064	0.305462	-0.680029	-0.299626	-0.595380
62086		9.703150	-0.643758	-1.075881	-0.038330	-0.043954	0.026785	-0.616455	0.411865	0.342773	0.305071	-0.680703	-0.299033	-0.595109
62087		9.659708	-0.626281	-1.046131	-0.032966	-0.040460	0.023120	-0.618652	0.417969	0.341064	0.304710	-0.681324	-0.298470	-0.594866
62088		9.738810	-0.741034	-1.005249	-0.023338	-0.036377	0.013465	-0.621826	0.410645	0.336182	0.304329	-0.681865	-0.297985	-0.594684
62089		9.732452	-0.787205	-0.999651	-0.008648	-0.037412	-0.001821	-0.621826	0.412598	0.347656	0.304189	-0.682164	-0.298082	-0.594364
62090		9.714888	-0.521536	-1.020167	-0.014280	-0.037544	-0.006639	-0.622559	0.404297	0.343994	0.303785	-0.682568	-0.297937	-0.594180
62091		9.743605	-0.599445	-1.055897	-0.008716	-0.039091	-0.005463	-0.624756	0.402344	0.339844	0.303626	-0.682852	-0.298109	-0.593848
62092		9.701138	-0.667348	-1.137123	0.005763	-0.037128	-0.007368	-0.622070	0.416748	0.343018	0.303666	-0.683010	-0.298517	-0.593440
62093		9.732872	-0.658248	-1.190653	0.007200	-0.032450	-0.014130	-0.614746	0.412354	0.350830	0.303441	-0.683250	-0.298612	-0.593232
62094		9.731921	-0.540193	-1.041763	0.023381	-0.027093	-0.016357	-0.621338	0.407959	0.349854	0.303319	-0.683406	-0.298762	-0.593038
62095		9.768046	-0.454262	-1.054659	-0.001436	-0.033015	-0.013455	-0.625000	0.408447	0.344238	0.303075	-0.683652	-0.298877	-0.592822
62096		9.749686	-0.542127	-1.152588	-0.009571	-0.038313	-0.009254	-0.619141	0.417969	0.340332	0.302840	-0.683941	-0.299016	-0.592539
62097		9.662262	-0.601365	-1.173287	-0.000409	-0.032010	-0.009962	-0.625488	0.408447	0.351074	0.302622	-0.684200	-0.299064	-0.592327
62098		9.675627	-0.646711	-1.179711	-0.004373	-0.028290	-0.009334	-0.617676	0.411133	0.345703	0.302410	-0.684428	-0.299128	-0.592140
62099		9.687883	-0.589286	-1.130706	0.017277	-0.022923	-0.014248	-0.621094	0.408447	0.340820	0.302378	-0.684517	-0.299361	-0.591935
62100		9.722542	-0.433470	-1.082737	0.005316	-0.028576	-0.009298	-0.615967	0.420410	0.350342	0.302337	-0.684661	-0.299608	-0.591664
62101		9.736005	-0.715251	-1.140098	-0.010165	-0.023121	-0.012370	-0.618652	0.413330	0.352051	0.301961	-0.684939	-0.299437	-0.591621
62102		9.669763	-0.695789	-1.211091	-0.002018	-0.020911	-0.021225	-0.620850	0.416748	0.347168	0.301657	-0.685095	-0.299496	-0.591565
62103		9.663871	-0.513604	-1.181506	0.015658	-0.024098	-0.024753	-0.620850	0.406250	0.347900	0.301484	-0.685185	-0.299751	-0.591420
62104		9.705410	-0.429959	-1.164262	-0.003853	-0.020384	-0.016198	-0.615479	0.411865	0.352051	0.301312	-0.685295	-0.299919	-0.591296
62105		9.688298	-0.465231	-1.151115	-0.006449	-0.020093	-0.010250	-0.621094	0.412598	0.346191	0.301072	-0.685495	-0.299866	-0.591212
62106		9.751517	-0.545992	-1.169694	-0.020170	-0.019976	-0.006420	-0.627441	0.412598	0.346924	0.300796	-0.685724	-0.299765	-0.591138
62107		9.720441	-0.707112	-1.220443	-0.001213	-0.015843	-0.013881	-0.616455	0.397949	0.354492	0.300649	-0.685814	-0.299877	-0.591052
62108		9.667817	-0.727356	-1.277372	0.005295	-0.014528	-0.022679	-0.614014	0.407715	0.352783	0.300538	-0.685817	-0.300160	-0.590962
62109		9.663843	-0.554885	-1.187069	0.018417	-0.012999	-0.030725	-0.623535	0.407227	0.346924	0.300421	-0.685775	-0.300489	-0.590903
62110		9.709926	-0.425231	-1.121968	-0.000992	-0.009328	-0.026101	-0.627441	0.417969	0.351562	0.300239	-0.685754	-0.300720	-0.590903
62111		9.693146	-0.440222	-1.204364	0.000098	-0.012395	-0.018545	-0.611328	0.412354	0.351562	0.300010	-0.685842	-0.300757	-0.590898
62112		9.713469	-0.486636	-1.238345	-0.005935	-0.012985	-0.013236	-0.620605	0.412842	0.353760	0.299790	-0.685976	-0.300707	-0.590879
62113		9.718797	-0.597395	-1.226986	-0.002549	-0.006215	-0.013873	-0.624268	0.405273	0.354980	0.299612	-0.686041	-0.300674	-0.590911
62114		9.699175	-0.583147	-1.202321	0.001506	0.000332	-0.017219	-0.617188	0.406738	0.348145	0.299511	-0.685996	-0.300758	-0.590971
62115		9.705513	-0.535895	-1.147525	0.001312	0.000051	-0.019858	-0.615723	0.405518	0.352051	0.299419	-0.685934	-0.300884	-0.591026
62116		9.701441	-0.543143	-1.198401	-0.002823	0.000812	-0.020750	-0.623779	0.412109	0.351807	0.299265	-0.685893	-0.300951	-0.591117
62117		9.688159	-0.553024	-1.247716	-0.000237	0.001005	-0.020964	-0.620605	0.408447	0.357910	0.299101	-0.685855	-0.301003	-0.591218
62118		9.711484	-0.474500	-1.222244	-0.000034	0.000055	-0.020180	-0.616943	0.408936	0.349609	0.298920	-0.685841	-0.301021	-0.591317
62119		9.733731	-0.435589	-1.211513	-0.001975	0.003190	-0.012299	-0.620117	0.402100	0.349365	0.298841	-0.685815	-0.301002	-0.591397
62120		9.702254	-0.494963	-1.202854	0.003618	0.001493	-0.006345	-0.622070	0.403809	0.347656	0.298883	-0.685773	-0.301052	-0.591398
62121		9.680997	-0.536518	-1.224385	0.006243	-0.001576	-0.006382	-0.625244	0.403564	0.348145	0.298936	-0.685743	-0.301135	-0.591364
62122		9.699481	-0.506288	-1.184128	0.003811	0.000710	-0.010375	-0.618896	0.406982	0.353760	0.298943	-0.685688	-0.301228	-0.591376
62123		9.739543	-0.533555	-1.184641	0.000634	0.009734	-0.012011	-0.617676	0.406250	0.351562	0.298897	-0.685613	-0.301186	-0.591508
62124		9.702188	-0.524948	-1.214328	0.011016	0.007861	-0.011759	-0.614258	0.407715	0.350342	0.298949	-0.685506	-0.301244	-0.591577
62125		9.697420	-0.481173	-1.164972	0.009416	0.013303	-0.011188	-0.629150	0.405518	0.351318	0.299012	-0.685371	-0.301254	-0.591697
62126		9.712556	-0.526219	-1.160941	-0.002277	0.012523	-0.010660	-0.626221	0.402100	0.359863	0.298976	-0.685269	-0.301217	-0.591851
62127		9.713844	-0.553953	-1.213176	-0.003351	0.005826	-0.013729	-0.626221	0.399658	0.349121	0.298847	-0.685235	-0.301170	-0.591980
62128		9.706262	-0.546460	-1.188816	0.002610	0.012186	-0.015505	-0.627197	0.400146	0.361084	0.298844	-0.685080	-0.301256	-0.592117
62129		9.697400	-0.513536	-1.189263	0.018063	0.018646	-0.018984	-0.618164	0.398926	0.348877	0.298904	-0.684852	-0.301362	-0.592297
62130		9.709627	-0.493239	-1.145436	0.015763	0.010980	-0.017633	-0.624023	0.410889	0.344971	0.298992	-0.684660	-0.301544	-0.592381
62131		9.694217	-0.448908	-1.164681	0.015621	0.007269	-0.015279	-0.623047	0.398926	0.351562	0.299066	-0.684517	-0.301686	-0.592437
62132		9.686008	-0.457049	-1.172919	0.009909	0.004281	-0.010187	-0.629883	0.404297	0.354248	0.299113	-0.684433	-0.301766	-0.592470
62133		9.699516	-0.532949	-1.174392	0.009703	0.005238	-0.010972	-0.619629	0.405029	0.342041	0.299125	-0.684356	-0.301811	-0.592530
62134		9.744569	-0.546748	-1.183338	0.014153	0.009290	-0.013679	-0.625977	0.403809	0.347168	0.299234	-0.684192	-0.301961	-0.592588
62135		9.719395	-0.506259	-1.139693	0.018320	0.019594	-0.019387	-0.617188	0.405762	0.344238	0.299346	-0.683925	-0.302127	-0.592754
62136		9.702869	-0.547513	-1.137219	0.026573	0.018922	-0.021476	-0.615234	0.410156	0.344971	0.299525	-0.683629	-0.302367	-0.592883
62137		9.668121	-0.467801	-1.146263	0.021530	0.015890	-0.023908	-0.617676	0.401123	0.349609	0.299621	-0.683379	-0.302570	-0.593019
62138		9.710861	-0.470210	-1.152048	0.020187	0.009349	-0.019907	-0.622803	0.400635	0.347168	0.299698	-0.683196	-0.302760	-0.593094
62139		9.715363	-0.453570	-1.098621	0.021145	0.009258	-0.019120	-0.625000	0.410156	0.347168	0.299793	-0.683001	-0.302975	-0.593161
62140		9.721366	-0.444429	-1.116597	0.010781	0.009681	-0.016436	-0.621338	0.407227	0.346191	0.299808	-0.682868	-0.303050	-0.593268
62141		9.723808	-0.488638	-1.130795	0.014072	0.007650	-0.017315	-0.629150	0.404785	0.348633	0.299848	-0.682730	-0.303176	-0.593342
62142		9.711561	-0.470559	-1.114814	0.014592	0.004959	-0.015809	-0.625488	0.412842	0.348145	0.299875	-0.682615	-0.303305	-0.593395
62143		9.673932	-0.485367	-1.128486	0.010184	0.004784	-0.016320	-0.625488	0.409424	0.349365	0.299860	-0.682530	-0.303374	-0.593465
62144		9.693342	-0.428682	-1.163826	0.008004	0.009035	-0.014056	-0.635742	0.407471	0.351318	0.299856	-0.682429	-0.303395	-0.593573
62145		9.693964	-0.340757	-1.121214	0.004973	0.006676	-0.007389	-0.619385	0.401855	0.347412	0.299848	-0.682378	-0.303352	-0.593657
62146		9.722114	-0.316801	-1.091651	0.002915	0.009174	0.003511	-0.620361	0.398193	0.354492	0.299952	-0.682349	-0.303216	-0.593707
62147		9.714589	-0.487310	-1.078511	0.000375	0.011893	0.009201	-0.623779	0.408936	0.351807	0.300058	-0.682347	-0.302970	-0.593782
62148		9.696065	-0.580385	-1.113669	0.003002	0.009628	0.005293	-0.629150	0.409912	0.352783	0.300148	-0.682343	-0.302769	-0.593844
62149		9.715966	-0.614623	-1.120289	0.005444	0.001497	-0.005622	-0.635254	0.409180	0.349854	0.300136	-0.682350	-0.302705	-0.593875
62150		9.744598	-0.479727	-1.068722	0.004387	0.001934	-0.012082	-0.627197	0.406982	0.347168	0.300073	-0.682318	-0.302716	-0.593937
62151		9.727738	-0.513686	-1.119704	0.007091	0.000740	-0.013282	-0.625977	0.406250	0.343994	0.300043	-0.682274	-0.302778	-0.593971
62152		9.682831	-0.438856	-1.132515	0.009948	-0.003889	-0.013435	-0.625488	0.406738	0.347900	0.300035	-0.682243	-0.302901	-0.593949
62153		9.705226	-0.409536	-1.134231	0.012620	-0.003394	-0.007045	-0.626465	0.401855	0.348877	0.300082	-0.682236	-0.302959	-0.593903
62154		9.690424	-0.417134	-1.112697	0.002301	-0.000074	0.001113	-0.622803	0.402588	0.349854	0.300112	-0.682269	-0.302871	-0.593895
62155		9.726813	-0.444694	-1.132993	0.005748	0.000209	0.000838	-0.627441	0.413574	0.339355	0.300170	-0.682292	-0.302797	-0.593876
62156		9.698804	-0.477995	-1.111711	0.002520	-0.001819	0.005793	-0.622314	0.408203	0.349609	0.300264	-0.682341	-0.302702	-0.593821
62157		9.742934	-0.472597	-1.079386	0.004297	0.000805	0.005396	-0.624268	0.416504	0.351807	0.300346	-0.682390	-0.302560	-0.593795
62158		9.705501	-0.523867	-1.088281	-0.009401	0.000293	0.003464	-0.621826	0.397705	0.339600	0.300281	-0.682505	-0.302294	-0.593831
62159		9.696311	-0.518421	-1.136050	0.004624	-0.001388	0.000377	-0.626953	0.409668	0.345215	0.300368	-0.682500	-0.302311	-0.593785
62160		9.718247	-0.529859	-1.151377	0.006271	0.003431	-0.002918	-0.622803	0.413818	0.346191	0.300428	-0.682474	-0.302277	-0.593802
62161		9.699060	-0.456823	-1.128078	0.018681	0.000654	-0.001120	-0.621338	0.412598	0.348633	0.300599	-0.682441	-0.302306	-0.593739
62162		9.685275	-0.388381	-1.076535	0.015703	0.000777	0.005290	-0.622314	0.404053	0.354004	0.300784	-0.682449	-0.302245	-0.593667
62163		9.690571	-0.401214	-1.128264	0.009333	0.002932	0.016530	-0.617676	0.416260	0.347656	0.300982	-0.682512	-0.302027	-0.593606
62164		9.714975	-0.427080	-1.144689	0.013737	0.002960	0.021858	-0.616943	0.401611	0.346191	0.301291	-0.682577	-0.301794	-0.593492
62165		9.768648	-0.463722	-1.057576	0.001435	0.004792	0.024805	-0.626953	0.409180	0.349365	0.301528	-0.682661	-0.301496	-0.593427
62166		9.754664	-0.728079	-1.065260	-0.014482	0.005759	0.014833	-0.623779	0.409180	0.345703	0.301531	-0.682773	-0.301128	-0.593484
62167		9.689434	-0.724014	-1.141842	0.003958	-0.001631	-0.002654	-0.621582	0.417725	0.348877	0.301553	-0.682794	-0.301094	-0.593465
62168		9.665829	-0.647668	-1.078354	0.014027	-0.001366	-0.012714	-0.628418	0.407227	0.346680	0.301580	-0.682760	-0.301172	-0.593450
62169		9.731877	-0.467882	-1.100021	0.009369	-0.003698	-0.014681	-0.622559	0.409424	0.348389	0.301539	-0.682729	-0.301293	-0.593446
62170		9.719560	-0.496844	-1.112313	0.010993	-0.003386	-0.015676	-0.627441	0.413330	0.350586	0.301509	-0.682698	-0.301409	-0.593438
62171		9.709050	-0.457119	-1.106917	0.014686	-0.006861	-0.009227	-0.616943	0.415527	0.352051	0.301530	-0.682712	-0.301489	-0.593371
62172		9.723015	-0.509865	-1.126841	0.005943	0.000207	-0.007080	-0.629150	0.404053	0.345947	0.301532	-0.682730	-0.301434	-0.593377
62173		9.717015	-0.551966	-1.121049	0.005594	-0.001775	-0.009389	-0.624268	0.408936	0.344727	0.301506	-0.682710	-0.301489	-0.593385
62174		9.701775	-0.525895	-1.105836	0.007065	-0.003779	-0.010979	-0.620605	0.414307	0.341797	0.301488	-0.682700	-0.301565	-0.593366
62175		9.694157	-0.471774	-1.119356	0.005091	-0.006069	-0.012293	-0.627930	0.398438	0.346191	0.301456	-0.682710	-0.301647	-0.593330
62176		9.719288	-0.436555	-1.092131	-0.004818	-0.009620	-0.005990	-0.621338	0.413086	0.348633	0.301333	-0.682796	-0.301635	-0.593299
62177		9.733963	-0.568102	-1.133303	-0.008372	-0.009120	-0.005647	-0.624512	0.404053	0.342285	0.301197	-0.682924	-0.301534	-0.593273
62178		9.723936	-0.552104	-1.171163	-0.005532	-0.001464	-0.010601	-0.629639	0.408203	0.347656	0.301091	-0.682930	-0.301536	-0.593318
62179		9.693719	-0.487067	-1.107209	0.001432	0.005936	-0.008907	-0.626465	0.404297	0.346436	0.301057	-0.682881	-0.301505	-0.593408
62180		9.704029	-0.405130	-1.078780	0.000576	-0.000049	-0.003565	-0.623779	0.407227	0.349365	0.301040	-0.682894	-0.301458	-0.593426
62181		9.715093	-0.550323	-1.168797	-0.009932	-0.001988	-0.001480	-0.613770	0.413818	0.343994	0.300938	-0.682983	-0.301295	-0.593457
62182		9.677438	-0.544411	-1.201348	0.002408	-0.000691	-0.003770	-0.624023	0.408936	0.349121	0.300980	-0.683003	-0.301255	-0.593434
62183		9.724446	-0.460321	-1.130406	0.001155	-0.000262	-0.002314	-0.628174	0.406250	0.342773	0.300977	-0.683034	-0.301176	-0.593440
62184		9.734402	-0.567688	-1.084687	-0.009284	0.004786	-0.002797	-0.621826	0.418213	0.343018	0.300911	-0.683039	-0.301054	-0.593529
62185		9.701621	-0.548101	-1.125550	0.005067	0.000767	-0.006088	-0.624268	0.411133	0.345459	0.300960	-0.683023	-0.301055	-0.593522
62186		9.701392	-0.491380	-1.148562	0.004194	0.001316	-0.005095	-0.618408	0.413574	0.346436	0.300985	-0.683011	-0.301036	-0.593533
62187		9.721383	-0.439163	-1.115677	0.006092	0.002368	-0.001671	-0.625732	0.415283	0.351807	0.301070	-0.683005	-0.300987	-0.593522
62188		9.752946	-0.503023	-1.108631	-0.011191	0.004186	-0.000482	-0.617676	0.407471	0.339600	0.300989	-0.683068	-0.300761	-0.593605
62189		9.702608	-0.577194	-1.117251	-0.003481	0.001738	-0.001767	-0.625732	0.409424	0.348877	0.301006	-0.683076	-0.300695	-0.593621
62190		9.697368	-0.558196	-1.113668	0.011490	0.000609	-0.003143	-0.622559	0.410645	0.339844	0.301086	-0.683056	-0.300700	-0.593600
62191		9.653478	-0.455764	-1.122783	0.011405	-0.000010	-0.000109	-0.628906	0.410400	0.337891	0.301228	-0.683027	-0.300734	-0.593544
62192		9.694757	-0.455545	-1.120886	0.011944	-0.003489	0.005297	-0.620361	0.403809	0.347412	0.301390	-0.683033	-0.300751	-0.593447
62193		9.750322	-0.495688	-1.105894	0.012864	0.004029	0.008398	-0.624512	0.410889	0.337402	0.301583	-0.683022	-0.300665	-0.593404
62194		9.726750	-0.555736	-1.106805	0.008892	0.006434	0.007160	-0.623291	0.416260	0.342529	0.301782	-0.682974	-0.300608	-0.593388
62195		9.712402	-0.612357	-1.109183	0.014312	0.003435	0.003840	-0.621338	0.410400	0.358643	0.301991	-0.682934	-0.300597	-0.593333
62196		9.683410	-0.581870	-1.099076	0.017702	0.001410	-0.000988	-0.612793	0.407715	0.343994	0.302119	-0.682927	-0.300565	-0.593292
62197		9.708713	-0.540298	-1.118734	0.010836	-0.000414	-0.002283	-0.623047	0.410645	0.338623	0.302235	-0.682914	-0.300585	-0.593238
62198		9.730003	-0.528087	-1.091606	0.011349	-0.002323	-0.004659	-0.619141	0.417480	0.341553	0.302327	-0.682883	-0.300667	-0.593185
62199		9.704006	-0.552192	-1.109788	-0.001145	-0.000198	-0.003426	-0.626953	0.412354	0.351562	0.302352	-0.682901	-0.300622	-0.593175
62200		9.699840	-0.517271	-1.134858	-0.000122	0.001569	-0.003827	-0.622314	0.413330	0.339111	0.302320	-0.682925	-0.300524	-0.593213
62201		9.717269	-0.526381	-1.109051	0.002005	0.000432	-0.001459	-0.621826	0.408203	0.343018	0.302374	-0.682924	-0.300497	-0.593201
62202		9.706239	-0.528076	-1.117009	0.004785	0.000320	0.000048	-0.621826	0.416016	0.347412	0.302434	-0.682930	-0.300453	-0.593185
62203		9.697238	-0.507866	-1.132899	0.000012	-0.000782	0.003893	-0.625977	0.400879	0.347168	0.302492	-0.682990	-0.300326	-0.593151
62204		9.746681	-0.520364	-1.103764	-0.001831	0.000481	0.005020	-0.624512	0.411865	0.350098	0.302480	-0.683049	-0.300160	-0.593172
62205		9.711745	-0.604448	-1.096501	-0.000132	0.002030	0.001913	-0.618408	0.417969	0.348145	0.302499	-0.683088	-0.300019	-0.593189
62206		9.680296	-0.625948	-1.142565	0.007836	0.001275	-0.003658	-0.625977	0.414062	0.344238	0.302589	-0.683079	-0.300004	-0.593161
62207		9.702408	-0.551127	-1.117253	0.014776	0.004344	-0.004477	-0.623535	0.412598	0.344238	0.302718	-0.683002	-0.300054	-0.593159
62208		9.706847	-0.498676	-1.050878	0.012782	0.003293	-0.003941	-0.627686	0.415283	0.339844	0.302831	-0.682944	-0.300087	-0.593151
62209		9.712269	-0.508628	-1.102816	0.003380	-0.001564	0.000913	-0.623291	0.409668	0.336182	0.302892	-0.682961	-0.300052	-0.593118
62210		9.715013	-0.603964	-1.143149	0.012839	0.010745	-0.000783	-0.621338	0.412354	0.342285	0.303069	-0.682836	-0.300072	-0.593162
62211		9.684139	-0.603245	-1.074213	0.015901	0.011081	-0.005413	-0.626465	0.411133	0.349121	0.303236	-0.682699	-0.300120	-0.593210
62212		9.720503	-0.582199	-1.066665	0.007286	0.005374	-0.008147	-0.622070	0.412354	0.337158	0.303245	-0.682647	-0.300104	-0.593273
62213		9.708527	-0.518708	-1.086100	0.015092	0.002774	-0.008565	-0.620361	0.416504	0.358643	0.303363	-0.682549	-0.300230	-0.593262
62214		9.709568	-0.431883	-1.105577	0.013553	0.002765	-0.000973	-0.626221	0.410645	0.347412	0.303484	-0.682550	-0.300166	-0.593231
62215		9.721402	-0.533273	-1.098773	0.005152	0.000914	0.005326	-0.624512	0.414307	0.352783	0.303559	-0.682586	-0.300043	-0.593213
62216		9.739554	-0.638083	-1.124066	0.003466	-0.001103	0.002696	-0.621826	0.412109	0.340820	0.303597	-0.682650	-0.299913	-0.593186
62217		9.695460	-0.630335	-1.125251	0.008789	-0.003934	-0.001472	-0.619873	0.420410	0.341309	0.303674	-0.682664	-0.299934	-0.593120
62218		9.665649	-0.574961	-1.074127	0.013683	-0.004238	-0.006304	-0.622803	0.416016	0.337891	0.303796	-0.682643	-0.300044	-0.593026
62219		9.683375	-0.551593	-1.115318	0.015714	-0.000075	-0.006189	-0.619141	0.414307	0.352295	0.303932	-0.682574	-0.300164	-0.592975
62220		9.704510	-0.562754	-1.069747	0.010812	0.005982	-0.001833	-0.624512	0.416260	0.338623	0.304044	-0.682541	-0.300106	-0.592985
62221		9.721809	-0.602568	-1.105638	0.008944	0.008643	-0.003681	-0.619629	0.419189	0.348389	0.304165	-0.682445	-0.300114	-0.593030
62222		9.725955	-0.579926	-1.102368	0.011057	0.003316	-0.008622	-0.620850	0.418213	0.351074	0.304251	-0.682392	-0.300155	-0.593026
62223		9.695004	-0.569398	-1.084482	0.010675	0.003198	-0.008158	-0.622803	0.412842	0.338867	0.304321	-0.682351	-0.300174	-0.593028
62224		9.697542	-0.506375	-1.077896	0.008103	-0.002777	-0.007473	-0.625488	0.412842	0.354492	0.304350	-0.682333	-0.300241	-0.593000
62225		9.704707	-0.525013	-1.071860	0.002225	-0.001140	-0.001587	-0.624756	0.427246	0.341309	0.304329	-0.682391	-0.300126	-0.593001
62226		9.700027	-0.638825	-1.133829	0.001722	0.000303	-0.004955	-0.624023	0.411621	0.348145	0.304390	-0.682384	-0.300128	-0.592977
62227		9.709602	-0.595630	-1.121708	0.007794	-0.006787	-0.007723	-0.628418	0.406982	0.351318	0.304365	-0.682423	-0.300160	-0.592929
62228		9.723791	-0.546991	-1.070082	0.009516	-0.001506	-0.009264	-0.622070	0.410156	0.335938	0.304315	-0.682420	-0.300169	-0.592954
62229		9.703638	-0.549959	-1.076756	0.007659	0.000377	-0.007219	-0.623291	0.412842	0.345947	0.304351	-0.682373	-0.300231	-0.592958
62230		9.706456	-0.557410	-1.077944	0.002459	0.001942	-0.008856	-0.624023	0.410156	0.336914	0.304319	-0.682357	-0.300213	-0.593003
62231		9.693495	-0.595048	-1.108937	0.002016	0.005092	-0.008602	-0.620850	0.414551	0.342041	0.304304	-0.682293	-0.300220	-0.593079
62232		9.715007	-0.581074	-1.080120	0.001203	0.007499	-0.008806	-0.624268	0.411621	0.347412	0.304311	-0.682230	-0.300197	-0.593160
62233		9.705267	-0.573569	-1.065770	0.005518	0.007260	-0.010072	-0.621582	0.411621	0.336670	0.304302	-0.682164	-0.300178	-0.593250
62234		9.709180	-0.573210	-1.045528	-0.000798	0.002087	-0.010760	-0.623779	0.413086	0.337158	0.304255	-0.682126	-0.300199	-0.593308
62235		9.720446	-0.560611	-1.086784	0.002771	-0.004143	-0.010617	-0.620850	0.414795	0.347168	0.304215	-0.682121	-0.300268	-0.593299
62236		9.695072	-0.520770	-1.108576	-0.002344	-0.002121	-0.010476	-0.624268	0.411865	0.346191	0.304133	-0.682152	-0.300242	-0.593319
62237		9.705213	-0.523815	-1.121605	-0.007816	-0.001622	-0.006898	-0.625732	0.411865	0.343750	0.304007	-0.682211	-0.300138	-0.593368
62238		9.731533	-0.575587	-1.062610	-0.000886	0.001479	-0.007723	-0.624512	0.412354	0.340332	0.303948	-0.682208	-0.300096	-0.593422
62239		9.723079	-0.623293	-1.086659	-0.006266	-0.002383	-0.010596	-0.620605	0.411865	0.338379	0.303825	-0.682233	-0.300074	-0.593468
62240		9.687802	-0.554488	-1.113098	0.003198	-0.001531	-0.011354	-0.621582	0.408447	0.341797	0.303800	-0.682208	-0.300139	-0.593476
62241		9.691594	-0.553841	-1.094128	0.003736	0.000287	-0.012154	-0.621582	0.413574	0.345947	0.303747	-0.682178	-0.300178	-0.593518
62242		9.724925	-0.530331	-1.037769	0.000143	0.002632	-0.009050	-0.625000	0.411621	0.347168	0.303714	-0.682165	-0.300147	-0.593565
62243		9.710209	-0.566675	-1.078904	-0.004782	-0.000030	-0.009685	-0.625244	0.411133	0.345947	0.303597	-0.682193	-0.300079	-0.593628
62244		9.706816	-0.538847	-1.115514	0.007303	-0.000964	-0.008598	-0.614990	0.414307	0.338623	0.303588	-0.682181	-0.300102	-0.593635
62245		9.732574	-0.535310	-1.080664	0.002844	-0.003048	-0.007917	-0.630615	0.417480	0.348389	0.303619	-0.682182	-0.300154	-0.593591
62246		9.704910	-0.565905	-1.059141	0.008037	0.000526	-0.007682	-0.623291	0.415283	0.341064	0.303640	-0.682160	-0.300172	-0.593598
62247		9.696026	-0.520407	-1.092675	0.004256	-0.001933	-0.004890	-0.631348	0.407715	0.351074	0.303676	-0.682162	-0.300186	-0.593569
62248		9.703318	-0.538900	-1.086379	0.001338	0.000194	-0.004492	-0.625488	0.416748	0.345459	0.303590	-0.682197	-0.300079	-0.593626
62249		9.710576	-0.572702	-1.111737	-0.000637	-0.001494	-0.004876	-0.615723	0.415283	0.348633	0.303573	-0.682227	-0.300033	-0.593624
62250		9.722550	-0.577609	-1.114948	-0.000947	-0.000377	-0.006529	-0.618408	0.408936	0.340332	0.303568	-0.682259	-0.299981	-0.593616
62251		9.731105	-0.525837	-1.091128	0.001534	0.000024	-0.007594	-0.620117	0.412842	0.343750	0.303551	-0.682252	-0.299981	-0.593634
62252		9.703451	-0.572227	-1.100882	0.007839	0.000702	-0.004581	-0.620850	0.415771	0.350830	0.303621	-0.682233	-0.299991	-0.593614
62253		9.687880	-0.586207	-1.099208	0.007161	0.001076	-0.006692	-0.624023	0.414062	0.346924	0.303668	-0.682226	-0.299983	-0.593602
62254		9.715633	-0.575872	-1.102941	0.012971	0.002581	-0.007971	-0.612549	0.415527	0.344971	0.303746	-0.682169	-0.300036	-0.593601
62255		9.713052	-0.564767	-1.101115	0.003761	-0.001104	-0.009180	-0.627197	0.416748	0.343506	0.303785	-0.682168	-0.300071	-0.593565
62256		9.714949	-0.563677	-1.092046	0.011093	-0.003616	-0.009986	-0.620605	0.411133	0.340820	0.303822	-0.682142	-0.300176	-0.593523
62257		9.733435	-0.578725	-1.077217	0.000374	0.004948	-0.012429	-0.619385	0.411621	0.342773	0.303779	-0.682084	-0.300189	-0.593604
62258		9.707235	-0.530492	-1.085944	0.011766	0.005033	-0.012532	-0.627197	0.410889	0.338135	0.303837	-0.681988	-0.300281	-0.593638
62259		9.692767	-0.535914	-1.062799	0.003364	0.003908	-0.010125	-0.619385	0.406738	0.343750	0.303810	-0.681926	-0.300305	-0.593711
62260		9.692856	-0.549269	-1.094669	0.004639	-0.006149	-0.007840	-0.624756	0.415039	0.336182	0.303765	-0.681968	-0.300320	-0.593679
62261		9.714827	-0.543739	-1.079942	0.009152	-0.006699	-0.007391	-0.615723	0.411865	0.345703	0.303813	-0.681962	-0.300436	-0.593602
62262		9.733197	-0.536298	-1.083735	0.004918	-0.001512	-0.006675	-0.623779	0.414795	0.341797	0.303844	-0.681973	-0.300442	-0.593571
62263		9.692789	-0.567975	-1.079735	0.008638	-0.000902	-0.008274	-0.620361	0.410156	0.344971	0.303892	-0.681941	-0.300510	-0.593549
62264		9.703093	-0.548036	-1.109262	-0.002109	0.004384	-0.006548	-0.620361	0.404053	0.343018	0.303854	-0.681934	-0.300431	-0.593616
62265		9.722537	-0.518180	-1.059168	0.007722	0.001507	-0.004520	-0.620605	0.416504	0.344482	0.303865	-0.681921	-0.300400	-0.593641
62266		9.707876	-0.579390	-1.082754	-0.002682	0.000083	-0.005470	-0.624512	0.411865	0.341064	0.303861	-0.681942	-0.300354	-0.593642
62267		9.715294	-0.573676	-1.094156	0.003721	-0.003577	-0.008905	-0.619873	0.409424	0.345215	0.303830	-0.681948	-0.300391	-0.593633
62268		9.714443	-0.524500	-1.069549	0.001279	-0.001501	-0.008115	-0.627686	0.407715	0.342285	0.303784	-0.681968	-0.300369	-0.593645
62269		9.707123	-0.526691	-1.059088	-0.001467	-0.002817	-0.006647	-0.626953	0.408691	0.346680	0.303681	-0.682004	-0.300316	-0.593683
62270		9.706272	-0.586529	-1.125899	0.005578	-0.001094	-0.008461	-0.622314	0.414307	0.341064	0.303631	-0.682006	-0.300307	-0.593710
62271		9.710983	-0.540348	-1.071903	0.003683	0.002179	-0.009395	-0.620850	0.414062	0.334961	0.303648	-0.681963	-0.300343	-0.593733
62272		9.757134	-0.546682	-1.060752	0.003240	0.004704	-0.010067	-0.624023	0.412598	0.341797	0.303687	-0.681882	-0.300406	-0.593774
62273		9.715965	-0.545903	-1.062688	-0.002725	-0.002238	-0.010012	-0.626709	0.408936	0.348633	0.303606	-0.681899	-0.300401	-0.593798
62274		9.669231	-0.581117	-1.108300	0.006201	-0.003159	-0.009971	-0.618652	0.405762	0.342041	0.303543	-0.681914	-0.300409	-0.593809
62275		9.693049	-0.498123	-1.055160	0.004695	-0.004273	-0.009037	-0.620117	0.416016	0.343994	0.303498	-0.681934	-0.300432	-0.593798
62276		9.716941	-0.508995	-1.061938	-0.000407	-0.003064	-0.004999	-0.633057	0.409424	0.341797	0.303512	-0.681969	-0.300418	-0.593757
62277		9.717011	-0.562029	-1.108480	0.000847	-0.003480	-0.006453	-0.618652	0.410645	0.343018	0.303420	-0.681995	-0.300388	-0.593789
62278		9.711485	-0.541914	-1.106184	0.005905	-0.002822	-0.007729	-0.626953	0.403809	0.339600	0.303437	-0.681999	-0.300424	-0.593758
62279		9.728094	-0.541250	-1.069582	0.001779	0.001568	-0.007077	-0.626953	0.407227	0.338379	0.303357	-0.681985	-0.300380	-0.593837
62280		9.710892	-0.592783	-1.091279	0.009515	0.002309	-0.007702	-0.621826	0.414062	0.339355	0.303374	-0.681924	-0.300422	-0.593878
62281		9.702777	-0.578416	-1.118057	0.005655	-0.000462	-0.011502	-0.626465	0.408691	0.344971	0.303394	-0.681879	-0.300515	-0.593872
62282		9.687153	-0.536548	-1.071455	0.010642	-0.004764	-0.012223	-0.625488	0.409424	0.345215	0.303355	-0.681870	-0.300598	-0.593860
62283		9.744076	-0.516613	-1.072033	-0.001364	-0.007162	-0.013091	-0.621826	0.408936	0.342529	0.303207	-0.681922	-0.300613	-0.593869
62284		9.704690	-0.547558	-1.129131	0.002165	-0.002649	-0.010027	-0.620605	0.424072	0.349121	0.303153	-0.681929	-0.300632	-0.593878
62285		9.713080	-0.557052	-1.102629	0.008490	-0.003018	-0.013679	-0.631836	0.410645	0.342529	0.303231	-0.681903	-0.300771	-0.593799
62286		9.701185	-0.532169	-1.068577	0.002622	-0.001902	-0.013531	-0.625732	0.413818	0.342529	0.303125	-0.681884	-0.300815	-0.593852
62287		9.722379	-0.508777	-1.090774	0.002871	-0.000369	-0.013013	-0.622559	0.409668	0.351807	0.303087	-0.681851	-0.300878	-0.593877
62288		9.696769	-0.508061	-1.126327	0.002544	-0.002519	-0.010491	-0.622803	0.408447	0.342285	0.303012	-0.681885	-0.300854	-0.593888
62289		9.710717	-0.536360	-1.103036	0.005569	-0.004790	-0.010028	-0.626465	0.411377	0.342041	0.302976	-0.681894	-0.300907	-0.593869
62290		9.715986	-0.475057	-1.078599	0.005394	-0.001522	-0.006283	-0.625000	0.406494	0.351074	0.302986	-0.681887	-0.300927	-0.593862
62291		9.723407	-0.493531	-1.072685	0.002591	-0.004091	-0.002693	-0.631348	0.406006	0.342041	0.302929	-0.681963	-0.300827	-0.593855
62292		9.713720	-0.580774	-1.120240	-0.004639	0.001483	-0.005206	-0.625977	0.411621	0.338623	0.302806	-0.681981	-0.300717	-0.593952
62293		9.740351	-0.546478	-1.081558	0.001276	0.002238	-0.006553	-0.627441	0.406738	0.351807	0.302810	-0.681947	-0.300720	-0.593988
62294		9.714673	-0.531264	-1.085053	0.001653	-0.001359	-0.008580	-0.616943	0.404297	0.341553	0.302699	-0.681986	-0.300644	-0.594038
62295		9.683516	-0.536416	-1.100273	0.001127	-0.003179	-0.007775	-0.621582	0.410889	0.347900	0.302649	-0.682013	-0.300634	-0.594038
62296		9.708266	-0.531975	-1.135760	0.001560	-0.005081	-0.006182	-0.619629	0.413574	0.352783	0.302615	-0.682070	-0.300607	-0.594003
62297		9.726741	-0.532260	-1.089728	0.001916	0.003275	-0.007421	-0.623779	0.417969	0.341064	0.302620	-0.682075	-0.300546	-0.594027
62298		9.695676	-0.522353	-1.071645	0.006926	0.005809	-0.005938	-0.629883	0.405029	0.342285	0.302744	-0.681995	-0.300594	-0.594031
62299		9.707184	-0.573185	-1.108384	0.003998	0.000469	-0.008667	-0.624756	0.418945	0.349609	0.302666	-0.681977	-0.300579	-0.594098
62300		9.728212	-0.535440	-1.098719	0.008148	-0.000802	-0.008675	-0.617676	0.398682	0.346191	0.302730	-0.681962	-0.300633	-0.594056
62301		9.714569	-0.549597	-1.088533	-0.000328	-0.006157	-0.009599	-0.623291	0.409912	0.343262	0.302578	-0.682035	-0.300578	-0.594077
62302		9.707954	-0.520570	-1.075800	0.006429	-0.004690	-0.010098	-0.624512	0.414307	0.344971	0.302560	-0.682039	-0.300644	-0.594049
62303		9.701370	-0.507359	-1.094925	0.009413	-0.008816	-0.008434	-0.625977	0.411621	0.345947	0.302588	-0.682068	-0.300743	-0.593950
62304		9.689585	-0.538460	-1.107357	0.008217	-0.003443	-0.007539	-0.626221	0.416260	0.335449	0.302602	-0.682072	-0.300784	-0.593919
62305		9.715427	-0.549986	-1.104484	0.004577	-0.003452	-0.008976	-0.620605	0.415771	0.348145	0.302644	-0.682038	-0.300902	-0.593876
62306		9.753900	-0.513166	-1.118049	0.006526	0.005861	-0.010300	-0.625488	0.413086	0.341553	0.302712	-0.681971	-0.300937	-0.593900
62307		9.713302	-0.559584	-1.083263	0.004355	0.008213	-0.010834	-0.619629	0.410889	0.342773	0.302741	-0.681873	-0.300970	-0.593982
62308		9.676416	-0.507162	-1.079689	0.008653	0.001653	-0.008564	-0.619629	0.405273	0.343262	0.302805	-0.681826	-0.301030	-0.593973
62309		9.703134	-0.503565	-1.104518	0.005669	-0.001212	-0.007608	-0.616699	0.413330	0.345215	0.302790	-0.681827	-0.301032	-0.593978
62310		9.737209	-0.504016	-1.091545	-0.002574	-0.000709	-0.005530	-0.615723	0.410156	0.343506	0.302801	-0.681856	-0.300997	-0.593956
62311		9.709518	-0.581031	-1.103936	0.000600	0.001997	-0.009590	-0.621826	0.417725	0.337158	0.302802	-0.681838	-0.301003	-0.593974
62312		9.693856	-0.555051	-1.088319	0.008917	-0.001150	-0.010527	-0.628662	0.399170	0.343750	0.302910	-0.681770	-0.301164	-0.593915
62313		9.710972	-0.499314	-1.066257	0.007343	0.000376	-0.010729	-0.615479	0.411377	0.348877	0.302787	-0.681754	-0.301136	-0.594010
62314		9.707147	-0.564521	-1.102125	0.007256	-0.000076	-0.012508	-0.625488	0.412109	0.340088	0.302814	-0.681732	-0.301203	-0.593988
62315		9.718062	-0.443425	-1.112402	0.005945	-0.000912	-0.008932	-0.625000	0.408691	0.347412	0.302835	-0.681699	-0.301269	-0.593982
62316		9.731683	-0.502739	-1.090741	-0.005682	0.004197	-0.007138	-0.634277	0.419922	0.339600	0.302742	-0.681711	-0.301153	-0.594075
62317		9.707852	-0.489075	-1.083886	0.000839	0.003979	-0.003333	-0.628418	0.418945	0.341064	0.302809	-0.681662	-0.301153	-0.594096
62318		9.713651	-0.506806	-1.086255	-0.003859	0.000934	-0.002236	-0.613525	0.412842	0.343750	0.302850	-0.681667	-0.301118	-0.594088
62319		9.698353	-0.537105	-1.116488	0.005319	-0.002119	-0.003242	-0.621338	0.420410	0.339111	0.302964	-0.681680	-0.301148	-0.594000
62320		9.710179	-0.527200	-1.088404	0.012149	-0.003281	-0.002601	-0.624756	0.403320	0.340332	0.303179	-0.681645	-0.301288	-0.593859
62321		9.707687	-0.556454	-1.101467	0.002262	-0.002341	-0.003426	-0.615479	0.409424	0.343994	0.303113	-0.681681	-0.301213	-0.593889
62322		9.731318	-0.529134	-1.093570	0.008022	0.000462	-0.002876	-0.620117	0.412842	0.345459	0.303216	-0.681675	-0.301219	-0.593841
62323		9.727801	-0.534462	-1.063072	0.011237	0.001764	-0.003956	-0.620361	0.403564	0.337158	0.303350	-0.681637	-0.301261	-0.593794
62324		9.730512	-0.519863	-1.081311	0.012805	0.003966	-0.002196	-0.620361	0.409180	0.344238	0.303434	-0.681584	-0.301253	-0.593816
62325		9.692035	-0.600271	-1.100578	0.005787	0.004838	-0.005476	-0.622314	0.417480	0.339355	0.303482	-0.681546	-0.301229	-0.593848
62326		9.705964	-0.513038	-1.094028	0.016059	0.000312	-0.006671	-0.620850	0.409180	0.337891	0.303675	-0.681462	-0.301391	-0.593763
62327		9.734766	-0.449374	-1.043163	0.013275	0.000832	-0.002438	-0.623779	0.415771	0.338379	0.303800	-0.681419	-0.301436	-0.593725
62328		9.708766	-0.505947	-1.063312	-0.002230	0.001101	0.001585	-0.625244	0.409424	0.341797	0.303875	-0.681433	-0.301374	-0.593703
62329		9.699633	-0.594455	-1.109981	0.000277	0.000292	-0.001324	-0.620361	0.429932	0.342773	0.303864	-0.681459	-0.301286	-0.593723
62330		9.690221	-0.488379	-1.077943	-0.003040	-0.000846	-0.001103	-0.629150	0.412109	0.341309	0.304066	-0.681454	-0.301358	-0.593589
62331		9.696410	-0.553666	-1.045998	0.005450	-0.003068	0.001522	-0.637695	0.405029	0.338623	0.304112	-0.681487	-0.301310	-0.593551
62332		9.698938	-0.539590	-1.065660	-0.002922	-0.001632	-0.001163	-0.618652	0.413086	0.335449	0.303947	-0.681546	-0.301137	-0.593656
62333		9.735215	-0.573287	-1.105414	0.007572	0.006090	-0.002920	-0.627197	0.412842	0.345215	0.304089	-0.681468	-0.301166	-0.593658
62334		9.708706	-0.566631	-1.128233	0.005407	0.004713	-0.005013	-0.623535	0.408691	0.343018	0.304128	-0.681429	-0.301139	-0.593697
62335		9.693100	-0.549419	-1.062739	0.008732	0.002131	-0.006788	-0.630371	0.415771	0.349854	0.304149	-0.681396	-0.301141	-0.593723
62336		9.711298	-0.525969	-1.034391	0.007497	-0.004907	-0.008440	-0.623779	0.407227	0.341064	0.304152	-0.681412	-0.301193	-0.593677
62337		9.719981	-0.490507	-1.104172	0.005667	-0.007568	-0.004052	-0.623291	0.415283	0.337158	0.304116	-0.681472	-0.301180	-0.593633
62338		9.702201	-0.550362	-1.147902	0.001437	-0.003668	-0.005191	-0.619629	0.413574	0.339600	0.304146	-0.681481	-0.301218	-0.593588
62339		9.689779	-0.581563	-1.098903	0.003404	0.001144	-0.004184	-0.621826	0.406250	0.340088	0.304217	-0.681462	-0.301229	-0.593568
62340		9.726224	-0.467001	-1.024793	0.000246	0.001080	-0.005227	-0.617188	0.413574	0.340820	0.304157	-0.681475	-0.301150	-0.593624
62341		9.730225	-0.569020	-1.085594	-0.007796	-0.001877	-0.002064	-0.614990	0.410156	0.348389	0.304147	-0.681533	-0.301073	-0.593601
62342		9.689215	-0.601580	-1.151628	0.001556	-0.004452	-0.005251	-0.619385	0.406250	0.346924	0.304148	-0.681592	-0.301049	-0.593545
62343		9.705150	-0.545931	-1.070290	0.005305	-0.001939	-0.008062	-0.625488	0.402588	0.340820	0.304103	-0.681616	-0.301025	-0.593553
62344		9.720135	-0.490106	-1.058338	0.001184	-0.001477	-0.004152	-0.622559	0.416748	0.342773	0.303989	-0.681660	-0.300910	-0.593619
62345		9.708235	-0.568553	-1.104047	-0.006560	-0.001661	-0.002599	-0.630127	0.416260	0.344238	0.303989	-0.681704	-0.300853	-0.593597
62346		9.715552	-0.563792	-1.115238	0.005341	0.000375	-0.003526	-0.628174	0.410156	0.340332	0.304043	-0.681689	-0.300856	-0.593586
62347		9.691835	-0.574046	-1.092038	0.012937	-0.004236	-0.005368	-0.622314	0.414062	0.342773	0.304079	-0.681680	-0.300913	-0.593549
62348		9.713394	-0.460009	-1.045808	-0.002505	0.000354	-0.002832	-0.626953	0.417480	0.345947	0.304090	-0.681701	-0.300856	-0.593548
62349		9.706743	-0.587894	-1.097085	0.001507	-0.002591	-0.002493	-0.625000	0.409424	0.350586	0.304134	-0.681728	-0.300844	-0.593500
62350		9.692301	-0.610520	-1.107483	-0.000625	-0.005210	-0.006423	-0.623535	0.412354	0.348145	0.304036	-0.681804	-0.300775	-0.593498
62351		9.713753	-0.495454	-1.062535	-0.004269	-0.008338	-0.008493	-0.624023	0.412598	0.341553	0.303924	-0.681894	-0.300748	-0.593466
62352		9.683654	-0.516703	-1.041109	-0.018621	-0.008330	-0.006777	-0.620850	0.408447	0.342285	0.303712	-0.682025	-0.300627	-0.593485
62353		9.695862	-0.552546	-1.109208	-0.015393	-0.007188	-0.003038	-0.622559	0.414062	0.343994	0.303533	-0.682162	-0.300465	-0.593501
62354		9.738253	-0.573062	-1.151079	-0.006410	-0.003682	-0.004496	-0.622070	0.404297	0.344727	0.303483	-0.682221	-0.300410	-0.593487
62355		9.689954	-0.531522	-1.108861	-0.003699	-0.004815	-0.005688	-0.625977	0.417236	0.354248	0.303339	-0.682303	-0.300301	-0.593521
62356		9.716541	-0.589400	-1.071353	-0.010844	-0.006269	-0.009539	-0.614990	0.406982	0.342041	0.303206	-0.682397	-0.300247	-0.593509
62357		9.699748	-0.570210	-1.078195	-0.011035	-0.006552	-0.012177	-0.626221	0.416016	0.344727	0.303019	-0.682479	-0.300202	-0.593532
62358		9.707269	-0.524675	-1.137102	-0.005798	-0.005559	-0.010824	-0.627197	0.409668	0.345947	0.302927	-0.682518	-0.300225	-0.593523
62359		9.722184	-0.537554	-1.142661	-0.002412	-0.003346	-0.008349	-0.630127	0.423584	0.350342	0.302817	-0.682557	-0.300183	-0.593556
62360		9.733618	-0.556476	-1.117821	0.005346	-0.003771	-0.010829	-0.625732	0.417480	0.346436	0.302884	-0.682532	-0.300322	-0.593480
62361		9.710519	-0.534438	-1.091692	-0.003217	0.000908	-0.009765	-0.624512	0.409424	0.337891	0.302867	-0.682515	-0.300345	-0.593496
62362		9.705554	-0.568291	-1.134547	-0.003374	-0.003268	-0.009137	-0.620850	0.412354	0.346680	0.302764	-0.682535	-0.300334	-0.593532
62363		9.718050	-0.541350	-1.135575	0.004711	-0.004807	-0.009960	-0.613281	0.411621	0.347656	0.302765	-0.682545	-0.300406	-0.593483
62364		9.693438	-0.541737	-1.101736	0.006238	-0.001810	-0.012104	-0.622314	0.413574	0.346436	0.302806	-0.682523	-0.300509	-0.593435
62365		9.719492	-0.552125	-1.098543	0.003285	-0.002209	-0.011426	-0.621826	0.411377	0.340332	0.302801	-0.682508	-0.300585	-0.593416
62366		9.698174	-0.538626	-1.143624	-0.000493	-0.000835	-0.011879	-0.629639	0.413330	0.346680	0.302747	-0.682488	-0.300629	-0.593444
62367		9.727037	-0.542319	-1.109856	0.007867	0.001026	-0.013391	-0.622070	0.407959	0.347168	0.302740	-0.682425	-0.300722	-0.593474
62368		9.703162	-0.527041	-1.103635	-0.000460	0.001031	-0.013083	-0.628662	0.411865	0.339355	0.302643	-0.682413	-0.300719	-0.593539
62369		9.709919	-0.581054	-1.119636	-0.003588	0.005926	-0.014691	-0.625732	0.412109	0.352295	0.302542	-0.682339	-0.300730	-0.593670
62370		9.700740	-0.548789	-1.054156	0.006400	0.001333	-0.019396	-0.622803	0.410889	0.356689	0.302489	-0.682272	-0.300851	-0.593713
62371		9.714900	-0.558806	-1.128135	-0.004092	-0.000043	-0.021181	-0.621826	0.418945	0.349854	0.302330	-0.682261	-0.300902	-0.593780
62372		9.716392	-0.515486	-1.104519	0.008781	0.001339	-0.022249	-0.614990	0.411377	0.354736	0.302385	-0.682144	-0.301157	-0.593757
62373		9.688059	-0.457796	-1.103642	-0.000621	-0.000470	-0.017563	-0.625732	0.405029	0.349854	0.302342	-0.682126	-0.301248	-0.593753
62374		9.715818	-0.498462	-1.093324	-0.004586	0.001048	-0.014913	-0.617920	0.415771	0.344971	0.302161	-0.682133	-0.301199	-0.593862
62375		9.724327	-0.499269	-1.115043	-0.000104	0.001792	-0.012631	-0.620850	0.410156	0.347168	0.302208	-0.682080	-0.301304	-0.593846
62376		9.723436	-0.487920	-1.103919	-0.010658	-0.000230	-0.011372	-0.626221	0.410400	0.345459	0.302088	-0.682109	-0.301261	-0.593896
62377		9.703147	-0.521059	-1.113694	-0.007360	-0.001555	-0.011312	-0.626709	0.407959	0.352295	0.301967	-0.682130	-0.301239	-0.593945
62378		9.713711	-0.492484	-1.123744	-0.006502	-0.001461	-0.011384	-0.621094	0.403320	0.345459	0.301828	-0.682166	-0.301189	-0.593999
62379		9.698470	-0.505039	-1.123157	-0.002338	-0.005789	-0.012032	-0.625488	0.413818	0.345947	0.301674	-0.682221	-0.301170	-0.594024
62380		9.708374	-0.492015	-1.105467	-0.003399	-0.005120	-0.007936	-0.624512	0.406982	0.350098	0.301650	-0.682253	-0.301205	-0.593982
62381		9.736608	-0.519186	-1.124293	-0.002597	0.001972	-0.010637	-0.625488	0.414795	0.343750	0.301565	-0.682249	-0.301169	-0.594047
62382		9.714319	-0.536109	-1.111145	-0.000626	0.003074	-0.011185	-0.624023	0.411621	0.342041	0.301585	-0.682189	-0.301237	-0.594072
62383		9.694173	-0.522845	-1.085582	-0.003271	0.001737	-0.013671	-0.621826	0.406738	0.351318	0.301528	-0.682148	-0.301286	-0.594123
62384		9.694833	-0.504394	-1.114348	-0.003413	-0.002441	-0.013045	-0.623535	0.405762	0.344727	0.301420	-0.682172	-0.301290	-0.594147
62385		9.717512	-0.519835	-1.081376	-0.005594	-0.003201	-0.014217	-0.626953	0.409912	0.349854	0.301258	-0.682199	-0.301283	-0.594203
62386		9.733348	-0.485544	-1.112315	-0.007433	-0.002602	-0.014014	-0.619873	0.403809	0.351562	0.301123	-0.682220	-0.301292	-0.594242
62387		9.721624	-0.445684	-1.106331	-0.001131	0.003736	-0.010658	-0.621338	0.408936	0.352051	0.301058	-0.682207	-0.301251	-0.594310
62388		9.719203	-0.518969	-1.091331	-0.004348	0.011081	-0.008582	-0.616455	0.405029	0.351074	0.301067	-0.682141	-0.301193	-0.594411
62389		9.698698	-0.452500	-1.079078	-0.000308	0.005059	-0.008888	-0.629395	0.410156	0.348389	0.301063	-0.682116	-0.301165	-0.594456
62390		9.721298	-0.507864	-1.128344	-0.000822	0.000747	-0.007797	-0.627686	0.404297	0.356445	0.301041	-0.682105	-0.301161	-0.594482
62391		9.683280	-0.487369	-1.128616	0.007469	0.001999	-0.006262	-0.625000	0.406738	0.346191	0.301053	-0.682092	-0.301139	-0.594502
62392		9.711340	-0.499764	-1.115066	0.012023	0.000292	-0.007659	-0.629395	0.399902	0.350342	0.301118	-0.682047	-0.301209	-0.594486
62393		9.715975	-0.492815	-1.075319	0.013109	-0.000565	-0.006932	-0.624756	0.408447	0.345215	0.301092	-0.682038	-0.301192	-0.594517
62394		9.711017	-0.511783	-1.086537	0.006176	-0.002376	-0.009064	-0.618164	0.403320	0.344971	0.301108	-0.682022	-0.301259	-0.594494
62395		9.720690	-0.491244	-1.116789	0.003756	0.000909	-0.010399	-0.628662	0.404785	0.342285	0.301077	-0.682004	-0.301271	-0.594524
62396		9.700882	-0.463797	-1.120105	0.004700	0.001448	-0.008690	-0.628662	0.403809	0.340820	0.301033	-0.681975	-0.301263	-0.594584
62397		9.727952	-0.437191	-1.092804	0.002758	0.000144	-0.003318	-0.619385	0.401123	0.343750	0.300996	-0.681983	-0.301193	-0.594628
62398		9.719871	-0.478955	-1.105028	0.001487	0.001143	-0.000941	-0.621094	0.409668	0.352051	0.300988	-0.682013	-0.301085	-0.594654
62399		9.721671	-0.510371	-1.098111	0.004560	0.000778	-0.001681	-0.630371	0.408691	0.348145	0.301092	-0.682016	-0.301077	-0.594601
62400		9.694360	-0.519401	-1.093924	0.003753	-0.003639	-0.004086	-0.622559	0.410645	0.342773	0.301095	-0.682041	-0.301072	-0.594573
62401		9.715661	-0.490593	-1.096047	-0.001408	-0.001114	-0.003023	-0.627686	0.403076	0.349121	0.301131	-0.682056	-0.301057	-0.594545
62402		9.709696	-0.471810	-1.093106	0.002826	0.001201	-0.000618	-0.623047	0.411865	0.343750	0.301116	-0.682083	-0.300943	-0.594579
62403		9.716386	-0.513134	-1.078150	-0.000798	0.000547	-0.002974	-0.627197	0.405273	0.356689	0.301175	-0.682081	-0.300935	-0.594556
62404		9.710684	-0.540057	-1.109592	0.002084	-0.000091	-0.006353	-0.631104	0.409180	0.337402	0.301138	-0.682104	-0.300884	-0.594574
62405		9.701011	-0.518471	-1.125652	0.002441	0.000655	-0.005898	-0.619141	0.408691	0.350098	0.301127	-0.682076	-0.300883	-0.594613
62406		9.702749	-0.471389	-1.081634	0.003336	-0.000475	-0.007810	-0.627930	0.406738	0.336182	0.301165	-0.682071	-0.300919	-0.594581
62407		9.738010	-0.479530	-1.079460	0.002546	0.000486	-0.005038	-0.620605	0.409180	0.351318	0.301147	-0.682054	-0.300896	-0.594621
62408		9.725901	-0.503323	-1.079026	0.000188	0.002342	-0.003390	-0.631104	0.410156	0.345703	0.301201	-0.682056	-0.300861	-0.594609
62409		9.720272	-0.499704	-1.107844	-0.000159	-0.003981	-0.004195	-0.627197	0.406006	0.342285	0.301179	-0.682089	-0.300843	-0.594592
62410		9.723597	-0.485140	-1.058424	0.006534	-0.006170	-0.002295	-0.625977	0.407715	0.348389	0.301187	-0.682130	-0.300837	-0.594544
62411		9.677176	-0.507977	-1.073182	0.004122	-0.008465	-0.003982	-0.620605	0.401611	0.350586	0.301182	-0.682195	-0.300849	-0.594466
62412		9.685631	-0.557464	-1.131214	0.002074	-0.005052	-0.005784	-0.619141	0.410645	0.354004	0.301113	-0.682261	-0.300795	-0.594452
62413		9.712539	-0.530387	-1.105447	0.008885	-0.005952	-0.009975	-0.634521	0.408936	0.349854	0.301182	-0.682267	-0.300925	-0.594344
62414		9.705411	-0.501417	-1.092637	0.004494	-0.003779	-0.010763	-0.623535	0.406006	0.343262	0.301120	-0.682266	-0.300968	-0.594355
62415		9.689125	-0.506191	-1.081170	0.002545	-0.005499	-0.011134	-0.625977	0.406250	0.348389	0.301048	-0.682286	-0.301014	-0.594346
62416		9.691301	-0.520231	-1.104841	0.008418	-0.009001	-0.011005	-0.621582	0.406250	0.354492	0.301009	-0.682316	-0.301106	-0.594284
62417		9.717401	-0.469009	-1.097685	0.003648	-0.009445	-0.011041	-0.629395	0.406006	0.350098	0.300951	-0.682378	-0.301168	-0.594211
62418		9.718327	-0.474902	-1.111362	0.003501	-0.013009	-0.009489	-0.626465	0.405273	0.351562	0.300848	-0.682464	-0.301214	-0.594141
62419		9.700277	-0.464319	-1.139854	-0.000216	-0.010605	-0.007242	-0.622314	0.404541	0.348877	0.300746	-0.682560	-0.301202	-0.594088
62420		9.712950	-0.522798	-1.130026	0.004037	-0.006414	-0.006048	-0.624512	0.405762	0.345459	0.300716	-0.682611	-0.301204	-0.594044
62421		9.712548	-0.505312	-1.100063	0.002020	-0.006709	-0.009404	-0.620605	0.410400	0.344482	0.300645	-0.682649	-0.301233	-0.594022
62422		9.689766	-0.453425	-1.132337	-0.005053	-0.004665	-0.010832	-0.627686	0.413086	0.348145	0.300582	-0.682676	-0.301272	-0.594002
62423		9.732127	-0.579144	-1.153692	-0.012306	-0.002483	-0.009154	-0.630127	0.412842	0.345703	0.300478	-0.682716	-0.301242	-0.594025
62424		9.706875	-0.464109	-1.128860	0.000698	-0.002416	-0.011218	-0.620850	0.409424	0.359619	0.300457	-0.682693	-0.301321	-0.594021
62425		9.714848	-0.480801	-1.123260	-0.004715	-0.005783	-0.009173	-0.613037	0.402832	0.349854	0.300406	-0.682758	-0.301332	-0.593966
62426		9.707901	-0.467809	-1.142502	-0.005126	-0.007172	-0.006582	-0.621338	0.408447	0.347900	0.300321	-0.682854	-0.301285	-0.593924
62427		9.710525	-0.459569	-1.113927	-0.009057	-0.004433	-0.006051	-0.618164	0.411621	0.346924	0.300242	-0.682921	-0.301234	-0.593913
62428		9.716975	-0.492017	-1.148459	-0.010453	0.004779	-0.004466	-0.620605	0.411865	0.344971	0.300250	-0.682917	-0.301169	-0.593945
62429		9.683873	-0.512830	-1.142792	0.000087	0.004385	-0.005455	-0.621826	0.401611	0.351074	0.300331	-0.682869	-0.301192	-0.593949
62430		9.716131	-0.450493	-1.133090	0.000197	-0.000745	-0.004027	-0.625244	0.404785	0.350586	0.300278	-0.682910	-0.301101	-0.593974
62431		9.718127	-0.542582	-1.132643	0.000090	-0.003054	-0.004602	-0.618164	0.401855	0.349609	0.300233	-0.682954	-0.301051	-0.593972
62432		9.709738	-0.506581	-1.108860	0.008560	-0.006865	-0.005616	-0.623291	0.403809	0.349854	0.300237	-0.683001	-0.301073	-0.593905
62433		9.721728	-0.511194	-1.113573	0.008220	-0.008219	-0.006991	-0.622314	0.407471	0.354736	0.300220	-0.683046	-0.301116	-0.593840
62434		9.704522	-0.493778	-1.120420	0.009809	-0.007240	-0.007076	-0.623779	0.404053	0.348877	0.300273	-0.683070	-0.301209	-0.593738
62435		9.716700	-0.528606	-1.126981	0.002978	0.000673	-0.009477	-0.631592	0.402832	0.352295	0.300225	-0.683057	-0.301202	-0.593780
62436		9.705480	-0.482238	-1.100321	0.006300	0.001237	-0.010627	-0.620361	0.404541	0.349854	0.300152	-0.683031	-0.301192	-0.593852
62437		9.701649	-0.447817	-1.116728	0.003055	-0.003234	-0.006205	-0.620605	0.404541	0.349609	0.300139	-0.683059	-0.301189	-0.593829
62438		9.695851	-0.474749	-1.149454	0.003524	-0.007617	-0.004320	-0.620361	0.401611	0.344482	0.300127	-0.683124	-0.301188	-0.593760
62439		9.730640	-0.498300	-1.120899	0.001812	-0.010291	-0.003889	-0.624023	0.406494	0.352295	0.300055	-0.683220	-0.301154	-0.593703
62440		9.727471	-0.518635	-1.124495	0.001611	-0.008080	-0.006815	-0.622559	0.407959	0.352051	0.300013	-0.683283	-0.301172	-0.593643
62441		9.677156	-0.477463	-1.152552	0.001859	-0.007163	-0.007221	-0.617188	0.401367	0.353760	0.299997	-0.683330	-0.301211	-0.593577
62442		9.691241	-0.513221	-1.150025	0.003693	-0.002789	-0.008000	-0.620117	0.407227	0.343262	0.299956	-0.683362	-0.301196	-0.593568
62443		9.725020	-0.496854	-1.106710	0.001002	-0.007260	-0.007148	-0.620117	0.401855	0.342773	0.299931	-0.683404	-0.301235	-0.593514
62444		9.724396	-0.517873	-1.160703	0.001429	-0.008954	-0.010376	-0.626465	0.401855	0.355713	0.299815	-0.683462	-0.301255	-0.593495
62445		9.698939	-0.495204	-1.145551	0.005728	-0.006589	-0.011948	-0.621582	0.406494	0.352051	0.299713	-0.683498	-0.301284	-0.593490
62446		9.703899	-0.502444	-1.139002	0.005244	-0.006550	-0.012342	-0.624512	0.403320	0.351318	0.299679	-0.683513	-0.301378	-0.593442
62447		9.717837	-0.475589	-1.131013	-0.001135	-0.004902	-0.011648	-0.617188	0.415283	0.342773	0.299553	-0.683551	-0.301375	-0.593463
62448		9.714020	-0.471251	-1.150610	0.000769	0.000521	-0.009727	-0.626465	0.403076	0.345703	0.299646	-0.683496	-0.301502	-0.593416
62449		9.712237	-0.468022	-1.159773	0.007016	0.002135	-0.010649	-0.626953	0.399414	0.356689	0.299610	-0.683446	-0.301523	-0.593480
62450		9.706058	-0.462773	-1.127860	0.006847	-0.000209	-0.007255	-0.622803	0.400391	0.346436	0.299551	-0.683457	-0.301473	-0.593523
62451		9.721285	-0.476410	-1.132697	0.003160	-0.003392	-0.005348	-0.621582	0.401123	0.359863	0.299491	-0.683493	-0.301426	-0.593536
62452		9.714556	-0.525414	-1.157255	0.001396	-0.007726	-0.008534	-0.615967	0.403564	0.344238	0.299391	-0.683576	-0.301400	-0.593504
62453		9.690379	-0.496331	-1.181473	0.004242	-0.005249	-0.011289	-0.621094	0.405762	0.350830	0.299357	-0.683585	-0.301473	-0.593473
62454		9.711275	-0.480580	-1.155529	0.005702	-0.003486	-0.011317	-0.624023	0.411377	0.346436	0.299344	-0.683579	-0.301550	-0.593448
62455		9.700900	-0.442491	-1.141230	0.004943	-0.005624	-0.009176	-0.624023	0.410156	0.347168	0.299383	-0.683571	-0.301669	-0.593376
62456		9.706221	-0.466327	-1.165577	0.001473	-0.002330	-0.007328	-0.630615	0.406250	0.366699	0.299406	-0.683565	-0.301721	-0.593346
62457		9.723389	-0.495362	-1.131473	0.000593	0.005001	-0.008116	-0.619873	0.411377	0.355713	0.299373	-0.683547	-0.301666	-0.593411
62458		9.701596	-0.498269	-1.146402	-0.004421	0.003617	-0.007733	-0.623535	0.408447	0.349609	0.299399	-0.683528	-0.301667	-0.593420
62459		9.703916	-0.481908	-1.164480	-0.003181	0.005723	-0.009481	-0.623779	0.405518	0.351074	0.299380	-0.683480	-0.301655	-0.593490
62460		9.709121	-0.490024	-1.155757	0.000828	-0.000294	-0.005821	-0.617676	0.407715	0.347900	0.299368	-0.683488	-0.301632	-0.593499
62461		9.704005	-0.493368	-1.135442	0.000508	-0.002256	-0.008115	-0.615967	0.408691	0.351318	0.299378	-0.683492	-0.301674	-0.593468
62462		9.692803	-0.462884	-1.141398	0.000672	-0.004252	-0.010015	-0.618164	0.402344	0.358398	0.299390	-0.683504	-0.301754	-0.593407
62463		9.711947	-0.477283	-1.127686	-0.001188	-0.003065	-0.008887	-0.621826	0.406494	0.356201	0.299322	-0.683550	-0.301731	-0.593401
62464		9.701880	-0.454975	-1.144613	-0.003011	-0.003095	-0.009600	-0.622559	0.403809	0.358643	0.299264	-0.683580	-0.301738	-0.593391
62465		9.720607	-0.492563	-1.182621	-0.010641	-0.001092	-0.007442	-0.623535	0.403320	0.355713	0.299135	-0.683644	-0.301633	-0.593436
62466		9.742431	-0.454925	-1.164179	0.003433	-0.001201	-0.007884	-0.619385	0.408691	0.356445	0.299110	-0.683652	-0.301631	-0.593440
62467		9.708117	-0.482238	-1.120095	-0.001708	-0.001809	-0.007441	-0.621094	0.401367	0.356201	0.299123	-0.683668	-0.301658	-0.593402
62468		9.698684	-0.506823	-1.170778	0.000123	0.000091	-0.007935	-0.624023	0.401123	0.354492	0.299064	-0.683686	-0.301613	-0.593434
62469		9.682372	-0.481551	-1.155362	0.005409	-0.000686	-0.009359	-0.620605	0.401123	0.357178	0.299020	-0.683682	-0.301614	-0.593460
62470		9.687230	-0.458895	-1.144696	0.006614	-0.001707	-0.007773	-0.628418	0.394043	0.356689	0.299013	-0.683691	-0.301622	-0.593449
62471		9.714453	-0.432569	-1.178669	0.006827	-0.003920	-0.004845	-0.623535	0.400635	0.352539	0.298907	-0.683749	-0.301524	-0.593486
62472		9.737737	-0.495471	-1.119528	0.002912	0.000054	-0.006437	-0.619385	0.406982	0.351562	0.298863	-0.683759	-0.301478	-0.593520
62473		9.687631	-0.485690	-1.148072	0.003739	0.003241	-0.005879	-0.629150	0.411377	0.347656	0.298928	-0.683723	-0.301494	-0.593520
62474		9.690962	-0.478386	-1.177635	0.004870	0.001176	-0.006992	-0.633057	0.406982	0.348633	0.298992	-0.683672	-0.301561	-0.593513
62475		9.696551	-0.448800	-1.146633	0.009544	-0.004997	-0.006046	-0.623047	0.399414	0.354004	0.299017	-0.683667	-0.301623	-0.593474
62476		9.710922	-0.484904	-1.143757	0.001211	-0.002627	-0.006001	-0.622070	0.408691	0.350342	0.298940	-0.683712	-0.301557	-0.593495
62477		9.733425	-0.494060	-1.158874	0.002648	0.005962	-0.007814	-0.627197	0.401123	0.349854	0.298998	-0.683645	-0.301583	-0.593530
62478		9.717217	-0.468753	-1.142298	0.002941	0.003188	-0.009774	-0.618164	0.404785	0.358887	0.298930	-0.683613	-0.301552	-0.593616
62479		9.696943	-0.510457	-1.170958	-0.000498	0.005255	-0.009766	-0.615479	0.402588	0.350098	0.298923	-0.683582	-0.301538	-0.593663
62480		9.705908	-0.473758	-1.168828	0.003351	0.002113	-0.012081	-0.625488	0.406006	0.355957	0.298903	-0.683546	-0.301575	-0.593695
62481		9.717884	-0.446497	-1.168817	0.007715	-0.000674	-0.008254	-0.626465	0.403076	0.344238	0.298940	-0.683523	-0.301632	-0.593675
62482		9.714774	-0.465371	-1.109558	0.009547	0.003101	-0.009959	-0.625000	0.402832	0.348877	0.298952	-0.683452	-0.301679	-0.593726
62483		9.709118	-0.460817	-1.137288	0.006102	0.003297	-0.008743	-0.623535	0.402344	0.355225	0.298951	-0.683404	-0.301688	-0.593777
62484		9.712078	-0.437572	-1.135067	0.006304	0.003561	-0.006103	-0.626221	0.407715	0.350342	0.298976	-0.683375	-0.301669	-0.593808
62485		9.704715	-0.478829	-1.146503	0.007156	0.001795	-0.004968	-0.625488	0.407959	0.339355	0.299055	-0.683335	-0.301704	-0.593796
62486		9.724032	-0.479633	-1.160501	0.007037	-0.001772	-0.003410	-0.626709	0.405762	0.350342	0.299131	-0.683313	-0.301750	-0.593761
62487		9.706327	-0.462282	-1.105483	0.009610	0.000411	-0.004841	-0.624268	0.401611	0.348389	0.299202	-0.683281	-0.301785	-0.593743
62488		9.695744	-0.494624	-1.116231	0.002032	-0.001305	-0.004235	-0.623047	0.402344	0.345703	0.299170	-0.683305	-0.301730	-0.593760
62489		9.701693	-0.480981	-1.116469	0.008662	-0.000127	-0.006547	-0.619385	0.405029	0.348633	0.299194	-0.683281	-0.301752	-0.593765
62490		9.692747	-0.468134	-1.143776	0.009031	-0.001857	-0.005805	-0.620117	0.412109	0.347412	0.299263	-0.683267	-0.301808	-0.593716
62491		9.726960	-0.452770	-1.159948	0.011728	-0.002322	-0.006086	-0.624268	0.404297	0.348633	0.299423	-0.683222	-0.301956	-0.593613
62492		9.715953	-0.469108	-1.139418	0.011469	-0.000761	-0.005969	-0.623779	0.407959	0.356934	0.299487	-0.683193	-0.302008	-0.593588
62493		9.730915	-0.466896	-1.112347	0.004622	0.000272	-0.006587	-0.625000	0.407715	0.345947	0.299536	-0.683178	-0.302041	-0.593563
62494		9.689370	-0.507041	-1.137484	0.002202	-0.001430	-0.007342	-0.618896	0.398438	0.352051	0.299539	-0.683169	-0.302070	-0.593557
62495		9.684352	-0.480622	-1.174609	0.001810	-0.000960	-0.005956	-0.618164	0.405273	0.351562	0.299477	-0.683203	-0.301999	-0.593585
62496		9.704003	-0.457621	-1.136779	0.007784	0.000384	-0.005556	-0.617920	0.395752	0.354980	0.299552	-0.683184	-0.302036	-0.593552
62497		9.726926	-0.497779	-1.154685	0.001310	0.001551	-0.006641	-0.625000	0.403320	0.352783	0.299467	-0.683212	-0.301931	-0.593616
62498		9.711650	-0.481269	-1.150474	0.005644	-0.003484	-0.007347	-0.623291	0.393311	0.352783	0.299448	-0.683228	-0.301946	-0.593598
62499		9.708962	-0.501183	-1.152100	0.001458	0.000165	-0.007619	-0.626465	0.401367	0.349121	0.299308	-0.683264	-0.301825	-0.593689
62500		9.703535	-0.458632	-1.157423	0.003543	0.000515	-0.008235	-0.618164	0.403564	0.350830	0.299256	-0.683254	-0.301802	-0.593738
62501		9.715471	-0.432159	-1.156797	0.002332	0.006877	-0.004659	-0.624023	0.408936	0.354492	0.299298	-0.683214	-0.301751	-0.593789
62502		9.710593	-0.436172	-1.134410	0.001456	0.007380	-0.003666	-0.620361	0.400391	0.352295	0.299373	-0.683165	-0.301715	-0.593825
62503		9.699443	-0.491591	-1.135509	0.004373	0.002835	0.000198	-0.625488	0.408691	0.345703	0.299413	-0.683178	-0.301616	-0.593842
62504		9.715611	-0.498857	-1.118802	0.004784	0.001758	-0.002108	-0.621338	0.408936	0.349609	0.299499	-0.683151	-0.301619	-0.593828
62505		9.710549	-0.488145	-1.126866	0.003764	-0.001697	-0.005301	-0.624023	0.404053	0.359131	0.299556	-0.683148	-0.301658	-0.593782
62506		9.715639	-0.496988	-1.119390	0.005122	-0.004101	-0.004689	-0.628174	0.403320	0.351074	0.299561	-0.683189	-0.301650	-0.593736
62507		9.677148	-0.463054	-1.149018	0.005065	0.001462	-0.004356	-0.623047	0.400635	0.351074	0.299565	-0.683179	-0.301611	-0.593766
62508		9.718489	-0.458605	-1.146653	0.004935	0.002242	-0.004298	-0.624268	0.398193	0.352783	0.299563	-0.683174	-0.301552	-0.593803
62509		9.719729	-0.480989	-1.128788	0.002274	-0.002252	-0.003431	-0.626709	0.406006	0.350098	0.299500	-0.683225	-0.301457	-0.593825
62510		9.712382	-0.522382	-1.141162	0.002667	-0.000850	-0.006030	-0.618652	0.408936	0.349365	0.299494	-0.683225	-0.301452	-0.593829
62511		9.704934	-0.494089	-1.127371	0.004771	0.000764	-0.008777	-0.626709	0.404541	0.346924	0.299550	-0.683190	-0.301521	-0.593807
62512		9.685304	-0.445179	-1.139235	0.005104	0.000250	-0.006194	-0.619873	0.406738	0.349609	0.299554	-0.683172	-0.301523	-0.593825
62513		9.726590	-0.440665	-1.137319	0.001993	-0.000084	-0.002396	-0.626221	0.398193	0.352539	0.299604	-0.683183	-0.301499	-0.593799
62514		9.732917	-0.473365	-1.111559	0.002365	-0.001814	-0.001651	-0.626953	0.407715	0.343506	0.299549	-0.683236	-0.301383	-0.593825
62515		9.716997	-0.534443	-1.154008	-0.000274	-0.003178	-0.004127	-0.625732	0.409180	0.344971	0.299541	-0.683256	-0.301374	-0.593810
62516		9.694036	-0.476928	-1.165491	0.004528	-0.003892	-0.005942	-0.619629	0.407227	0.343994	0.299576	-0.683256	-0.301431	-0.593764
62517		9.709601	-0.467302	-1.118967	0.002666	-0.004587	-0.003604	-0.629395	0.400879	0.349365	0.299611	-0.683283	-0.301451	-0.593704
62518		9.713373	-0.453297	-1.130075	0.002314	-0.007203	-0.002843	-0.623291	0.399902	0.346191	0.299540	-0.683357	-0.301387	-0.593687
62519		9.744506	-0.498453	-1.171109	0.006885	-0.000360	-0.002433	-0.628662	0.408936	0.351074	0.299551	-0.683365	-0.301337	-0.593699
62520		9.718942	-0.493012	-1.125383	0.004559	0.000238	-0.002620	-0.622070	0.395264	0.352051	0.299609	-0.683356	-0.301331	-0.593682
62521		9.680881	-0.490377	-1.157452	0.005677	-0.001213	-0.002810	-0.621338	0.409180	0.352783	0.299558	-0.683397	-0.301227	-0.593713
62522		9.701333	-0.514724	-1.154306	0.001902	-0.004257	-0.001749	-0.625244	0.405518	0.353516	0.299607	-0.683442	-0.301220	-0.593641
62523		9.705993	-0.508073	-1.115059	0.005061	0.001469	-0.004359	-0.624268	0.401855	0.347656	0.299636	-0.683432	-0.301197	-0.593650
62524		9.718196	-0.498024	-1.147001	0.004135	-0.003420	-0.004556	-0.626709	0.402832	0.351318	0.299609	-0.683461	-0.301168	-0.593645
62525		9.711110	-0.500883	-1.136625	0.007354	-0.003255	-0.007495	-0.617920	0.414551	0.346924	0.299587	-0.683468	-0.301185	-0.593639
62526		9.687946	-0.496085	-1.142151	0.004897	-0.001879	-0.007624	-0.623291	0.406250	0.343994	0.299691	-0.683438	-0.301303	-0.593560
62527		9.721673	-0.464262	-1.126697	0.007182	0.000611	-0.006815	-0.623779	0.406494	0.345947	0.299736	-0.683399	-0.301348	-0.593560
62528		9.715834	-0.460415	-1.155540	0.007354	-0.003251	-0.007495	-0.630371	0.402832	0.356934	0.299761	-0.683388	-0.301412	-0.593528
62529		9.694417	-0.495275	-1.174276	0.010566	0.000391	-0.004063	-0.626465	0.404053	0.350586	0.299788	-0.683379	-0.301389	-0.593536
62530		9.715295	-0.495480	-1.118357	0.005822	0.001145	-0.006215	-0.619873	0.396240	0.352051	0.299790	-0.683360	-0.301377	-0.593562
62531		9.688950	-0.481952	-1.122275	0.002444	-0.004240	-0.005324	-0.617676	0.411621	0.345215	0.299697	-0.683425	-0.301293	-0.593577
62532		9.700355	-0.493953	-1.146795	0.001608	-0.004956	-0.006167	-0.626221	0.400391	0.348389	0.299746	-0.683441	-0.301365	-0.593498
62533		9.713228	-0.475911	-1.158831	0.001435	-0.001092	-0.005488	-0.622070	0.405273	0.353271	0.299676	-0.683464	-0.301297	-0.593542
62534		9.708755	-0.510390	-1.140641	0.004946	0.001647	-0.005223	-0.626709	0.410156	0.342529	0.299703	-0.683452	-0.301281	-0.593549
62535		9.719848	-0.506519	-1.132303	0.004965	0.001040	-0.006142	-0.625732	0.406250	0.357666	0.299763	-0.683405	-0.301334	-0.593546
62536		9.686451	-0.482238	-1.153323	0.001915	0.000746	-0.006310	-0.621582	0.398438	0.360840	0.299745	-0.683412	-0.301299	-0.593565
62537		9.704577	-0.473798	-1.156420	-0.001115	-0.000156	-0.007397	-0.615967	0.405029	0.350830	0.299628	-0.683462	-0.301187	-0.593623
62538		9.736181	-0.494064	-1.144934	0.002702	-0.002057	-0.007868	-0.618164	0.401123	0.352783	0.299624	-0.683475	-0.301205	-0.593602
62539		9.697468	-0.512681	-1.168929	0.003425	-0.001168	-0.007886	-0.620850	0.408936	0.348389	0.299584	-0.683492	-0.301184	-0.593614
62540		9.693111	-0.493390	-1.156811	0.005991	-0.000840	-0.008111	-0.621094	0.400879	0.353516	0.299633	-0.683465	-0.301254	-0.593584
62541		9.733892	-0.471869	-1.123921	0.003556	-0.001946	-0.007943	-0.621338	0.399902	0.345215	0.299579	-0.683487	-0.301230	-0.593598
62542		9.700424	-0.500313	-1.139189	0.000810	0.003459	-0.008256	-0.619873	0.406494	0.362305	0.299520	-0.683463	-0.301181	-0.593680
62543		9.705668	-0.493347	-1.159374	0.000854	0.000376	-0.008877	-0.628418	0.409424	0.353271	0.299489	-0.683479	-0.301160	-0.593688
62544		9.691711	-0.499553	-1.136873	0.003288	0.001484	-0.009045	-0.623047	0.404785	0.354248	0.299492	-0.683446	-0.301190	-0.593709
62545		9.704114	-0.465233	-1.116972	0.005736	-0.003016	-0.005566	-0.620605	0.405518	0.350830	0.299500	-0.683467	-0.301195	-0.593679
62546		9.723363	-0.465470	-1.131746	-0.000495	-0.002833	-0.005845	-0.620361	0.409424	0.349854	0.299472	-0.683501	-0.301173	-0.593665
62547		9.727207	-0.504052	-1.136067	0.000930	-0.000449	-0.004964	-0.613037	0.404541	0.350342	0.299508	-0.683503	-0.301180	-0.593641
62548		9.712317	-0.503759	-1.163534	0.004305	-0.003528	-0.007664	-0.624756	0.408691	0.348633	0.299520	-0.683522	-0.301217	-0.593594
62549		9.686649	-0.482203	-1.147277	0.004411	-0.001829	-0.008019	-0.621826	0.402588	0.346436	0.299538	-0.683508	-0.301271	-0.593574
62550		9.705293	-0.504577	-1.153712	0.005517	-0.004538	-0.006073	-0.623291	0.397461	0.347412	0.299527	-0.683529	-0.301286	-0.593547
62551		9.729240	-0.498469	-1.128778	0.001931	0.000146	-0.007230	-0.622070	0.405762	0.350586	0.299443	-0.683539	-0.301220	-0.593611
62552		9.708022	-0.532563	-1.147298	0.004557	-0.001343	-0.010210	-0.629883	0.414062	0.352783	0.299429	-0.683525	-0.301269	-0.593611
62553		9.694606	-0.501152	-1.161872	0.004761	0.003924	-0.012137	-0.622070	0.405273	0.354004	0.299469	-0.683442	-0.301365	-0.593636
62554		9.696120	-0.468628	-1.149161	0.009050	0.000740	-0.010080	-0.622070	0.404053	0.345215	0.299496	-0.683404	-0.301426	-0.593636
62555		9.718897	-0.453515	-1.112738	0.005875	-0.000652	-0.008974	-0.614014	0.408936	0.349121	0.299496	-0.683378	-0.301471	-0.593643
