// Start Time: Unknown
// Update Rate: 40.0Hz
// Filter Profile: human (46.1)
// Firmware Version: 4.6.0
PacketCounter	SampleTimeFine	Acc_X	Acc_Y	Acc_Z	Gyr_X	Gyr_Y	Gyr_Z	Mag_X	Mag_Y	Mag_Z	Quat_q0	Quat_q1	Quat_q2	Quat_q3
61647		9.551028	0.617182	1.983707	-0.011152	-0.021517	-0.003879	-0.708496	0.168457	-0.553223	0.743814	-0.139530	-0.615572	-0.219871
61648		9.568860	0.660810	1.990526	-0.002867	-0.004335	0.000290	-0.712158	0.167480	-0.556641	0.743776	-0.139571	-0.615604	-0.219882
61649		9.560937	0.639905	1.962190	0.008074	-0.008769	-0.003329	-0.707520	0.167725	-0.566895	0.743714	-0.139491	-0.615714	-0.219837
61650		9.518227	0.669605	1.946837	0.008186	-0.006755	-0.001001	-0.716309	0.165771	-0.559082	0.743673	-0.139425	-0.615802	-0.219772
61651		9.499798	0.678287	2.000813	0.007777	-0.014177	-0.002111	-0.714844	0.165771	-0.566895	0.743568	-0.139372	-0.615962	-0.219709
61652		9.544126	0.705699	1.945186	0.021253	-0.020336	-0.013010	-0.706787	0.159912	-0.566895	0.743411	-0.139121	-0.616234	-0.219639
61653		9.526807	0.719072	1.932363	0.010190	-0.010358	-0.017165	-0.716797	0.168213	-0.568848	0.743295	-0.138906	-0.616395	-0.219715
61654		9.553010	0.720573	1.917898	0.003038	-0.003201	-0.018951	-0.707031	0.160889	-0.562988	0.743227	-0.138642	-0.616472	-0.219895
61655		9.570336	0.700095	1.900107	-0.007575	0.001151	-0.018989	-0.708252	0.164307	-0.561523	0.743149	-0.138526	-0.616498	-0.220161
61656		9.541936	0.673400	1.948063	-0.018987	0.003999	-0.015039	-0.702637	0.174805	-0.562256	0.743074	-0.138535	-0.616470	-0.220486
61657		9.534369	0.618399	1.946951	-0.006513	-0.006013	-0.016327	-0.711914	0.169922	-0.574707	0.742939	-0.138445	-0.616572	-0.220711
61658		9.518934	0.627412	1.929386	-0.004690	0.005809	-0.015182	-0.708984	0.164062	-0.567627	0.742899	-0.138314	-0.616573	-0.220924
61659		9.545715	0.659053	1.947477	-0.024069	-0.010369	-0.012170	-0.699707	0.158691	-0.576416	0.742711	-0.138442	-0.616663	-0.221225
61660		9.600544	0.650322	1.933971	-0.025112	-0.002214	-0.007638	-0.706299	0.169189	-0.566406	0.742605	-0.138589	-0.616661	-0.221494
61661		9.552780	0.633285	1.937689	-0.021507	0.002584	-0.001942	-0.712402	0.167725	-0.569336	0.742544	-0.138753	-0.616625	-0.221699
61662		9.518331	0.630153	1.951435	-0.016406	0.005266	-0.000735	-0.706543	0.168457	-0.567871	0.742509	-0.138871	-0.616585	-0.221853
61663		9.488963	0.635688	1.995809	-0.007988	0.001886	-0.000179	-0.704834	0.173340	-0.577148	0.742476	-0.138937	-0.616584	-0.221923
61664		9.486961	0.639934	1.961311	-0.008661	0.000370	-0.003136	-0.707031	0.169678	-0.564209	0.742439	-0.138993	-0.616581	-0.222019
61665		9.561190	0.670853	1.950585	-0.009350	0.003312	-0.005723	-0.707031	0.164795	-0.561523	0.742411	-0.139037	-0.616557	-0.222153
61666		9.591636	0.676408	1.992571	-0.012425	0.012379	-0.002489	-0.708008	0.160156	-0.568604	0.742452	-0.139096	-0.616443	-0.222295
61667		9.554692	0.662087	1.946891	-0.014593	0.012973	-0.000955	-0.707275	0.157471	-0.563477	0.742507	-0.139153	-0.616313	-0.222437
61668		9.519230	0.658312	1.985544	-0.025351	0.020756	-0.000867	-0.714111	0.174805	-0.567871	0.742595	-0.139286	-0.616091	-0.222676
61669		9.523385	0.633679	1.986649	-0.040396	-0.012400	-0.003415	-0.707031	0.163574	-0.565918	0.742382	-0.139700	-0.616132	-0.223013
61670		9.509917	0.617073	2.018051	-0.040504	-0.017865	-0.004045	-0.710938	0.167725	-0.559082	0.742151	-0.140074	-0.616211	-0.223329
61671		9.559782	0.649774	1.971842	-0.038297	-0.021948	0.001235	-0.703125	0.166016	-0.560791	0.741888	-0.140520	-0.616334	-0.223582
61672		9.588542	0.608821	1.936949	-0.023369	-0.014119	0.004442	-0.709473	0.173096	-0.558838	0.741753	-0.140808	-0.616391	-0.223692
61673		9.554917	0.604072	1.947114	-0.008043	-0.007413	0.007013	-0.709717	0.167480	-0.560303	0.741671	-0.141018	-0.616446	-0.223679
61674		9.501047	0.628001	1.983581	-0.002504	-0.015441	0.003733	-0.712891	0.165039	-0.570312	0.741534	-0.141127	-0.616606	-0.223626
61675		9.515582	0.626322	1.940214	0.005250	-0.020002	0.005418	-0.712891	0.171387	-0.565430	0.741409	-0.141138	-0.616806	-0.223480
61676		9.506428	0.654359	1.997021	0.009415	-0.020486	0.007269	-0.706787	0.173340	-0.554688	0.741277	-0.141199	-0.617018	-0.223295
61677		9.529948	0.675149	1.936023	0.008856	-0.020656	0.003550	-0.705566	0.162109	-0.562744	0.741119	-0.141284	-0.617237	-0.223161
61678		9.563662	0.644566	1.931591	0.002220	-0.013311	0.000408	-0.717285	0.171387	-0.571045	0.741041	-0.141226	-0.617366	-0.223099
61679		9.528574	0.677727	1.959282	-0.009415	-0.014191	-0.001297	-0.714111	0.175049	-0.564697	0.740917	-0.141351	-0.617466	-0.223155
61680		9.567330	0.655305	1.986381	-0.020240	-0.016681	-0.001181	-0.714600	0.177490	-0.562744	0.740742	-0.141641	-0.617557	-0.223301
61681		9.558682	0.615941	1.995218	-0.026858	-0.013135	-0.001608	-0.714600	0.175537	-0.563965	0.740575	-0.142011	-0.617595	-0.223514
61682		9.562247	0.597467	1.912866	-0.024342	-0.017600	-0.004106	-0.713379	0.170166	-0.559814	0.740385	-0.142319	-0.617678	-0.223718
61683		9.560406	0.600875	1.897557	-0.019533	-0.004203	-0.000224	-0.705566	0.172119	-0.563965	0.740302	-0.142515	-0.617680	-0.223862
61684		9.555891	0.623094	1.919565	-0.013037	-0.001196	-0.000356	-0.714355	0.167480	-0.563965	0.740321	-0.142646	-0.617593	-0.223956
61685		9.538770	0.594380	1.958071	-0.013870	0.000768	-0.003183	-0.712158	0.167480	-0.560059	0.740296	-0.142695	-0.617564	-0.224087
61686		9.546486	0.569810	1.883134	-0.009789	-0.002746	-0.005763	-0.715820	0.180420	-0.565430	0.740232	-0.142708	-0.617595	-0.224202
61687		9.572139	0.635876	1.898217	-0.008136	0.000563	-0.004512	-0.710449	0.172363	-0.570801	0.740220	-0.142891	-0.617531	-0.224302
61688		9.551319	0.632595	1.892522	-0.015880	-0.010343	-0.004577	-0.711182	0.172363	-0.560791	0.740176	-0.143020	-0.617505	-0.224437
61689		9.565813	0.664152	1.883490	-0.021222	-0.003376	-0.005190	-0.713623	0.172852	-0.563477	0.740096	-0.143214	-0.617486	-0.224631
61690		9.546844	0.640633	1.885804	-0.019359	-0.009033	-0.006555	-0.713623	0.171631	-0.560791	0.739976	-0.143388	-0.617522	-0.224817
61691		9.550887	0.585960	1.851161	-0.015172	-0.013978	-0.005107	-0.708740	0.171387	-0.562256	0.739808	-0.143534	-0.617641	-0.224949
61692		9.531540	0.629842	1.901822	-0.015438	-0.011856	-0.004213	-0.708496	0.168457	-0.561279	0.739705	-0.143666	-0.617688	-0.225071
61693		9.541461	0.599409	1.902302	-0.008817	-0.015401	-0.003802	-0.714600	0.176270	-0.557129	0.739585	-0.143696	-0.617804	-0.225131
61694		9.577116	0.620342	1.847869	-0.002977	-0.010136	-0.004484	-0.715088	0.173828	-0.565186	0.739440	-0.143828	-0.617933	-0.225168
61695		9.574138	0.607621	1.871683	0.000808	-0.006383	-0.002686	-0.715332	0.177490	-0.558350	0.739407	-0.143835	-0.617973	-0.225164
61696		9.588187	0.638943	1.885382	-0.003189	0.002278	-0.003549	-0.712891	0.173340	-0.560547	0.739368	-0.143960	-0.617972	-0.225214
61697		9.550624	0.608553	1.875135	-0.000731	-0.004238	-0.003290	-0.713867	0.175049	-0.554932	0.739321	-0.143983	-0.618017	-0.225230
61698		9.540745	0.624218	1.866444	0.001296	0.001746	-0.005374	-0.719971	0.181152	-0.562256	0.739259	-0.144022	-0.618071	-0.225259
61699		9.519553	0.635824	1.932201	-0.002514	-0.000987	-0.005085	-0.708252	0.170410	-0.562500	0.739193	-0.144203	-0.618084	-0.225323
61700		9.569378	0.635249	1.893277	-0.004730	0.000311	-0.005557	-0.707764	0.171631	-0.559570	0.739229	-0.144150	-0.618027	-0.225398
61701		9.573381	0.612585	1.915014	-0.003325	0.004070	-0.008589	-0.718750	0.170898	-0.560303	0.739263	-0.144091	-0.617965	-0.225492
61702		9.555090	0.622786	1.928526	-0.005188	-0.001947	-0.008338	-0.711182	0.169678	-0.566406	0.739163	-0.144064	-0.618052	-0.225600
61703		9.524443	0.620214	1.864892	-0.008803	-0.016078	-0.006900	-0.722656	0.176514	-0.557861	0.739079	-0.144052	-0.618121	-0.225693
61704		9.556233	0.626948	1.880263	-0.004429	-0.006290	-0.006851	-0.706787	0.172119	-0.553955	0.738901	-0.144187	-0.618272	-0.225778
61705		9.572260	0.638732	1.901193	-0.004618	-0.005902	-0.006027	-0.708252	0.167236	-0.562012	0.738828	-0.144230	-0.618328	-0.225833
61706		9.558326	0.609582	1.886355	-0.004379	-0.000112	-0.008214	-0.713867	0.182861	-0.567627	0.738867	-0.144075	-0.618286	-0.225920
61707		9.526732	0.605403	1.889760	-0.000242	-0.004333	-0.008790	-0.710693	0.176270	-0.567383	0.738896	-0.144231	-0.618192	-0.225984
61708		9.561638	0.626859	1.859084	-0.001835	-0.004257	-0.006623	-0.714111	0.167969	-0.556396	0.738948	-0.144268	-0.618099	-0.226043
61709		9.602368	0.588427	1.831098	0.002027	-0.002900	-0.007993	-0.711670	0.179932	-0.559082	0.738860	-0.144129	-0.618222	-0.226085
61710		9.566619	0.623080	1.861940	0.004808	-0.000588	-0.005494	-0.713379	0.171143	-0.557373	0.738864	-0.144240	-0.618196	-0.226072
61711		9.542946	0.624050	1.866207	0.005751	0.002242	-0.005115	-0.707275	0.172607	-0.559082	0.738851	-0.144144	-0.618238	-0.226061
61712		9.547563	0.617514	1.892518	0.008319	0.001189	-0.004206	-0.710205	0.167480	-0.561035	0.738913	-0.144056	-0.618202	-0.226014
61713		9.555492	0.624266	1.892791	0.006241	0.000029	-0.002732	-0.709717	0.166260	-0.553223	0.738954	-0.143877	-0.618208	-0.225975
61714		9.569380	0.641324	1.857690	0.006302	-0.005466	-0.005217	-0.716309	0.174805	-0.562256	0.738864	-0.143716	-0.618366	-0.225941
61715		9.550415	0.618685	1.860132	0.006163	-0.002345	-0.004067	-0.710205	0.171631	-0.560059	0.738847	-0.143723	-0.618393	-0.225918
61716		9.553890	0.649187	1.860836	0.000241	0.001009	-0.006691	-0.708496	0.173340	-0.563477	0.738871	-0.143683	-0.618360	-0.225958
61717		9.586812	0.635265	1.909146	-0.006624	0.002197	-0.006596	-0.716064	0.176758	-0.559326	0.738945	-0.143722	-0.618228	-0.226050
61718		9.547140	0.624979	1.912880	-0.004616	-0.002466	-0.007715	-0.708496	0.173340	-0.552246	0.738866	-0.143866	-0.618256	-0.226138
61719		9.555172	0.631976	1.912526	-0.002778	-0.002983	-0.005594	-0.722412	0.179688	-0.556885	0.738787	-0.143958	-0.618316	-0.226174
61720		9.539975	0.638783	1.893892	-0.007739	-0.007809	-0.005865	-0.715820	0.170410	-0.557861	0.738587	-0.144251	-0.618452	-0.226271
61721		9.545142	0.632589	1.896700	-0.008609	-0.004820	-0.006599	-0.709717	0.167480	-0.561768	0.738481	-0.144286	-0.618532	-0.226376
61722		9.563897	0.641492	1.887119	-0.007254	-0.006574	-0.005173	-0.711914	0.166992	-0.574219	0.738470	-0.144221	-0.618533	-0.226449
61723		9.596062	0.664816	1.886980	-0.008124	-0.003586	-0.005905	-0.719727	0.165527	-0.557861	0.738589	-0.144080	-0.618379	-0.226570
61724		9.548762	0.663962	1.916970	-0.013535	0.000641	-0.006824	-0.711914	0.177734	-0.563721	0.738472	-0.144049	-0.618461	-0.226747
61725		9.511615	0.634587	1.884086	-0.012075	-0.011083	-0.008288	-0.720215	0.176025	-0.562256	0.738418	-0.144257	-0.618431	-0.226875
61726		9.515184	0.664459	1.905103	-0.011466	-0.005407	-0.009027	-0.719482	0.167725	-0.563721	0.738313	-0.144415	-0.618461	-0.227034
61727		9.580751	0.659595	1.860109	-0.012156	-0.009350	-0.008217	-0.709473	0.177979	-0.562500	0.738192	-0.144402	-0.618545	-0.227206
61728		9.583049	0.640437	1.866110	-0.014069	-0.009882	-0.005479	-0.715332	0.168701	-0.549561	0.738170	-0.144641	-0.618475	-0.227317
61729		9.546734	0.642350	1.864543	-0.010119	-0.003050	-0.006191	-0.723633	0.176025	-0.555664	0.738005	-0.144685	-0.618620	-0.227428
61730		9.559655	0.641803	1.868853	-0.007647	0.001092	-0.006897	-0.715332	0.174072	-0.568359	0.737875	-0.144833	-0.618696	-0.227550
61731		9.540127	0.603336	1.867173	-0.001369	-0.003337	-0.010038	-0.710693	0.168457	-0.552002	0.737920	-0.144791	-0.618614	-0.227657
61732		9.559012	0.628622	1.884766	-0.002933	-0.003623	-0.006862	-0.714355	0.169434	-0.554443	0.737839	-0.144737	-0.618704	-0.227709
61733		9.591383	0.653647	1.841133	-0.010891	-0.005258	-0.005309	-0.713867	0.176514	-0.555908	0.737729	-0.144792	-0.618781	-0.227818
61734		9.591216	0.639281	1.813322	-0.006276	-0.004780	-0.006886	-0.723633	0.174805	-0.557373	0.737657	-0.144939	-0.618803	-0.227899
61735		9.564220	0.610917	1.816141	-0.001734	0.001198	-0.005967	-0.709473	0.178467	-0.564697	0.737567	-0.145001	-0.618868	-0.227973
61736		9.553790	0.625581	1.851834	0.001450	0.001719	-0.007207	-0.721924	0.173828	-0.561279	0.737690	-0.145045	-0.618696	-0.228016
61737		9.577734	0.644498	1.831136	0.001126	0.001781	-0.003541	-0.716553	0.175537	-0.555176	0.737669	-0.145055	-0.618706	-0.228050
61738		9.543922	0.657693	1.870434	0.000877	-0.003656	-0.002370	-0.709961	0.182373	-0.557129	0.737600	-0.145143	-0.618773	-0.228034
61739		9.578622	0.678399	1.840262	-0.000027	-0.000308	-0.004105	-0.713135	0.175781	-0.552490	0.737636	-0.145343	-0.618684	-0.228034
61740		9.580012	0.643142	1.843973	-0.000668	0.005026	-0.005328	-0.724609	0.170166	-0.559814	0.737630	-0.145396	-0.618670	-0.228056
61741		9.562107	0.669742	1.841637	-0.002506	0.005536	-0.007446	-0.718750	0.170166	-0.557373	0.737580	-0.145322	-0.618705	-0.228168
61742		9.556108	0.661721	1.856068	-0.003353	0.008166	-0.007167	-0.715332	0.171631	-0.560059	0.737579	-0.145252	-0.618685	-0.228269
61743		9.568750	0.661310	1.861774	-0.005353	0.002166	-0.005091	-0.715576	0.170654	-0.559082	0.737588	-0.145257	-0.618641	-0.228359
61744		9.594643	0.660495	1.828496	-0.000581	0.010491	-0.004665	-0.711914	0.175293	-0.561279	0.737658	-0.145179	-0.618552	-0.228421
61745		9.575126	0.637247	1.834525	0.007079	0.011835	-0.001540	-0.714600	0.182129	-0.558838	0.737814	-0.145138	-0.618387	-0.228392
61746		9.524826	0.639471	1.875606	0.010720	0.006747	-0.003829	-0.710693	0.169189	-0.558350	0.737887	-0.145211	-0.618305	-0.228331
61747		9.519660	0.663585	1.899781	0.013873	0.008292	-0.002978	-0.717041	0.165527	-0.566406	0.737994	-0.144989	-0.618259	-0.228251
61748		9.495934	0.679380	1.932393	0.006586	0.007501	-0.001561	-0.707764	0.171875	-0.556641	0.738094	-0.144773	-0.618185	-0.228264
61749		9.552704	0.667936	1.912636	0.002286	0.010401	-0.005340	-0.722900	0.166016	-0.554688	0.738197	-0.144700	-0.618074	-0.228281
61750		9.552441	0.684377	1.941427	-0.003237	0.006728	-0.003142	-0.710449	0.167725	-0.569580	0.738114	-0.144624	-0.618165	-0.228347
61751		9.536447	0.675015	1.899087	-0.013120	0.007336	-0.003642	-0.708984	0.171875	-0.557617	0.738255	-0.144600	-0.617943	-0.228511
61752		9.508042	0.597121	1.888800	-0.007861	0.002487	-0.003989	-0.716553	0.174805	-0.569580	0.738274	-0.144657	-0.617880	-0.228584
61753		9.500972	0.640805	1.904389	-0.003743	0.005844	-0.004844	-0.712158	0.171387	-0.558838	0.738367	-0.144686	-0.617725	-0.228682
61754		9.584391	0.673072	1.952540	-0.005859	0.015680	-0.005329	-0.705322	0.167236	-0.559082	0.738468	-0.144668	-0.617570	-0.228787
61755		9.577279	0.647122	1.986562	-0.002130	0.020480	-0.001433	-0.715576	0.170166	-0.560547	0.738674	-0.144541	-0.617339	-0.228828
61756		9.695603	0.618872	1.850125	0.020164	0.079591	0.003687	-0.711426	0.164795	-0.556152	0.739315	-0.144152	-0.616679	-0.228782
61757		9.687885	0.488178	2.135899	0.043762	0.190887	0.014493	-0.702637	0.181641	-0.564941	0.740853	-0.143234	-0.615096	-0.228643
61758		9.575646	0.453947	2.332857	0.046838	0.165431	0.018415	-0.702393	0.169678	-0.565674	0.742325	-0.142675	-0.613555	-0.228357
61759		9.595101	0.594489	2.195216	0.049183	0.144856	0.002697	-0.705811	0.175293	-0.574951	0.743547	-0.141826	-0.612337	-0.228183
61760		9.613728	0.537818	2.032746	0.040422	0.154878	-0.000910	-0.700439	0.167480	-0.582031	0.744832	-0.141103	-0.610954	-0.228144
61761		9.417777	0.542226	1.995281	0.048680	0.130342	-0.006767	-0.702881	0.173096	-0.571533	0.745976	-0.140175	-0.609801	-0.228066
61762		9.469473	0.555625	1.930281	0.043277	0.121437	-0.008118	-0.702393	0.160889	-0.580078	0.746902	-0.139484	-0.608852	-0.227995
61763		9.514543	0.569662	2.002989	0.054219	0.111921	-0.013323	-0.697754	0.164307	-0.584473	0.747786	-0.138453	-0.608034	-0.227906
61764		9.504254	0.699123	2.041870	0.053755	0.086735	-0.003941	-0.697754	0.160156	-0.582031	0.748550	-0.137637	-0.607366	-0.227676
61765		9.449791	0.698128	1.954307	0.056893	0.048797	-0.000521	-0.685303	0.162354	-0.584717	0.748992	-0.136888	-0.607121	-0.227325
61766		9.542990	0.682939	1.981226	0.056119	0.046579	0.000358	-0.694336	0.161865	-0.589600	0.749529	-0.136174	-0.606769	-0.226925
61767		9.564125	0.701629	2.012516	0.054178	0.029411	0.003661	-0.684814	0.160889	-0.589355	0.749890	-0.135570	-0.606612	-0.226514
61768		9.450382	0.736848	2.108755	0.045745	0.013015	0.004299	-0.697510	0.168457	-0.589600	0.750177	-0.135069	-0.606523	-0.226099
61769		9.399059	0.707962	2.117029	0.059519	0.014330	0.006743	-0.690674	0.153564	-0.596436	0.750404	-0.134632	-0.606528	-0.225593
61770		9.467727	0.743871	2.163340	0.052938	0.022891	-0.000579	-0.693848	0.157227	-0.586914	0.750749	-0.133895	-0.606400	-0.225227
61771		9.462411	0.807064	2.119957	0.044169	0.018135	-0.000343	-0.686279	0.163574	-0.588135	0.750937	-0.133390	-0.606393	-0.224918
61772		9.465988	0.768907	2.118236	0.028869	0.013811	0.003336	-0.688721	0.159912	-0.587402	0.751151	-0.133153	-0.606282	-0.224642
61773		9.540354	0.747402	2.131300	0.024174	0.001528	0.004834	-0.691406	0.158203	-0.592529	0.751232	-0.132965	-0.606318	-0.224385
61774		9.567426	0.755888	2.179749	0.021751	-0.005957	0.010548	-0.693848	0.164062	-0.585693	0.751284	-0.132825	-0.606394	-0.224091
61775		9.457447	0.671451	2.206460	0.012411	-0.010525	0.011166	-0.696533	0.159668	-0.598633	0.751219	-0.132929	-0.606537	-0.223860
61776		9.433338	0.652299	2.224314	0.003457	-0.011126	0.009490	-0.692139	0.155273	-0.586914	0.751207	-0.132980	-0.606589	-0.223726
61777		9.517247	0.662141	2.299915	0.015928	-0.008785	0.012493	-0.691895	0.158936	-0.594971	0.751184	-0.132898	-0.606735	-0.223460
61778		9.472356	0.642998	2.255612	0.023050	-0.011764	0.015759	-0.695068	0.159180	-0.589111	0.751228	-0.132802	-0.606834	-0.223096
61779		9.408892	0.680753	2.258442	0.026792	-0.015176	0.016931	-0.692139	0.160156	-0.583008	0.751188	-0.132733	-0.607045	-0.222701
61780		9.375761	0.670792	2.322252	0.021052	-0.020392	0.020860	-0.687256	0.152588	-0.594971	0.751089	-0.132796	-0.607302	-0.222294
61781		9.428728	0.660640	2.336046	0.019496	-0.026082	0.021590	-0.697021	0.166992	-0.590088	0.751074	-0.132698	-0.607501	-0.221858
61782		9.503272	0.659672	2.276189	0.026406	-0.022233	0.014825	-0.695557	0.151367	-0.588867	0.750986	-0.132749	-0.607740	-0.221471
61783		9.485502	0.671685	2.228051	0.027050	-0.005790	0.003524	-0.701416	0.159912	-0.595947	0.750983	-0.132428	-0.607905	-0.221220
61784		9.502957	0.647258	2.232295	0.025375	0.004172	0.003312	-0.702393	0.150391	-0.587402	0.751071	-0.132215	-0.607918	-0.221013
61785		9.471282	0.641223	2.235339	0.023216	-0.000663	0.007513	-0.684326	0.162354	-0.599121	0.751047	-0.131982	-0.608079	-0.220795
61786		9.492342	0.661439	2.245343	0.027808	0.006202	0.005381	-0.689697	0.150391	-0.587158	0.751315	-0.131722	-0.607920	-0.220474
61787		9.473278	0.674482	2.202344	0.026966	0.009481	0.003581	-0.694336	0.151611	-0.589600	0.751453	-0.131365	-0.607915	-0.220228
61788		9.501335	0.685007	2.210895	0.023897	0.018808	0.000580	-0.690918	0.151123	-0.591064	0.751630	-0.131020	-0.607830	-0.220067
61789		9.481998	0.690870	2.283559	0.014591	0.013245	-0.000845	-0.698242	0.160889	-0.591797	0.751778	-0.130747	-0.607744	-0.219961
61790		9.404993	0.664576	2.282287	0.008205	0.006201	0.001163	-0.686768	0.155273	-0.600098	0.751824	-0.130737	-0.607711	-0.219901
61791		9.425847	0.684970	2.293036	0.002208	0.003119	0.000859	-0.687256	0.147461	-0.584229	0.751978	-0.130622	-0.607574	-0.219821
61792		9.478800	0.678350	2.269831	-0.007715	0.003170	0.002216	-0.689209	0.158691	-0.589844	0.751984	-0.130600	-0.607562	-0.219846
61793		9.492183	0.659491	2.249027	-0.012815	0.000177	0.001977	-0.691162	0.158203	-0.591553	0.751999	-0.130757	-0.607493	-0.219892
61794		9.481975	0.636375	2.288315	-0.015938	0.002058	-0.000639	-0.692871	0.154053	-0.592285	0.752013	-0.130906	-0.607406	-0.219997
61795		9.427131	0.661513	2.304243	-0.022003	0.000688	-0.000899	-0.693115	0.154297	-0.591797	0.751993	-0.131060	-0.607338	-0.220159
61796		9.405540	0.656703	2.320372	-0.023806	-0.007303	-0.004744	-0.698975	0.156250	-0.589355	0.751894	-0.131228	-0.607351	-0.220360
61797		9.473561	0.649071	2.256719	-0.032019	-0.004352	-0.006250	-0.698486	0.156494	-0.580322	0.751743	-0.131516	-0.607362	-0.220677
61798		9.537646	0.640772	2.281246	-0.031122	0.000141	-0.005845	-0.692383	0.157227	-0.584229	0.751567	-0.131835	-0.607388	-0.221010
61799		9.522571	0.629537	2.258804	-0.023804	-0.002571	-0.005421	-0.683838	0.153809	-0.595703	0.751464	-0.132045	-0.607390	-0.221233
61800		9.435217	0.600454	2.263796	-0.026293	0.001165	-0.006091	-0.690186	0.161865	-0.603760	0.751532	-0.132100	-0.607231	-0.221404
61801		9.446156	0.618907	2.260958	-0.029401	0.002696	-0.007691	-0.694092	0.162354	-0.585205	0.751618	-0.132256	-0.607007	-0.221634
61802		9.459303	0.633712	2.270183	-0.032335	-0.008717	-0.008061	-0.685791	0.163330	-0.595215	0.751443	-0.132605	-0.607033	-0.221946
61803		9.477216	0.624848	2.278469	-0.033570	-0.004994	-0.007208	-0.685791	0.168213	-0.592285	0.751436	-0.132867	-0.606895	-0.222194
61804		9.503582	0.605504	2.261493	-0.031159	-0.002275	-0.007155	-0.699463	0.165283	-0.588867	0.751436	-0.133169	-0.606740	-0.222433
61805		9.501891	0.625279	2.253062	-0.031766	-0.000761	-0.005715	-0.686768	0.158936	-0.593750	0.751326	-0.133519	-0.606687	-0.222740
61806		9.499822	0.612446	2.234699	-0.028921	-0.008337	-0.005980	-0.686279	0.165527	-0.590820	0.751280	-0.133700	-0.606627	-0.222949
61807		9.434520	0.571527	2.215949	-0.025405	-0.014393	-0.008400	-0.684082	0.163574	-0.585205	0.751178	-0.133933	-0.606630	-0.223144
61808		9.406332	0.611065	2.242869	-0.018034	-0.014385	-0.007685	-0.688232	0.153320	-0.590576	0.751067	-0.134097	-0.606683	-0.223278
61809		9.502805	0.630790	2.209299	-0.011151	-0.011526	-0.006290	-0.692139	0.157959	-0.583984	0.750993	-0.134062	-0.606751	-0.223362
61810		9.558494	0.638406	2.201103	-0.016610	-0.005620	-0.007279	-0.691162	0.156006	-0.591309	0.750884	-0.134164	-0.606797	-0.223540
61811		9.530137	0.645951	2.199094	-0.019509	-0.004828	-0.008679	-0.691162	0.160889	-0.591064	0.750833	-0.134204	-0.606784	-0.223723
61812		9.470918	0.626949	2.230536	-0.022744	-0.004625	-0.009510	-0.692871	0.167969	-0.594482	0.750780	-0.134324	-0.606743	-0.223938
61813		9.423189	0.594420	2.227125	-0.019098	-0.005622	-0.010318	-0.697021	0.168701	-0.586426	0.750746	-0.134468	-0.606687	-0.224122
61814		9.466909	0.621022	2.197901	-0.013259	-0.003484	-0.010248	-0.697266	0.162598	-0.595703	0.750653	-0.134624	-0.606697	-0.224310
61815		9.524463	0.641763	2.208899	-0.014420	-0.001818	-0.008426	-0.688477	0.159424	-0.589355	0.750632	-0.134679	-0.606650	-0.224472
61816		9.521005	0.613801	2.208289	-0.019172	0.000152	-0.008886	-0.695801	0.167480	-0.589844	0.750629	-0.134736	-0.606574	-0.224657
61817		9.449941	0.613046	2.218461	-0.022601	-0.003328	-0.010274	-0.695557	0.155762	-0.580322	0.750555	-0.134933	-0.606533	-0.224897
61818		9.457819	0.619982	2.218918	-0.027232	0.000306	-0.012505	-0.690430	0.163818	-0.592041	0.750415	-0.135078	-0.606547	-0.225238
61819		9.494460	0.636585	2.225113	-0.028852	-0.003678	-0.011743	-0.686768	0.177002	-0.587402	0.750372	-0.135245	-0.606462	-0.225511
61820		9.513209	0.645461	2.217230	-0.031669	-0.000892	-0.010810	-0.690918	0.164795	-0.580811	0.750356	-0.135582	-0.606302	-0.225789
61821		9.516966	0.659359	2.192210	-0.037029	0.002577	-0.009819	-0.690186	0.161377	-0.597900	0.750273	-0.135891	-0.606201	-0.226150
61822		9.496728	0.635159	2.218424	-0.037239	0.003645	-0.011022	-0.698975	0.168701	-0.584717	0.750308	-0.136054	-0.605998	-0.226483
61823		9.475584	0.632229	2.214301	-0.030308	0.001783	-0.014098	-0.696777	0.164795	-0.584961	0.750196	-0.136310	-0.605940	-0.226853
61824		9.491933	0.629285	2.189208	-0.031444	-0.000983	-0.012649	-0.692383	0.164062	-0.589111	0.750077	-0.136542	-0.605903	-0.227205
61825		9.496286	0.591039	2.184052	-0.020100	-0.002007	-0.011293	-0.698242	0.161133	-0.585938	0.750029	-0.136632	-0.605858	-0.227428
61826		9.491578	0.615922	2.184238	-0.015621	-0.002208	-0.008946	-0.697998	0.165283	-0.588623	0.749934	-0.136707	-0.605885	-0.227626
61827		9.488451	0.604149	2.188053	-0.008202	-0.000143	-0.005894	-0.694824	0.165283	-0.590576	0.749900	-0.136755	-0.605876	-0.227734
61828		9.482794	0.611746	2.204826	-0.005416	-0.006323	-0.005133	-0.693604	0.164307	-0.586914	0.749859	-0.136777	-0.605903	-0.227785
61829		9.487141	0.626036	2.177114	-0.000024	-0.010833	-0.003102	-0.695312	0.168945	-0.587646	0.749783	-0.136780	-0.606001	-0.227769
61830		9.474008	0.627628	2.191462	0.004453	-0.011028	-0.000755	-0.692383	0.164307	-0.587158	0.749722	-0.136807	-0.606096	-0.227702
61831		9.482613	0.633820	2.188953	0.002607	-0.013581	-0.002214	-0.690674	0.165527	-0.582275	0.749646	-0.136793	-0.606215	-0.227645
61832		9.482257	0.617816	2.202738	0.002599	-0.013236	-0.003224	-0.693848	0.163330	-0.592773	0.749553	-0.136797	-0.606346	-0.227599
61833		9.490843	0.623815	2.200370	-0.005424	-0.010766	-0.000397	-0.689209	0.162598	-0.589600	0.749518	-0.136831	-0.606387	-0.227583
61834		9.513053	0.628557	2.181302	-0.005919	-0.011298	-0.003114	-0.698242	0.171387	-0.588135	0.749481	-0.136839	-0.606433	-0.227579
61835		9.500885	0.646487	2.179189	-0.010048	-0.007488	-0.001602	-0.697998	0.173828	-0.590820	0.749416	-0.137008	-0.606452	-0.227639
61836		9.486214	0.598301	2.201671	-0.007435	-0.009539	-0.002737	-0.696533	0.164307	-0.586914	0.749360	-0.137154	-0.606475	-0.227677
61837		9.460568	0.633749	2.221382	-0.012256	-0.009594	-0.005522	-0.693359	0.166016	-0.590088	0.749261	-0.137249	-0.606536	-0.227783
61838		9.494585	0.620665	2.224018	-0.013119	-0.014118	-0.005972	-0.710938	0.167725	-0.592773	0.749167	-0.137350	-0.606595	-0.227872
61839		9.514674	0.613739	2.186227	-0.010909	-0.015393	-0.005466	-0.693359	0.161621	-0.587646	0.748985	-0.137502	-0.606738	-0.228000
61840		9.509746	0.620926	2.200189	-0.009660	-0.015399	-0.003950	-0.690674	0.164795	-0.585938	0.748877	-0.137559	-0.606840	-0.228047
61841		9.463174	0.619871	2.203892	-0.007065	-0.013379	-0.003691	-0.691162	0.163574	-0.584717	0.748804	-0.137609	-0.606914	-0.228061
61842		9.478029	0.604223	2.157211	0.003824	-0.012203	-0.004755	-0.695312	0.167725	-0.582275	0.748746	-0.137539	-0.607021	-0.228007
61843		9.517413	0.633379	2.179009	0.003905	-0.006102	-0.006133	-0.694824	0.169434	-0.585205	0.748700	-0.137501	-0.607093	-0.227992
61844		9.544295	0.648784	2.170233	0.003135	-0.004873	-0.006953	-0.688477	0.164795	-0.582031	0.748682	-0.137460	-0.607127	-0.227985
61845		9.485784	0.598201	2.169794	0.002446	-0.005365	-0.007838	-0.690674	0.164795	-0.587646	0.748670	-0.137372	-0.607166	-0.227971
61846		9.452473	0.613750	2.163397	0.002590	-0.004731	-0.006574	-0.689697	0.163086	-0.586182	0.748687	-0.137277	-0.607177	-0.227945
61847		9.495086	0.624196	2.150511	-0.001025	-0.007843	-0.007148	-0.692383	0.171143	-0.579590	0.748667	-0.137209	-0.607217	-0.227944
61848		9.520994	0.606330	2.153161	-0.000587	-0.009667	-0.005762	-0.693115	0.166748	-0.581055	0.748597	-0.137256	-0.607294	-0.227941
61849		9.512289	0.622824	2.120572	-0.005481	-0.008355	-0.007466	-0.694824	0.161133	-0.583984	0.748523	-0.137293	-0.607356	-0.227996
61850		9.500077	0.604269	2.166187	-0.005835	-0.004874	-0.005502	-0.695312	0.173828	-0.582520	0.748482	-0.137286	-0.607390	-0.228045
61851		9.471020	0.627221	2.191460	-0.016028	-0.001473	-0.007264	-0.693359	0.158203	-0.578369	0.748450	-0.137459	-0.607336	-0.228191
61852		9.476968	0.637686	2.178155	-0.019900	-0.006558	-0.008347	-0.694580	0.166260	-0.585449	0.748338	-0.137561	-0.607382	-0.228375
61853		9.487086	0.623972	2.185443	-0.025920	-0.008022	-0.008603	-0.699707	0.170654	-0.580811	0.748248	-0.137755	-0.607367	-0.228590
61854		9.504706	0.637301	2.141336	-0.028468	-0.007008	-0.009548	-0.692627	0.162354	-0.582520	0.748110	-0.138036	-0.607369	-0.228867
61855		9.524570	0.609258	2.157728	-0.026100	-0.003899	-0.010488	-0.697754	0.165771	-0.583984	0.748039	-0.138173	-0.607336	-0.229104
61856		9.490356	0.623270	2.174058	-0.026855	-0.003028	-0.010296	-0.701416	0.163086	-0.582520	0.747958	-0.138354	-0.607297	-0.229364
61857		9.477666	0.641849	2.173892	-0.026494	-0.003139	-0.008845	-0.695557	0.169434	-0.582520	0.747850	-0.138539	-0.607289	-0.229625
61858		9.475203	0.645663	2.180877	-0.026434	-0.015404	-0.007947	-0.696533	0.167236	-0.592529	0.747692	-0.138792	-0.607347	-0.229832
61859		9.509110	0.622582	2.100129	-0.024998	-0.007968	-0.008548	-0.698730	0.172852	-0.589111	0.747642	-0.138943	-0.607301	-0.230026
61860		9.540920	0.630149	2.095616	-0.014328	-0.006362	-0.008800	-0.698242	0.167969	-0.586182	0.747598	-0.139050	-0.607281	-0.230158
61861		9.521760	0.622906	2.123711	-0.004037	-0.008052	-0.008815	-0.706543	0.165527	-0.585449	0.747540	-0.139039	-0.607333	-0.230214
61862		9.491368	0.651260	2.113635	-0.000720	-0.002817	-0.007339	-0.697754	0.166992	-0.584717	0.747480	-0.139010	-0.607389	-0.230278
61863		9.501506	0.670565	2.131908	-0.003075	0.001189	-0.005676	-0.696777	0.166504	-0.576416	0.747499	-0.138984	-0.607359	-0.230313
61864		9.529115	0.648921	2.149527	-0.000615	-0.001133	-0.009099	-0.694580	0.170654	-0.580566	0.747455	-0.138943	-0.607401	-0.230368
61865		9.508696	0.647286	2.123426	-0.003430	0.008424	-0.006397	-0.687988	0.172607	-0.585449	0.747527	-0.138926	-0.607299	-0.230416
61866		9.499486	0.609733	2.135845	-0.000650	-0.000814	-0.004993	-0.696289	0.168945	-0.584473	0.747599	-0.138892	-0.607232	-0.230378
61867		9.455295	0.638185	2.143908	-0.002429	-0.001026	-0.005119	-0.700928	0.169678	-0.584961	0.747610	-0.138882	-0.607215	-0.230392
61868		9.498910	0.643750	2.167460	-0.000417	0.001854	-0.006495	-0.696777	0.166504	-0.578369	0.747622	-0.138854	-0.607195	-0.230425
61869		9.510945	0.659168	2.199658	-0.001951	0.003960	-0.007115	-0.694580	0.168701	-0.580078	0.747628	-0.138820	-0.607175	-0.230477
61870		9.503504	0.655501	2.178006	-0.009300	0.000441	-0.006118	-0.697021	0.169922	-0.584961	0.747621	-0.138874	-0.607141	-0.230556
61871		9.506091	0.620870	2.159024	-0.014046	-0.004766	-0.007280	-0.704346	0.165771	-0.584961	0.747577	-0.138976	-0.607128	-0.230674
61872		9.461694	0.600610	2.151453	-0.006701	-0.005003	-0.005580	-0.693359	0.165039	-0.583740	0.747504	-0.139020	-0.607177	-0.230752
61873		9.485649	0.618702	2.151680	0.003310	-0.004918	-0.003692	-0.690918	0.172363	-0.581543	0.747508	-0.138945	-0.607214	-0.230691
61874		9.536345	0.667008	2.149263	0.006397	-0.005723	-0.004141	-0.697754	0.165527	-0.583984	0.747521	-0.138887	-0.607246	-0.230599
61875		9.525728	0.665430	2.156707	-0.001717	-0.001235	-0.002216	-0.696045	0.177246	-0.589600	0.747527	-0.138878	-0.607245	-0.230586
61876		9.489161	0.650557	2.150093	0.002678	-0.003057	-0.003240	-0.687988	0.156738	-0.575195	0.747577	-0.138871	-0.607211	-0.230519
61877		9.468438	0.647472	2.144236	0.007456	-0.001927	-0.003490	-0.705322	0.171631	-0.582031	0.747584	-0.138714	-0.607271	-0.230432
61878		9.480880	0.662245	2.174861	0.011483	-0.004026	0.000158	-0.694824	0.167480	-0.591064	0.747558	-0.138681	-0.607353	-0.230321
61879		9.494783	0.662305	2.156095	0.010832	-0.008600	-0.002139	-0.697021	0.167725	-0.581543	0.747583	-0.138554	-0.607407	-0.230172
61880		9.537715	0.704780	2.152425	0.005953	-0.007660	-0.002823	-0.700195	0.168457	-0.584717	0.747547	-0.138510	-0.607491	-0.230093
61881		9.514788	0.673038	2.122934	0.000022	-0.003730	-0.002418	-0.692627	0.165283	-0.579590	0.747534	-0.138516	-0.607515	-0.230068
61882		9.465926	0.622104	2.158123	0.001979	-0.003206	-0.005134	-0.702393	0.176514	-0.578613	0.747529	-0.138456	-0.607547	-0.230036
61883		9.484089	0.630600	2.170931	0.005321	-0.005798	-0.002372	-0.702148	0.168701	-0.586182	0.747481	-0.138495	-0.607619	-0.229978
61884		9.489528	0.656507	2.183835	0.004687	-0.003935	-0.001920	-0.695801	0.159424	-0.579346	0.747475	-0.138464	-0.607657	-0.229916
61885		9.504161	0.673484	2.148390	-0.001175	-0.008166	-0.004332	-0.703369	0.164551	-0.580566	0.747407	-0.138430	-0.607752	-0.229908
61886		9.493694	0.671988	2.155221	-0.006702	-0.005013	-0.005572	-0.697998	0.166260	-0.583984	0.747325	-0.138480	-0.607813	-0.229981
61887		9.480056	0.641223	2.161536	-0.007666	-0.003748	-0.004554	-0.693359	0.170410	-0.578857	0.747302	-0.138523	-0.607816	-0.230026
61888		9.495266	0.636280	2.178412	-0.004768	-0.004514	-0.003173	-0.698975	0.161621	-0.583984	0.747285	-0.138577	-0.607825	-0.230023
61889		9.474035	0.631746	2.193923	-0.004882	-0.005850	-0.002421	-0.697754	0.177490	-0.589355	0.747246	-0.138590	-0.607868	-0.230027
61890		9.504307	0.643526	2.154765	-0.009774	-0.004562	-0.004112	-0.700439	0.165527	-0.579834	0.747256	-0.138703	-0.607815	-0.230065
61891		9.531673	0.642381	2.119263	-0.016037	-0.008023	-0.004877	-0.700195	0.169678	-0.583496	0.747154	-0.138848	-0.607863	-0.230184
61892		9.487588	0.637699	2.116062	-0.014054	-0.008199	-0.005577	-0.701172	0.171631	-0.576172	0.747076	-0.138978	-0.607891	-0.230284
61893		9.487188	0.637520	2.136581	-0.011563	-0.004432	-0.005245	-0.702393	0.170166	-0.581543	0.746999	-0.139111	-0.607920	-0.230379
61894		9.470886	0.609796	2.151153	-0.006161	-0.008569	-0.004269	-0.700195	0.174805	-0.571045	0.746919	-0.139191	-0.607985	-0.230415
61895		9.527261	0.651308	2.130586	-0.003709	-0.007509	-0.004268	-0.697510	0.173096	-0.586426	0.746823	-0.139294	-0.608072	-0.230437
61896		9.527809	0.684373	2.138796	-0.006033	-0.007586	-0.004011	-0.698975	0.171143	-0.580078	0.746801	-0.139360	-0.608078	-0.230452
61897		9.499227	0.674687	2.132555	-0.011662	0.000668	-0.001738	-0.696777	0.170654	-0.583984	0.746804	-0.139479	-0.608025	-0.230511
61898		9.469724	0.631892	2.138528	-0.008676	-0.004853	-0.004874	-0.698975	0.172852	-0.574219	0.746786	-0.139543	-0.608015	-0.230557
61899		9.464900	0.639528	2.133417	-0.008394	-0.003583	-0.002340	-0.700439	0.167969	-0.573242	0.746737	-0.139662	-0.608034	-0.230592
61900		9.517398	0.650902	2.134460	-0.012587	-0.005186	-0.006573	-0.698730	0.167480	-0.578125	0.746641	-0.139768	-0.608086	-0.230702
61901		9.533165	0.647011	2.129858	-0.012641	-0.000755	-0.006165	-0.703369	0.173340	-0.581787	0.746609	-0.139845	-0.608068	-0.230807
61902		9.540257	0.620759	2.141751	-0.007280	-0.003836	-0.008220	-0.708252	0.171143	-0.580322	0.746557	-0.139903	-0.608084	-0.230899
61903		9.466736	0.638588	2.165872	-0.007356	-0.002464	-0.007136	-0.703125	0.167969	-0.582031	0.746490	-0.139967	-0.608115	-0.230996
61904		9.477467	0.642156	2.157147	-0.009538	-0.001909	-0.005611	-0.704590	0.167725	-0.577881	0.746454	-0.140025	-0.608113	-0.231080
61905		9.514661	0.627142	2.130471	-0.008033	-0.006725	-0.005333	-0.703613	0.176025	-0.586914	0.746363	-0.140095	-0.608184	-0.231146
61906		9.551978	0.628331	2.108620	-0.012671	-0.003475	-0.006499	-0.701904	0.171387	-0.572021	0.746334	-0.140219	-0.608146	-0.231265
61907		9.533377	0.637554	2.121469	-0.007565	0.001682	-0.009001	-0.699219	0.167480	-0.587402	0.746291	-0.140255	-0.608150	-0.231367
61908		9.444432	0.628268	2.118659	-0.007401	-0.001798	-0.004037	-0.695068	0.163330	-0.580566	0.746304	-0.140282	-0.608113	-0.231410
61909		9.477120	0.629671	2.171060	-0.005663	-0.007702	-0.002570	-0.702881	0.165039	-0.576416	0.746266	-0.140297	-0.608160	-0.231398
61910		9.523753	0.638238	2.105158	-0.003074	-0.009030	-0.005745	-0.698242	0.172363	-0.588623	0.746167	-0.140303	-0.608273	-0.231416
61911		9.521420	0.658465	2.116921	-0.009697	-0.009029	-0.004527	-0.692383	0.171143	-0.584229	0.746135	-0.140390	-0.608274	-0.231464
61912		9.508834	0.660516	2.110633	-0.012888	-0.006161	-0.005001	-0.699463	0.175049	-0.584229	0.746126	-0.140480	-0.608241	-0.231526
61913		9.473909	0.608523	2.128128	-0.008055	-0.006033	-0.007352	-0.700195	0.181152	-0.584229	0.746094	-0.140542	-0.608240	-0.231593
61914		9.495052	0.629860	2.136839	-0.007121	-0.006978	-0.004267	-0.703857	0.178223	-0.581543	0.746071	-0.140653	-0.608234	-0.231619
61915		9.513402	0.654035	2.154396	-0.009332	-0.005725	-0.004755	-0.697510	0.171143	-0.585449	0.746024	-0.140770	-0.608242	-0.231676
61916		9.514868	0.656564	2.109229	-0.007930	-0.008465	-0.005414	-0.698730	0.168457	-0.578369	0.745987	-0.140826	-0.608258	-0.231718
61917		9.514482	0.640563	2.124473	-0.005591	-0.005318	-0.006343	-0.692139	0.167236	-0.585205	0.745943	-0.140842	-0.608295	-0.231756
61918		9.506047	0.635298	2.145262	-0.007459	-0.000401	-0.008065	-0.700439	0.169189	-0.578857	0.745977	-0.140820	-0.608232	-0.231822
61919		9.495997	0.651039	2.136489	-0.008004	-0.003680	-0.006006	-0.701660	0.179199	-0.579834	0.745938	-0.140861	-0.608248	-0.231881
61920		9.496636	0.620491	2.103449	-0.006228	-0.006874	-0.004208	-0.697266	0.171631	-0.579834	0.745897	-0.140952	-0.608273	-0.231893
61921		9.515583	0.645580	2.099038	-0.008003	-0.007098	-0.004330	-0.695068	0.169922	-0.578369	0.745858	-0.141018	-0.608296	-0.231920
61922		9.523619	0.651984	2.098618	-0.007069	-0.001211	-0.004598	-0.699951	0.173340	-0.577148	0.745865	-0.141046	-0.608269	-0.231948
61923		9.502224	0.631556	2.109821	-0.008002	-0.003684	-0.006006	-0.698242	0.172363	-0.573975	0.745830	-0.141103	-0.608280	-0.231998
61924		9.476697	0.651626	2.104187	-0.007703	-0.009214	-0.005236	-0.707520	0.169678	-0.572998	0.745749	-0.141177	-0.608351	-0.232026
61925		9.507959	0.642359	2.115609	-0.008947	-0.009225	-0.006747	-0.699951	0.168457	-0.571045	0.745619	-0.141258	-0.608462	-0.232103
61926		9.537500	0.638210	2.092361	-0.007593	-0.007878	-0.005982	-0.702881	0.174072	-0.572998	0.745526	-0.141311	-0.608547	-0.232148
61927		9.543237	0.632858	2.073758	-0.005635	-0.001241	-0.004917	-0.702393	0.169678	-0.576416	0.745494	-0.141362	-0.608560	-0.232184
61928		9.514085	0.655178	2.099967	-0.003315	-0.001153	-0.005178	-0.703613	0.177246	-0.573242	0.745476	-0.141363	-0.608575	-0.232206
61929		9.495267	0.631953	2.103335	-0.001515	0.005203	-0.006389	-0.698975	0.174072	-0.575928	0.745498	-0.141362	-0.608536	-0.232236
61930		9.492345	0.652469	2.117647	-0.003096	-0.001892	-0.004997	-0.695557	0.174316	-0.576416	0.745491	-0.141380	-0.608538	-0.232245
61931		9.468063	0.651298	2.143488	-0.007694	0.003708	-0.004800	-0.700928	0.168945	-0.582275	0.745533	-0.141421	-0.608459	-0.232289
61932		9.536467	0.643288	2.114517	-0.008963	-0.002433	-0.004980	-0.705566	0.172607	-0.582520	0.745520	-0.141464	-0.608443	-0.232347
61933		9.542137	0.638087	2.096208	-0.006702	-0.004354	-0.007598	-0.706299	0.173828	-0.580078	0.745476	-0.141496	-0.608463	-0.232417
61934		9.511352	0.681705	2.092470	-0.006396	-0.000371	-0.004717	-0.702393	0.174072	-0.579834	0.745462	-0.141546	-0.608450	-0.232465
61935		9.510615	0.633063	2.099103	-0.004825	0.000241	-0.003770	-0.700195	0.166504	-0.571045	0.745473	-0.141580	-0.608422	-0.232484
61936		9.494355	0.653532	2.130116	-0.003842	-0.001372	-0.003790	-0.700684	0.171875	-0.580322	0.745441	-0.141583	-0.608456	-0.232491
61937		9.513492	0.663586	2.100018	-0.003965	-0.002360	-0.004052	-0.697266	0.175537	-0.576416	0.745438	-0.141602	-0.608453	-0.232500
61938		9.524085	0.618645	2.076005	-0.000635	-0.001168	-0.003989	-0.695801	0.169922	-0.572266	0.745454	-0.141602	-0.608443	-0.232475
61939		9.484784	0.639134	2.088812	0.001823	-0.000442	-0.002981	-0.701904	0.167725	-0.566895	0.745467	-0.141563	-0.608456	-0.232423
61940		9.504969	0.659114	2.121111	-0.002666	0.003077	-0.001854	-0.707764	0.166992	-0.574219	0.745458	-0.141573	-0.608467	-0.232416
61941		9.523309	0.652009	2.108718	-0.002398	0.001670	-0.004776	-0.700195	0.169434	-0.577881	0.745434	-0.141556	-0.608491	-0.232443
61942		9.507575	0.657339	2.112730	0.000722	-0.003235	-0.001552	-0.699951	0.169434	-0.571289	0.745430	-0.141543	-0.608518	-0.232389
61943		9.544649	0.642496	2.086380	0.004265	0.000637	-0.002980	-0.696777	0.172852	-0.582764	0.745436	-0.141486	-0.608546	-0.232331
61944		9.507448	0.642815	2.107585	0.005056	0.002476	-0.002838	-0.702637	0.178467	-0.581543	0.745514	-0.141410	-0.608498	-0.232257
61945		9.497275	0.690476	2.109687	0.003379	0.000523	-0.003040	-0.699707	0.168945	-0.572510	0.745551	-0.141395	-0.608473	-0.232211
61946		9.507209	0.660936	2.113256	0.003812	0.002464	-0.004350	-0.694580	0.172363	-0.578613	0.745570	-0.141322	-0.608482	-0.232171
61947		9.512039	0.654815	2.118084	0.001615	0.003360	-0.003827	-0.698486	0.181152	-0.577881	0.745636	-0.141271	-0.608427	-0.232132
61948		9.521940	0.657352	2.132263	0.001631	0.003008	-0.002820	-0.705078	0.163330	-0.582031	0.745693	-0.141280	-0.608369	-0.232097
61949		9.495865	0.628961	2.113366	0.003486	0.001861	-0.003786	-0.698242	0.174805	-0.576660	0.745715	-0.141184	-0.608379	-0.232059
61950		9.499103	0.676102	2.098487	0.005740	0.002975	-0.001951	-0.701660	0.170410	-0.585693	0.745772	-0.141132	-0.608351	-0.231981
61951		9.513442	0.654271	2.133774	0.001861	0.005334	-0.003304	-0.693604	0.167969	-0.581787	0.745849	-0.141069	-0.608282	-0.231951
61952		9.495169	0.647598	2.120891	-0.003024	0.003176	-0.003307	-0.700195	0.172607	-0.579346	0.745914	-0.141041	-0.608214	-0.231937
61953		9.500050	0.640768	2.125720	-0.000999	0.001963	-0.000988	-0.701660	0.169434	-0.586182	0.745952	-0.141050	-0.608179	-0.231900
61954		9.493126	0.653431	2.087450	0.001208	0.004131	-0.002176	-0.705322	0.167725	-0.579590	0.746021	-0.141001	-0.608121	-0.231861
61955		9.507526	0.663649	2.132776	-0.001917	0.002552	-0.003065	-0.704346	0.173340	-0.575928	0.746032	-0.140989	-0.608109	-0.231864
61956		9.494350	0.665552	2.129122	-0.004757	0.005309	-0.002080	-0.698242	0.174805	-0.580566	0.746059	-0.141030	-0.608059	-0.231883
61957		9.499057	0.658629	2.134754	-0.008539	0.005941	-0.003515	-0.702881	0.169434	-0.583008	0.746118	-0.141084	-0.607957	-0.231929
61958		9.507059	0.665784	2.115227	-0.009195	0.008152	-0.004060	-0.703369	0.178955	-0.586426	0.746176	-0.141113	-0.607852	-0.232000
61959		9.498093	0.643016	2.133772	-0.008237	0.009922	-0.000633	-0.702393	0.163574	-0.582275	0.746279	-0.141190	-0.607697	-0.232030
61960		9.518230	0.631002	2.136746	-0.007558	0.013835	-0.001418	-0.703369	0.169922	-0.578613	0.746380	-0.141185	-0.607555	-0.232078
61961		9.520243	0.644104	2.136587	-0.006016	0.015149	-0.002483	-0.696289	0.169922	-0.584229	0.746482	-0.141186	-0.607412	-0.232125
61962		9.456208	0.662610	2.157913	-0.008816	0.023672	-0.001821	-0.698486	0.173340	-0.583252	0.746687	-0.141175	-0.607140	-0.232185
61963		9.472042	0.620411	2.185122	-0.014272	0.031843	-0.001346	-0.701172	0.177734	-0.579834	0.746935	-0.141214	-0.606781	-0.232301
61964		9.532542	0.682375	2.204727	-0.010216	0.055610	-0.001931	-0.699707	0.176270	-0.583740	0.747351	-0.141166	-0.606227	-0.232439
61965		9.585249	0.685906	2.230933	-0.015468	0.109170	-0.000172	-0.696289	0.167480	-0.587158	0.748177	-0.141014	-0.605145	-0.232694
61966		9.512023	0.675673	2.438050	-0.015466	0.142930	0.003578	-0.698242	0.173096	-0.590088	0.749267	-0.140754	-0.603747	-0.232975
61967		9.362293	0.708131	2.562789	-0.034402	0.124478	0.006044	-0.696777	0.166016	-0.587891	0.750183	-0.140768	-0.602460	-0.233348
61968		9.283380	0.689976	2.558811	-0.057615	0.089974	0.000392	-0.688477	0.166504	-0.591064	0.750757	-0.141036	-0.601470	-0.233896
61969		9.194264	0.715726	2.612176	-0.099046	0.037203	-0.015333	-0.692139	0.174561	-0.588379	0.750843	-0.141714	-0.600853	-0.234793
61970		9.163370	0.611410	2.565216	-0.108344	-0.023001	-0.026585	-0.681396	0.176025	-0.589111	0.750411	-0.142607	-0.600799	-0.235769
61971		9.258513	0.610689	2.606230	-0.103955	-0.086966	-0.015222	-0.691650	0.176025	-0.582764	0.749582	-0.143715	-0.601297	-0.236464
61972		9.360653	0.664437	2.543544	-0.073542	-0.109861	-0.017872	-0.685547	0.175293	-0.578125	0.748578	-0.144600	-0.602146	-0.236941
61973		9.253052	0.535989	2.424013	-0.024028	-0.144471	-0.029575	-0.694092	0.177979	-0.581055	0.747385	-0.145022	-0.603473	-0.237075
61974		9.141822	0.764793	2.426015	-0.016428	-0.150542	-0.011810	-0.694580	0.181396	-0.579590	0.746208	-0.145537	-0.604839	-0.236986
61975		8.601096	1.004737	2.355109	-0.037603	-0.284285	0.031081	-0.705322	0.182129	-0.573975	0.744115	-0.146979	-0.607290	-0.236410
61976		8.107787	1.014472	1.887857	-0.052586	-0.420512	0.089454	-0.709473	0.183594	-0.571045	0.741091	-0.149414	-0.610864	-0.235172
61977		7.644196	1.561305	1.513648	-0.183208	-0.526625	0.137550	-0.707520	0.193359	-0.552002	0.737143	-0.153718	-0.614905	-0.234271
61978		7.524588	0.934105	1.545953	-0.385467	-0.607126	0.131778	-0.724365	0.207031	-0.532959	0.732124	-0.160089	-0.619058	-0.234804
61979		8.308547	-0.110379	0.908838	-0.388230	-0.627411	0.020639	-0.727051	0.207520	-0.539795	0.726508	-0.165718	-0.623589	-0.236350
61980		7.785490	-0.016359	0.754764	-0.368131	-0.531428	-0.101902	-0.735840	0.207031	-0.515625	0.721348	-0.169854	-0.627450	-0.238985
61981		6.703854	0.459709	0.544117	-0.300190	-0.458418	-0.098452	-0.741699	0.211182	-0.499268	0.716822	-0.173179	-0.630866	-0.241210
61982		6.279814	0.193060	-0.026237	-0.309680	-0.528840	-0.115891	-0.743896	0.210205	-0.490723	0.711611	-0.176672	-0.634904	-0.243502
61983		7.134737	-0.670936	-0.905258	-0.169898	-0.525214	-0.315571	-0.756348	0.212646	-0.480469	0.706108	-0.177294	-0.639724	-0.246438
61984		9.437484	-1.318695	-0.529218	0.199252	-0.372183	-0.331298	-0.738281	0.201660	-0.465576	0.702559	-0.174074	-0.644333	-0.246867
61985		11.245962	0.501850	-0.087322	0.306954	-0.542755	0.007581	-0.750244	0.197510	-0.453369	0.698920	-0.173135	-0.649986	-0.243008
61986		13.002023	1.877408	-0.734037	-0.077525	-0.567597	0.112531	-0.750488	0.199951	-0.450684	0.694490	-0.176483	-0.654452	-0.241307
61987		16.151413	0.156523	-0.956866	0.082216	-0.302864	-0.195048	-0.757324	0.196289	-0.440186	0.691671	-0.175094	-0.657726	-0.241516
61988		20.661869	0.858719	-0.821538	0.388773	-0.152850	-0.107433	-0.758301	0.191650	-0.445068	0.690973	-0.171325	-0.660447	-0.238775
61989		26.411972	2.892789	0.133242	0.120346	0.044099	0.031425	-0.764404	0.195312	-0.441895	0.691750	-0.170409	-0.660351	-0.237443
61990		25.283531	0.554265	1.773719	0.069027	0.256902	-0.052486	-0.764160	0.183105	-0.459229	0.693892	-0.168626	-0.658457	-0.237728
61991		21.708202	-0.795741	4.258488	0.339747	0.406200	0.065788	-0.768555	0.174072	-0.460938	0.698176	-0.164984	-0.655792	-0.235091
61992		15.417606	1.343007	4.305076	0.290688	0.341817	0.200582	-0.764893	0.174072	-0.476074	0.702161	-0.163075	-0.653256	-0.231586
61993		7.938480	1.630959	2.050763	0.181868	0.218581	0.162305	-0.766357	0.179199	-0.489258	0.704803	-0.162157	-0.651532	-0.229049
61994		0.908827	1.142099	0.967024	0.229543	0.128070	0.147997	-0.773193	0.178467	-0.488770	0.706763	-0.160960	-0.650752	-0.226051
61995		-3.044746	0.121416	0.889004	0.314222	0.236533	0.191268	-0.759033	0.175781	-0.492188	0.709863	-0.159072	-0.649157	-0.222231
61996		-2.683983	-0.249744	0.869080	0.147969	0.400396	0.177792	-0.767578	0.181396	-0.496826	0.713908	-0.158088	-0.645645	-0.220196
61997		-0.406555	-0.415114	1.006053	0.100563	0.419474	0.136953	-0.760254	0.174805	-0.515869	0.717863	-0.157154	-0.641900	-0.218953
61998		0.792267	0.647603	0.524043	0.080102	0.200674	0.012238	-0.755615	0.180664	-0.528320	0.719675	-0.155989	-0.640280	-0.218579
61999		0.107564	1.245450	0.032015	0.026886	0.090341	-0.049225	-0.758789	0.175781	-0.516846	0.720347	-0.155103	-0.639620	-0.218928
62000		-0.949740	0.942061	0.053381	-0.014820	0.099317	-0.049504	-0.749023	0.190186	-0.526367	0.720985	-0.154583	-0.638772	-0.219673
62001		-1.281414	0.371800	0.282131	-0.047216	0.086424	-0.030597	-0.749756	0.170898	-0.523193	0.721538	-0.154524	-0.637912	-0.220392
62002		-0.595120	-0.501811	1.224518	0.030261	0.068159	-0.053327	-0.743164	0.173340	-0.520996	0.722005	-0.153651	-0.637464	-0.220772
62003		1.588856	-0.178813	2.672070	-0.147930	-0.037675	-0.040732	-0.741699	0.174316	-0.515381	0.721326	-0.154775	-0.637456	-0.222224
62004		9.087246	2.944930	4.695045	-0.576554	0.542858	-0.192153	-0.733887	0.181641	-0.519043	0.723982	-0.156940	-0.631280	-0.229575
62005		36.026619	1.036263	4.964855	-0.098292	-0.351412	-0.417938	-0.721436	0.172607	-0.518311	0.719817	-0.155554	-0.634962	-0.233431
62006		37.769217	0.035886	0.048097	0.111093	-0.263068	-0.224814	-0.735596	0.157959	-0.509766	0.717318	-0.153543	-0.638054	-0.234024
62007		39.684675	2.728653	-0.877862	0.270144	-0.204507	0.062340	-0.744873	0.161865	-0.504883	0.716399	-0.152224	-0.640532	-0.230909
62008		30.169446	1.888674	4.030925	0.181555	0.224455	0.033515	-0.739502	0.158936	-0.516357	0.718653	-0.150220	-0.638976	-0.229524
62009		16.399223	1.979044	6.052856	0.018338	0.369011	-0.074019	-0.743652	0.158447	-0.522217	0.721440	-0.148403	-0.635838	-0.230675
62010		2.382625	1.546166	3.270114	0.067041	-0.107872	0.050306	-0.753418	0.157227	-0.525635	0.720869	-0.148516	-0.636900	-0.229452
62011		-5.779207	-0.798400	0.496447	0.325760	-0.321652	0.236147	-0.759521	0.166504	-0.520264	0.719588	-0.148394	-0.640265	-0.224127
62012		-5.231527	-0.722724	-0.402552	0.369382	-0.090841	0.328128	-0.760742	0.168701	-0.523926	0.720473	-0.147956	-0.641486	-0.217998
62013		0.078315	-0.054692	-0.812154	0.203683	0.038342	0.202317	-0.764160	0.166992	-0.527832	0.721728	-0.147645	-0.641307	-0.214559
62014		3.597370	0.700920	-0.913645	0.183143	-0.209824	-0.046135	-0.759033	0.163818	-0.523682	0.720274	-0.146194	-0.643760	-0.213086
62015		0.825938	1.386767	-0.733696	0.058776	-0.301750	-0.028932	-0.774414	0.162598	-0.517334	0.717895	-0.146241	-0.646668	-0.212276
62016		-1.873776	0.564757	-0.300176	0.006560	-0.260559	0.135593	-0.760254	0.166748	-0.512207	0.716170	-0.147978	-0.648762	-0.210502
62017		-1.346904	0.208029	0.257917	-0.050451	-0.144151	0.146607	-0.759033	0.169189	-0.510986	0.715317	-0.150003	-0.649632	-0.209279
62018		-0.136844	0.402967	0.798034	-0.142144	-0.079354	-0.026998	-0.770264	0.166992	-0.505371	0.714362	-0.151270	-0.650002	-0.210481
62019		0.138426	-0.169120	2.022434	-0.217535	-0.091200	-0.137654	-0.765381	0.170410	-0.504883	0.712857	-0.152348	-0.650483	-0.213299
62020		-0.491863	-1.194312	2.222228	-0.126607	-0.216648	-0.122971	-0.760254	0.168213	-0.490479	0.710546	-0.153064	-0.652287	-0.214982
62021		3.201056	0.141145	1.090127	-0.046993	-0.006147	0.025571	-0.756348	0.175293	-0.486572	0.710498	-0.153718	-0.652149	-0.215092
62022		14.724435	2.043185	2.795038	-0.251349	0.495631	0.163303	-0.741455	0.181885	-0.495850	0.714508	-0.155947	-0.646732	-0.216558
62023		46.407195	2.781355	2.305914	-0.054526	-0.738704	-0.065203	-0.750732	0.181885	-0.484375	0.708259	-0.157903	-0.653266	-0.216054
62024		36.757492	0.968570	-1.125197	-0.162417	-0.254502	-0.233482	-0.748291	0.177979	-0.479492	0.705260	-0.158119	-0.655522	-0.218855
62025		40.999360	0.154005	-3.645861	0.181783	0.065503	0.202218	-0.752930	0.180420	-0.478516	0.706747	-0.157987	-0.655030	-0.215603
62026		31.160452	1.745600	0.412253	0.130992	0.065174	0.177387	-0.753418	0.183105	-0.480225	0.708054	-0.158088	-0.654464	-0.212943
62027		16.595321	2.393271	3.817669	-0.188275	0.242413	0.010654	-0.760742	0.183350	-0.496826	0.709727	-0.159173	-0.651807	-0.214706
62028		2.910774	-0.414427	5.337712	-0.139239	-0.025810	-0.088336	-0.773926	0.191406	-0.489258	0.709036	-0.159747	-0.651835	-0.216471
62029		-6.543901	0.076941	3.660495	-0.021551	-0.148277	-0.110633	-0.768799	0.190186	-0.483398	0.707518	-0.159423	-0.653322	-0.217195
62030		-3.930138	1.646231	1.180615	-0.165157	0.338593	0.030639	-0.768311	0.189941	-0.493408	0.710067	-0.160199	-0.649818	-0.218810
62031		-0.093945	-1.092089	-0.498290	-0.067215	0.393012	0.133099	-0.767578	0.194336	-0.497803	0.713510	-0.160799	-0.645864	-0.218877
62032		3.721604	-0.364415	-2.333669	0.176700	0.041247	0.104164	-0.774658	0.192139	-0.502197	0.714507	-0.159951	-0.645768	-0.216518
62033		1.986451	1.632255	-1.387667	-0.082782	-0.115995	0.131432	-0.767578	0.203857	-0.505859	0.713776	-0.162073	-0.646313	-0.215721
62034		-1.555020	0.483940	-0.081627	-0.199561	-0.165575	0.108474	-0.768555	0.206299	-0.494385	0.712366	-0.165152	-0.647037	-0.215877
62035		-2.251848	-0.268883	0.194458	-0.184572	-0.103655	0.044423	-0.779785	0.204346	-0.495605	0.711296	-0.167424	-0.647376	-0.216639
62036		-0.832175	-0.121329	0.545311	-0.207876	-0.114049	0.057726	-0.777100	0.206299	-0.488770	0.710107	-0.170059	-0.647695	-0.217529
62037		0.300189	-0.123000	0.727292	-0.211772	-0.185877	0.091741	-0.774658	0.213623	-0.485352	0.708429	-0.173147	-0.648575	-0.217942
62038		0.015467	-0.286698	1.640527	-0.161947	-0.023203	0.147892	-0.768555	0.219727	-0.488770	0.708344	-0.175763	-0.648034	-0.217735
62039		0.069183	-1.586537	3.079199	-0.188533	0.039979	0.089966	-0.771240	0.216064	-0.484619	0.708583	-0.177894	-0.647003	-0.218291
62040		5.240921	0.781097	3.256182	-0.074830	-0.083209	-0.049549	-0.753418	0.227783	-0.473877	0.707683	-0.178233	-0.647670	-0.218956
62041		22.916978	1.068737	1.676689	0.152067	-0.385073	0.064841	-0.753174	0.227051	-0.469971	0.705146	-0.178365	-0.651364	-0.216054
62042		27.631703	0.314357	2.000171	-0.152265	-0.245198	-0.129200	-0.756592	0.221436	-0.461670	0.702520	-0.179256	-0.653409	-0.217691
62043		26.902572	6.440269	4.435102	-0.215690	-0.491235	-0.072649	-0.766113	0.222900	-0.447266	0.697835	-0.181928	-0.657264	-0.218935
62044		23.500472	-5.510755	-5.347646	-0.198983	-0.014254	-0.209744	-0.759277	0.228027	-0.447021	0.696692	-0.182051	-0.657281	-0.222396
62045		18.793792	-1.495826	-3.283833	0.621372	-0.308669	-0.103147	-0.767334	0.214355	-0.446777	0.695286	-0.176682	-0.661901	-0.217364
62046		15.631948	4.818138	0.680157	-0.066896	0.541812	0.084112	-0.763428	0.217529	-0.458984	0.699866	-0.176497	-0.656810	-0.218260
62047		11.534616	1.477986	1.351602	-0.108971	0.606794	-0.149421	-0.759766	0.217285	-0.462646	0.704208	-0.174575	-0.651510	-0.221696
62048		4.603229	-1.538744	1.513227	0.303046	0.256134	-0.214238	-0.752930	0.212646	-0.476562	0.706362	-0.169498	-0.650544	-0.221621
62049		4.433042	-0.410567	1.798631	0.441716	0.249527	-0.020153	-0.755371	0.202881	-0.489502	0.709295	-0.164745	-0.649594	-0.218602
62050		6.531430	0.955919	2.099781	0.030192	0.234687	-0.004539	-0.751465	0.210693	-0.491699	0.711287	-0.163789	-0.647597	-0.218774
62051		7.808248	0.951244	1.046914	-0.074368	0.310178	0.014640	-0.756104	0.214355	-0.496338	0.713722	-0.163723	-0.644600	-0.219743
62052		7.897107	0.523154	1.271627	-0.139506	0.483715	0.076180	-0.741211	0.212646	-0.502197	0.717559	-0.164270	-0.639730	-0.221067
62053		8.921140	-0.819637	0.369592	-0.096274	0.436137	0.055485	-0.744629	0.219238	-0.519775	0.721022	-0.164382	-0.635420	-0.222141
62054		10.781222	-0.183035	0.075332	-0.126684	0.409358	0.010576	-0.730957	0.215820	-0.516113	0.724073	-0.164467	-0.631346	-0.223765
62055		10.432647	-0.278410	0.207750	-0.229324	0.278867	0.061997	-0.731934	0.229004	-0.526367	0.725998	-0.166261	-0.628041	-0.225496
62056		10.110644	0.370441	-0.227353	-0.116161	0.012185	0.046751	-0.731689	0.226074	-0.521973	0.726025	-0.167647	-0.627511	-0.225856
62057		10.133411	-0.380652	0.062427	-0.142270	0.069688	-0.014587	-0.730713	0.231934	-0.524170	0.726262	-0.168635	-0.626507	-0.227145
62058		9.078093	-0.531883	0.593249	-0.124687	0.100335	-0.103926	-0.735596	0.225098	-0.530518	0.726525	-0.168668	-0.625468	-0.229134
62059		8.929255	-0.278367	0.995160	-0.078996	0.130305	-0.141410	-0.729980	0.223145	-0.528564	0.727002	-0.167903	-0.624355	-0.231208
62060		9.519660	0.022485	1.228847	-0.023181	0.158494	-0.137654	-0.729980	0.219482	-0.523438	0.727823	-0.166578	-0.623137	-0.232863
62061		9.866910	0.141538	1.692822	0.002896	0.219901	-0.100580	-0.728516	0.215088	-0.536133	0.729265	-0.165144	-0.621351	-0.234142
62062		9.623522	-0.365272	1.667025	0.035776	0.129491	-0.124046	-0.720459	0.212402	-0.542725	0.730008	-0.163475	-0.620528	-0.235179
62063		9.098223	-0.460942	1.664879	0.133704	0.136267	-0.138974	-0.720703	0.206543	-0.549316	0.730969	-0.160756	-0.619962	-0.235560
62064		9.095094	0.359100	1.686861	0.222631	0.114093	-0.078430	-0.716797	0.201172	-0.547119	0.732110	-0.157753	-0.619732	-0.234650
62065		9.550705	1.120981	1.407202	0.241938	0.052855	-0.016861	-0.722168	0.197998	-0.550781	0.732983	-0.155237	-0.619989	-0.232917
62066		9.591057	1.345182	1.233833	0.236155	0.005027	0.009303	-0.723145	0.200928	-0.554932	0.733537	-0.153121	-0.620610	-0.230913
62067		9.415269	1.166581	1.540272	0.228904	0.030159	-0.024257	-0.721680	0.181641	-0.561768	0.734177	-0.150731	-0.621042	-0.229283
62068		9.451144	1.411485	1.941282	0.169429	0.004359	-0.054625	-0.725830	0.185791	-0.558594	0.734403	-0.148720	-0.621581	-0.228412
62069		9.637556	1.661994	2.043578	0.072975	-0.043166	-0.021205	-0.725098	0.177490	-0.557617	0.734170	-0.148002	-0.622220	-0.227887
62070		9.315745	1.056695	1.976395	0.034938	-0.038737	0.007364	-0.724121	0.184326	-0.565186	0.733974	-0.147847	-0.622649	-0.227444
62071		9.119976	1.065283	2.213746	-0.011856	0.014951	0.017379	-0.721680	0.177979	-0.551270	0.734158	-0.148024	-0.622442	-0.227303
62072		9.266628	1.013042	2.171322	-0.029238	0.039386	-0.005661	-0.727051	0.172607	-0.559326	0.734409	-0.148146	-0.621995	-0.227638
62073		9.470461	0.846869	1.925432	0.001168	-0.012282	-0.016440	-0.718262	0.175293	-0.557373	0.734280	-0.148049	-0.622122	-0.227769
62074		9.534708	0.947613	1.819182	-0.001080	-0.036281	-0.005250	-0.724854	0.182373	-0.560059	0.734004	-0.148117	-0.622447	-0.227726
62075		9.613752	0.845116	1.737037	-0.025933	-0.044019	0.012927	-0.723145	0.178711	-0.550049	0.733678	-0.148574	-0.622744	-0.227668
62076		9.627191	0.805515	1.821744	-0.045158	-0.002643	0.007223	-0.723145	0.176270	-0.549561	0.733608	-0.149061	-0.622613	-0.227933
62077		9.509143	0.840623	1.984852	-0.062803	0.039427	-0.009616	-0.716553	0.182861	-0.560303	0.733782	-0.149457	-0.622075	-0.228580
62078		9.511762	0.817518	1.995763	-0.062329	0.054147	-0.018132	-0.713135	0.180908	-0.555908	0.734073	-0.149714	-0.621424	-0.229248
62079		9.605112	0.817912	2.005318	-0.071616	0.063813	0.000493	-0.712158	0.181152	-0.552734	0.734467	-0.150181	-0.620620	-0.229858
62080		9.652927	0.764253	1.935964	-0.089809	0.069803	0.012158	-0.719727	0.181152	-0.552979	0.734898	-0.150897	-0.619685	-0.230533
62081		9.547427	0.665086	1.948115	-0.093353	0.093623	0.011236	-0.719482	0.185791	-0.562500	0.735491	-0.151580	-0.618519	-0.231323
62082		9.491408	0.544537	2.026351	-0.076363	0.098632	0.010667	-0.717041	0.186768	-0.561523	0.736165	-0.152071	-0.617358	-0.231957
62083		9.640147	0.468119	1.978315	-0.053666	0.095082	0.008605	-0.713867	0.189209	-0.561279	0.736845	-0.152352	-0.616298	-0.232433
62084		9.615669	0.518154	2.103631	-0.018566	0.072819	0.003480	-0.717529	0.196289	-0.556885	0.737405	-0.152337	-0.615554	-0.232637
62085		9.502978	0.535586	2.079642	0.019755	0.040404	0.009968	-0.710205	0.186523	-0.558594	0.737800	-0.152128	-0.615212	-0.232430
62086		9.460242	0.681046	2.175260	-0.003130	0.011186	0.015127	-0.703613	0.185059	-0.558838	0.737941	-0.152246	-0.615057	-0.232311
62087		9.602574	0.775502	1.997753	-0.012395	0.022343	0.015810	-0.705811	0.190186	-0.564697	0.738159	-0.152417	-0.614770	-0.232268
62088		9.555516	0.663814	2.085389	-0.029863	0.001844	0.016467	-0.708252	0.185303	-0.571045	0.738196	-0.152808	-0.614622	-0.232286
62089		9.479809	0.492846	1.945828	-0.014020	-0.009822	0.011360	-0.711182	0.188965	-0.559082	0.738160	-0.153036	-0.614634	-0.232215
62090		9.519347	0.563444	2.008086	-0.023205	0.007903	0.007979	-0.710938	0.180908	-0.558838	0.738216	-0.153296	-0.614465	-0.232316
62091		9.636888	0.542733	1.886686	-0.022970	-0.022995	0.003888	-0.716553	0.179199	-0.565430	0.738016	-0.153608	-0.614587	-0.232424
62092		9.578157	0.504174	1.917982	-0.023305	-0.026002	0.003055	-0.708984	0.192627	-0.563232	0.737793	-0.153914	-0.614737	-0.232531
62093		9.514751	0.507130	1.932123	-0.024119	-0.046351	-0.001835	-0.708496	0.190674	-0.554932	0.737414	-0.154254	-0.615085	-0.232585
62094		9.586667	0.468324	1.827007	-0.014529	-0.038356	-0.003497	-0.712891	0.186035	-0.555908	0.737099	-0.154482	-0.615390	-0.232627
62095		9.578641	0.523575	1.914322	-0.016961	-0.038230	0.002745	-0.717529	0.189697	-0.556641	0.736793	-0.154775	-0.615674	-0.232650
62096		9.608950	0.470083	1.865738	-0.005562	-0.041037	0.004735	-0.710205	0.197754	-0.564209	0.736494	-0.154986	-0.616015	-0.232553
62097		9.527373	0.463243	1.910838	0.002418	-0.022940	-0.000422	-0.717041	0.192139	-0.550537	0.736361	-0.155020	-0.616223	-0.232401
62098		9.515594	0.496610	1.912040	0.003178	-0.025924	0.002074	-0.710693	0.189941	-0.557373	0.736182	-0.155096	-0.616456	-0.232297
62099		9.540125	0.448491	1.907125	0.020081	-0.018337	0.002965	-0.715332	0.187744	-0.565186	0.736115	-0.154985	-0.616665	-0.232032
62100		9.546650	0.473676	1.916295	0.035088	-0.027500	0.003242	-0.709229	0.200439	-0.552734	0.736013	-0.154750	-0.617001	-0.231620
62101		9.625017	0.505678	1.839205	0.035274	-0.003797	0.002795	-0.717529	0.195557	-0.551270	0.736089	-0.154470	-0.617122	-0.231239
62102		9.599756	0.552848	1.912582	0.026022	0.003996	0.000024	-0.719238	0.197021	-0.556396	0.736185	-0.154234	-0.617151	-0.231014
62103		9.562922	0.522177	1.902205	0.018185	0.001447	-0.001529	-0.715088	0.186035	-0.552246	0.736249	-0.154058	-0.617185	-0.230840
62104		9.506177	0.462996	1.990856	0.021010	0.004845	0.001283	-0.710693	0.189941	-0.552246	0.736342	-0.153866	-0.617187	-0.230662
62105		9.487951	0.437828	2.015961	0.023129	0.001957	-0.001679	-0.717041	0.197510	-0.560303	0.736417	-0.153642	-0.617228	-0.230465
62106		9.544089	0.452414	1.911762	0.029048	0.005421	-0.008351	-0.724121	0.194336	-0.559326	0.736521	-0.153297	-0.617267	-0.230255
62107		9.606103	0.522377	1.877009	0.025255	0.002331	-0.017331	-0.712158	0.180176	-0.552979	0.736556	-0.152929	-0.617344	-0.230183
62108		9.675186	0.600316	1.823253	0.002762	0.024696	-0.018547	-0.710938	0.187500	-0.550781	0.736712	-0.152689	-0.617148	-0.230369
62109		9.507676	0.494674	1.923443	-0.005214	0.022446	-0.014145	-0.716553	0.186523	-0.558105	0.736850	-0.152573	-0.616943	-0.230556
62110		9.459520	0.446644	1.920679	-0.003797	0.017596	-0.012142	-0.723145	0.195801	-0.554688	0.736962	-0.152463	-0.616783	-0.230695
62111		9.524190	0.474024	1.955968	-0.006197	0.010963	-0.012892	-0.705322	0.195312	-0.558838	0.737009	-0.152406	-0.616683	-0.230852
62112		9.583197	0.581831	1.876057	-0.009472	-0.006137	-0.012111	-0.713135	0.193359	-0.555664	0.736948	-0.152424	-0.616721	-0.230933
62113		9.593475	0.555337	1.855796	-0.023019	-0.000747	-0.015260	-0.721680	0.191406	-0.555176	0.736877	-0.152530	-0.616681	-0.231195
62114		9.577460	0.514332	1.844958	-0.023291	0.005851	-0.015660	-0.709473	0.187256	-0.559082	0.736843	-0.152618	-0.616583	-0.231506
62115		9.566332	0.513958	1.856803	-0.025565	0.018426	-0.015554	-0.710205	0.187256	-0.557617	0.736922	-0.152677	-0.616357	-0.231821
62116		9.555142	0.513681	1.868901	-0.022550	0.008075	-0.016508	-0.719482	0.196289	-0.557861	0.736919	-0.152733	-0.616237	-0.232110
62117		9.575131	0.508099	1.826578	-0.018651	0.008481	-0.014864	-0.716553	0.192627	-0.553223	0.736926	-0.152777	-0.616126	-0.232354
62118		9.576947	0.507981	1.820709	-0.021795	0.015427	-0.015574	-0.713379	0.191162	-0.561035	0.736971	-0.152827	-0.615943	-0.232662
62119		9.555796	0.501115	1.884541	-0.023202	0.007821	-0.013283	-0.717529	0.188721	-0.560059	0.736978	-0.152915	-0.615819	-0.232912
62120		9.534741	0.498676	1.880272	-0.016978	-0.007453	-0.011147	-0.717529	0.185547	-0.559082	0.736877	-0.153005	-0.615851	-0.233086
62121		9.506423	0.538110	1.889236	-0.022069	-0.018602	-0.011733	-0.719238	0.186279	-0.561279	0.736675	-0.153167	-0.615974	-0.233294
62122		9.554002	0.558473	1.882040	-0.024808	-0.016984	-0.007654	-0.713867	0.189697	-0.554199	0.736496	-0.153378	-0.616065	-0.233481
62123		9.601960	0.529971	1.856745	-0.022152	-0.029038	-0.003229	-0.710693	0.190918	-0.558105	0.736239	-0.153647	-0.616266	-0.233584
62124		9.628956	0.529962	1.815410	-0.024768	-0.024323	-0.001595	-0.709473	0.195801	-0.556885	0.736031	-0.153933	-0.616409	-0.233671
62125		9.539520	0.514932	1.883701	-0.017796	-0.027384	-0.000868	-0.724609	0.190674	-0.554199	0.735820	-0.154176	-0.616598	-0.233678
62126		9.543273	0.527752	1.874132	-0.010259	-0.026079	-0.001866	-0.721436	0.191162	-0.546143	0.735602	-0.154337	-0.616809	-0.233703
62127		9.570237	0.558581	1.866577	-0.003286	-0.019148	-0.001682	-0.719727	0.185303	-0.554932	0.735442	-0.154427	-0.616977	-0.233703
62128		9.592046	0.547117	1.860867	-0.003785	-0.019398	-0.000288	-0.720215	0.186035	-0.543701	0.735301	-0.154507	-0.617139	-0.233665
62129		9.590015	0.583781	1.855315	-0.004476	-0.015057	-0.003502	-0.715576	0.185547	-0.554688	0.735161	-0.154575	-0.617271	-0.233711
62130		9.541164	0.552248	1.859277	-0.000826	-0.009031	-0.004354	-0.718506	0.197021	-0.555176	0.735102	-0.154564	-0.617353	-0.233690
62131		9.552428	0.521196	1.880604	0.007740	-0.009696	-0.004424	-0.719238	0.187988	-0.552246	0.735057	-0.154496	-0.617464	-0.233583
62132		9.531999	0.565988	1.890003	0.016089	-0.014475	-0.002332	-0.726074	0.190918	-0.549316	0.734986	-0.154370	-0.617643	-0.233415
62133		9.617414	0.589417	1.809315	0.012122	-0.004173	-0.006510	-0.714111	0.189209	-0.562988	0.734961	-0.154229	-0.617729	-0.233359
62134		9.638744	0.560982	1.846236	0.015902	0.007345	-0.008415	-0.718018	0.188477	-0.556641	0.735072	-0.153978	-0.617710	-0.233226
62135		9.601189	0.564970	1.828025	0.016068	0.020353	-0.006283	-0.712158	0.193359	-0.557373	0.735269	-0.153714	-0.617574	-0.233137
62136		9.545843	0.542118	1.834202	0.018080	0.007126	-0.005871	-0.708252	0.195312	-0.560303	0.735382	-0.153482	-0.617559	-0.232974
62137		9.516817	0.566286	1.841183	0.029551	0.000604	-0.006417	-0.712646	0.187744	-0.554443	0.735477	-0.153158	-0.617635	-0.232688
62138		9.548560	0.572954	1.879868	0.035672	-0.002309	-0.001628	-0.716309	0.182861	-0.552002	0.735551	-0.152823	-0.617753	-0.232360
62139		9.592375	0.602031	1.817730	0.026480	-0.013168	-0.004005	-0.720947	0.192871	-0.558350	0.735503	-0.152583	-0.617953	-0.232137
62140		9.590019	0.608635	1.801920	0.026884	-0.008800	-0.003899	-0.716797	0.192383	-0.556885	0.735503	-0.152334	-0.618111	-0.231879
62141		9.569722	0.636597	1.827582	0.021736	-0.011354	-0.004300	-0.723633	0.189941	-0.555908	0.735476	-0.152139	-0.618277	-0.231653
62142		9.560170	0.633837	1.854926	0.015044	-0.012165	-0.004242	-0.715820	0.192383	-0.554199	0.735416	-0.152008	-0.618435	-0.231507
62143		9.513321	0.619460	1.811532	0.003357	-0.015537	-0.006418	-0.717041	0.189209	-0.551758	0.735312	-0.151983	-0.618590	-0.231441
62144		9.577119	0.615123	1.860086	0.002576	-0.006770	-0.004025	-0.729248	0.188721	-0.552002	0.735272	-0.151958	-0.618659	-0.231396
62145		9.616295	0.614992	1.826224	-0.002703	-0.014811	-0.003358	-0.711914	0.183594	-0.558838	0.735144	-0.152010	-0.618795	-0.231407
62146		9.585551	0.593958	1.798914	0.005715	-0.020621	-0.003377	-0.713867	0.180420	-0.550049	0.735027	-0.151975	-0.618994	-0.231269
62147		9.523968	0.611835	1.813537	0.005756	-0.020991	-0.002375	-0.717041	0.191162	-0.553223	0.734887	-0.151958	-0.619202	-0.231170
62148		9.559996	0.683074	1.742665	-0.000273	-0.023679	-0.002815	-0.723633	0.191650	-0.548584	0.734723	-0.152017	-0.619413	-0.231086
62149		9.593545	0.620877	1.798500	-0.006285	-0.016727	-0.002816	-0.732666	0.191162	-0.549316	0.734581	-0.152121	-0.619551	-0.231099
62150		9.620137	0.604336	1.775475	-0.006360	-0.016001	-0.004820	-0.723145	0.188232	-0.547119	0.734427	-0.152207	-0.619692	-0.231155
62151		9.584644	0.571664	1.783015	0.000532	-0.015578	-0.005729	-0.721924	0.188232	-0.554443	0.734296	-0.152216	-0.619845	-0.231152
62152		9.569956	0.576245	1.806209	0.008871	-0.013411	-0.008716	-0.718994	0.191406	-0.547852	0.734210	-0.152105	-0.620003	-0.231077
62153		9.521675	0.592084	1.847925	0.004347	-0.018922	-0.004766	-0.721924	0.184082	-0.549316	0.734076	-0.152102	-0.620190	-0.231002
62154		9.549949	0.640397	1.793726	-0.002921	-0.019246	-0.005297	-0.718262	0.187256	-0.550293	0.733919	-0.152142	-0.620365	-0.231002
62155		9.592562	0.633964	1.792701	-0.011636	-0.016161	-0.001971	-0.723145	0.194824	-0.558838	0.733791	-0.152283	-0.620475	-0.231022
62156		9.600623	0.657124	1.773047	-0.024716	-0.017167	-0.002376	-0.717773	0.192383	-0.547607	0.733646	-0.152547	-0.620550	-0.231108
62157		9.563740	0.606177	1.827548	-0.037898	-0.019191	-0.003057	-0.721191	0.196289	-0.548340	0.733440	-0.152944	-0.620611	-0.231334
62158		9.577379	0.575427	1.770013	-0.043974	-0.043257	-0.006781	-0.716797	0.180664	-0.556152	0.733024	-0.153444	-0.620882	-0.231594
62159		9.570421	0.540881	1.705594	-0.036556	-0.040216	-0.007711	-0.723877	0.192383	-0.551025	0.732664	-0.153804	-0.621146	-0.231788
62160		9.636653	0.569336	1.684824	-0.026195	-0.033076	-0.004554	-0.724121	0.196777	-0.545166	0.732372	-0.154109	-0.621371	-0.231903
62161		9.654335	0.545689	1.711547	-0.006870	-0.019781	-0.000000	-0.717773	0.193848	-0.546143	0.732225	-0.154254	-0.621524	-0.231864
62162		9.595502	0.621327	1.763787	-0.005440	-0.007705	0.001506	-0.718262	0.187256	-0.541260	0.732191	-0.154351	-0.621561	-0.231804
62163		9.533643	0.573589	1.759407	-0.003381	-0.011316	0.002362	-0.716553	0.197510	-0.547119	0.732120	-0.154438	-0.621645	-0.231748
62164		9.517466	0.596385	1.724365	-0.001882	-0.007531	0.002683	-0.716064	0.184082	-0.547119	0.732106	-0.154517	-0.621684	-0.231634
62165		9.586139	0.602248	1.738303	-0.005241	-0.013253	-0.001125	-0.721924	0.191406	-0.548096	0.732023	-0.154579	-0.621781	-0.231595
62166		9.682140	0.592470	1.678836	-0.000992	-0.018380	-0.003979	-0.720947	0.185547	-0.545654	0.731896	-0.154612	-0.621943	-0.231537
62167		9.676184	0.651710	1.645327	-0.004942	-0.008120	-0.003010	-0.720459	0.198242	-0.543457	0.731838	-0.154649	-0.622002	-0.231539
62168		9.604624	0.583015	1.690384	-0.003438	0.011596	-0.005269	-0.728027	0.186768	-0.547607	0.731934	-0.154632	-0.621883	-0.231567
62169		9.567186	0.531714	1.773850	0.007077	0.016648	-0.001231	-0.724365	0.193359	-0.549072	0.732089	-0.154501	-0.621751	-0.231520
62170		9.545703	0.512544	1.766558	0.018295	0.006070	-0.004808	-0.727295	0.197754	-0.543945	0.732186	-0.154285	-0.621747	-0.231367
62171		9.572272	0.589879	1.824918	0.020787	0.001324	-0.004630	-0.721680	0.193115	-0.540771	0.732236	-0.154084	-0.621798	-0.231206
62172		9.621148	0.661278	1.710483	0.003347	-0.002496	-0.002501	-0.730957	0.183594	-0.545166	0.732227	-0.154063	-0.621830	-0.231161
62173		9.643838	0.633175	1.673534	-0.008001	0.009183	-0.001933	-0.721680	0.193115	-0.549561	0.732277	-0.154086	-0.621732	-0.231250
62174		9.576192	0.544922	1.675481	-0.010033	0.013220	-0.010751	-0.720703	0.193604	-0.549072	0.732363	-0.154063	-0.621589	-0.231378
62175		9.563906	0.527551	1.734413	-0.001653	0.012943	-0.010031	-0.725342	0.182373	-0.552002	0.732466	-0.153972	-0.621471	-0.231432
62176		9.591668	0.588626	1.735701	-0.009834	0.000624	-0.001369	-0.717773	0.194336	-0.545654	0.732472	-0.154024	-0.621435	-0.231473
62177		9.645133	0.616728	1.688755	-0.011894	0.000380	0.002221	-0.724854	0.188965	-0.552490	0.732489	-0.154167	-0.621379	-0.231476
62178		9.599415	0.561338	1.725644	-0.016241	0.003180	-0.001445	-0.725098	0.189941	-0.549072	0.732509	-0.154286	-0.621296	-0.231556
62179		9.578804	0.540147	1.738381	-0.006031	0.002594	-0.010715	-0.723877	0.188477	-0.548340	0.732508	-0.154249	-0.621269	-0.231655
62180		9.568307	0.523195	1.742588	0.003152	0.006248	-0.007432	-0.721191	0.188477	-0.547119	0.732562	-0.154141	-0.621230	-0.231661
62181		9.614715	0.591528	1.756280	-0.001798	0.000093	-0.001089	-0.714844	0.194824	-0.552734	0.732578	-0.154147	-0.621220	-0.231633
62182		9.606504	0.587170	1.733893	-0.009486	-0.003629	0.000396	-0.724609	0.189697	-0.547607	0.732588	-0.154252	-0.621200	-0.231585
62183		9.563294	0.560895	1.772244	-0.016260	0.001429	0.000275	-0.724365	0.189453	-0.552002	0.732586	-0.154400	-0.621135	-0.231667
62184		9.637202	0.547725	1.691355	-0.019060	0.002484	-0.003861	-0.722168	0.197266	-0.553711	0.732587	-0.154529	-0.621056	-0.231790
62185		9.624261	0.547892	1.710607	-0.010089	0.007979	-0.005579	-0.721680	0.191895	-0.549805	0.732657	-0.154563	-0.620946	-0.231839
62186		9.536799	0.578564	1.794950	-0.010317	-0.000287	-0.003095	-0.718018	0.195801	-0.547852	0.732656	-0.154635	-0.620914	-0.231880
62187		9.548423	0.566589	1.728355	-0.009422	0.002245	-0.001652	-0.724365	0.194580	-0.545898	0.732685	-0.154717	-0.620854	-0.231895
62188		9.621791	0.565618	1.749539	-0.000971	0.005757	-0.000247	-0.717041	0.191162	-0.557617	0.732742	-0.154724	-0.620794	-0.231872
62189		9.664450	0.623531	1.725301	-0.006310	0.017073	-0.003760	-0.722168	0.189697	-0.549316	0.732912	-0.154685	-0.620603	-0.231873
62190		9.599060	0.563696	1.730464	-0.004511	0.016977	-0.002670	-0.718018	0.194092	-0.555420	0.733050	-0.154653	-0.620433	-0.231913
62191		9.466462	0.558036	1.784009	0.007342	0.007975	-0.003239	-0.724854	0.194092	-0.555908	0.733168	-0.154532	-0.620366	-0.231797
62192		9.492353	0.540724	1.788369	0.011755	0.010404	-0.004734	-0.717773	0.187012	-0.548828	0.733295	-0.154354	-0.620301	-0.231689
62193		9.580528	0.570881	1.794626	0.016173	0.003824	-0.003584	-0.721924	0.192139	-0.559814	0.733371	-0.154158	-0.620312	-0.231551
62194		9.629131	0.590738	1.759993	0.014315	-0.001964	-0.002632	-0.718994	0.197021	-0.551270	0.733428	-0.153996	-0.620358	-0.231356
62195		9.631533	0.589248	1.750819	0.016453	0.002703	-0.002423	-0.716797	0.190186	-0.540039	0.733511	-0.153834	-0.620369	-0.231170
62196		9.584953	0.585252	1.783204	0.009980	0.008378	-0.003109	-0.708740	0.186279	-0.552246	0.733589	-0.153717	-0.620325	-0.231118
62197		9.545633	0.556735	1.783848	0.009118	0.010634	-0.001757	-0.718994	0.192871	-0.558594	0.733737	-0.153571	-0.620235	-0.230986
62198		9.566464	0.576391	1.817812	0.013104	0.009685	-0.001251	-0.717529	0.198730	-0.554199	0.733887	-0.153404	-0.620165	-0.230807
62199		9.646519	0.617439	1.806924	-0.007998	-0.002897	-0.003808	-0.722656	0.191162	-0.549316	0.733886	-0.153472	-0.620154	-0.230794
62200		9.606686	0.592229	1.761985	-0.006861	0.002731	-0.006649	-0.718018	0.187744	-0.553955	0.733889	-0.153486	-0.620118	-0.230873
62201		9.576037	0.582499	1.811617	-0.010635	0.010189	-0.007924	-0.718506	0.187988	-0.553223	0.733961	-0.153481	-0.619996	-0.230977
62202		9.554071	0.597238	1.793441	-0.006022	0.007732	-0.008931	-0.718506	0.192871	-0.550781	0.734015	-0.153435	-0.619913	-0.231055
62203		9.526548	0.535087	1.838933	-0.004065	0.006176	-0.003835	-0.722412	0.182617	-0.548584	0.734073	-0.153435	-0.619840	-0.231069
62204		9.562004	0.555920	1.800621	0.002186	-0.003904	-0.005102	-0.720459	0.190186	-0.550293	0.734034	-0.153377	-0.619896	-0.231081
62205		9.651693	0.572339	1.725375	0.008920	0.003466	-0.004106	-0.714844	0.196777	-0.553711	0.734085	-0.153259	-0.619892	-0.231008
62206		9.622829	0.593443	1.755804	0.008092	0.014354	-0.004405	-0.722656	0.190918	-0.555420	0.734248	-0.153123	-0.619768	-0.230912
62207		9.552449	0.571791	1.789633	0.010059	0.016639	-0.003755	-0.719238	0.187500	-0.553467	0.734415	-0.152952	-0.619642	-0.230835
62208		9.542351	0.550634	1.840024	0.016484	0.016485	-0.002270	-0.721924	0.190674	-0.556152	0.734593	-0.152728	-0.619534	-0.230703
62209		9.538844	0.571820	1.835335	0.011493	0.005552	0.001274	-0.719971	0.187500	-0.561279	0.734692	-0.152615	-0.619504	-0.230547
62210		9.602956	0.586328	1.797148	0.015453	0.007365	0.002179	-0.715576	0.186279	-0.554443	0.734831	-0.152445	-0.619461	-0.230330
62211		9.599531	0.607004	1.792260	0.011811	0.013061	0.000779	-0.724121	0.187012	-0.544678	0.734991	-0.152295	-0.619361	-0.230189
62212		9.601997	0.571329	1.796891	0.011696	0.014151	-0.002225	-0.714844	0.188721	-0.560791	0.735096	-0.152151	-0.619281	-0.230163
62213		9.578269	0.569537	1.826646	0.020800	0.015479	-0.005441	-0.714844	0.194336	-0.541992	0.735295	-0.151856	-0.619186	-0.229975
62214		9.533620	0.595458	1.861992	0.021469	0.004613	-0.003286	-0.723389	0.184082	-0.551514	0.735360	-0.151670	-0.619209	-0.229833
62215		9.556443	0.600498	1.836028	0.022218	0.002006	-0.001793	-0.719238	0.188721	-0.546143	0.735411	-0.151444	-0.619264	-0.229668
62216		9.608518	0.627991	1.864402	0.014991	0.008841	0.001849	-0.716553	0.185547	-0.557129	0.735507	-0.151321	-0.619226	-0.229543
62217		9.596789	0.644262	1.838229	0.000949	0.018033	-0.000176	-0.713379	0.190430	-0.557373	0.735682	-0.151248	-0.619052	-0.229502
62218		9.542662	0.567972	1.872251	0.000729	0.013624	-0.002123	-0.715576	0.188477	-0.562256	0.735826	-0.151190	-0.618912	-0.229455
62219		9.495557	0.563038	1.906547	0.010312	0.014414	0.002235	-0.715820	0.187744	-0.547852	0.736015	-0.151057	-0.618783	-0.229283
62220		9.520770	0.563852	1.872810	0.013078	0.001035	0.000427	-0.716064	0.187256	-0.561768	0.736050	-0.150959	-0.618810	-0.229163
62221		9.613645	0.589076	1.839329	0.010396	0.010627	-0.000274	-0.714600	0.184814	-0.554688	0.736197	-0.150817	-0.618724	-0.229015
62222		9.608350	0.609959	1.886949	0.006900	0.009418	-0.003580	-0.714600	0.192627	-0.551025	0.736296	-0.150695	-0.618657	-0.228962
62223		9.569055	0.581322	1.887567	0.002648	0.009380	-0.002537	-0.717041	0.185791	-0.558594	0.736381	-0.150658	-0.618572	-0.228941
62224		9.483735	0.545500	1.940478	-0.001109	0.005096	-0.001552	-0.719238	0.187256	-0.543701	0.736443	-0.150633	-0.618515	-0.228912
62225		9.516872	0.537781	1.878056	-0.000488	-0.005388	-0.000382	-0.718750	0.194336	-0.562988	0.736373	-0.150686	-0.618578	-0.228933
62226		9.573847	0.592700	1.875377	0.003661	-0.006358	-0.001702	-0.715332	0.186523	-0.554199	0.736370	-0.150671	-0.618626	-0.228822
62227		9.604846	0.602481	1.848270	-0.002345	-0.002180	-0.002092	-0.722656	0.179443	-0.552002	0.736362	-0.150687	-0.618637	-0.228809
62228		9.597694	0.577961	1.886763	-0.000331	0.008713	-0.003120	-0.716553	0.181641	-0.564453	0.736409	-0.150624	-0.618580	-0.228853
62229		9.531877	0.599631	1.895399	-0.003820	0.005412	-0.003698	-0.717529	0.186279	-0.555420	0.736480	-0.150576	-0.618513	-0.228835
62230		9.544505	0.600694	1.878306	-0.003533	-0.000846	-0.004310	-0.717285	0.184082	-0.564453	0.736471	-0.150579	-0.618515	-0.228858
62231		9.544633	0.585372	1.872559	-0.005792	-0.001358	-0.003007	-0.712402	0.187500	-0.557373	0.736487	-0.150582	-0.618502	-0.228836
62232		9.560114	0.597694	1.873217	-0.007378	0.000742	-0.003550	-0.718506	0.187988	-0.556885	0.736506	-0.150621	-0.618464	-0.228856
62233		9.593272	0.574471	1.805717	-0.006431	0.002245	-0.004228	-0.716309	0.184570	-0.561768	0.736518	-0.150646	-0.618427	-0.228901
62234		9.572181	0.601436	1.835210	-0.006170	0.005321	-0.008519	-0.718994	0.189453	-0.563721	0.736563	-0.150598	-0.618364	-0.228957
62235		9.580132	0.621359	1.885900	-0.008894	0.004206	-0.004818	-0.716064	0.184326	-0.553711	0.736607	-0.150623	-0.618292	-0.228993
62236		9.543847	0.603716	1.903586	-0.014431	0.002400	-0.003541	-0.718750	0.182861	-0.555664	0.736599	-0.150721	-0.618235	-0.229109
62237		9.548978	0.582764	1.880107	-0.011380	-0.003106	-0.006856	-0.719238	0.184814	-0.558350	0.736544	-0.150769	-0.618248	-0.229220
62238		9.560087	0.567743	1.908909	-0.017460	-0.002701	-0.007914	-0.715820	0.185303	-0.557129	0.736487	-0.150864	-0.618236	-0.229373
62239		9.606017	0.577290	1.833524	-0.018036	-0.006706	-0.007187	-0.710449	0.184326	-0.561035	0.736405	-0.150984	-0.618253	-0.229509
62240		9.608384	0.591273	1.829872	-0.015718	0.002716	-0.006033	-0.712891	0.182861	-0.562988	0.736433	-0.151047	-0.618174	-0.229592
62241		9.551362	0.553256	1.837625	-0.010882	0.004667	-0.005074	-0.714844	0.185303	-0.553955	0.736487	-0.151056	-0.618093	-0.229630
62242		9.525115	0.570919	1.857449	-0.006398	-0.000519	-0.004620	-0.717285	0.186035	-0.555176	0.736473	-0.151080	-0.618085	-0.229681
62243		9.587491	0.587050	1.848374	-0.007816	-0.005022	-0.002941	-0.719971	0.186523	-0.556641	0.736425	-0.151143	-0.618113	-0.229720
62244		9.615910	0.599765	1.830543	-0.006228	-0.002633	-0.003733	-0.709229	0.190186	-0.564453	0.736395	-0.151175	-0.618126	-0.229756
62245		9.573940	0.606912	1.827462	-0.006824	0.002999	-0.002550	-0.724365	0.193848	-0.552734	0.736472	-0.151191	-0.618049	-0.229708
62246		9.566215	0.569357	1.817377	-0.004586	0.008664	-0.002062	-0.714111	0.187744	-0.560303	0.736515	-0.151232	-0.617963	-0.229776
62247		9.532887	0.561316	1.875684	-0.004189	0.003413	-0.002408	-0.722656	0.182373	-0.550293	0.736568	-0.151229	-0.617908	-0.229754
62248		9.537370	0.589833	1.846537	-0.008227	-0.009045	-0.004060	-0.718262	0.190674	-0.557617	0.736449	-0.151299	-0.617997	-0.229850
62249		9.576962	0.602545	1.862291	-0.009783	-0.009706	-0.004994	-0.708984	0.189941	-0.554932	0.736364	-0.151387	-0.618058	-0.229899
62250		9.570055	0.579684	1.876147	-0.014001	-0.008028	-0.005676	-0.709717	0.184814	-0.559570	0.736298	-0.151506	-0.618080	-0.229975
62251		9.589307	0.509847	1.837318	-0.006881	-0.012795	-0.005084	-0.712646	0.189697	-0.557373	0.736223	-0.151540	-0.618169	-0.229953
62252		9.568847	0.536366	1.863583	0.004942	-0.006968	-0.003347	-0.711914	0.187988	-0.550537	0.736209	-0.151489	-0.618234	-0.229856
62253		9.537175	0.578729	1.861146	0.005394	-0.007799	0.000100	-0.717285	0.184570	-0.554199	0.736174	-0.151479	-0.618313	-0.229763
62254		9.553477	0.572964	1.876463	0.006722	-0.004002	0.002266	-0.708252	0.189941	-0.555420	0.736176	-0.151436	-0.618367	-0.229641
62255		9.600243	0.608594	1.876922	-0.002543	-0.008687	-0.001328	-0.722412	0.191650	-0.555908	0.736145	-0.151481	-0.618416	-0.229576
62256		9.597624	0.583577	1.829394	-0.001173	-0.006211	-0.005402	-0.715088	0.186523	-0.559082	0.736090	-0.151484	-0.618477	-0.229588
62257		9.567596	0.557492	1.870194	-0.001910	-0.005708	-0.004169	-0.714600	0.184570	-0.558594	0.736071	-0.151466	-0.618519	-0.229547
62258		9.533242	0.572795	1.844266	0.005349	-0.005342	-0.003628	-0.723877	0.187012	-0.561279	0.736069	-0.151377	-0.618580	-0.229447
62259		9.567857	0.575126	1.873128	0.005027	-0.005305	0.000051	-0.712646	0.182861	-0.556152	0.736065	-0.151323	-0.618642	-0.229329
62260		9.562369	0.600103	1.850899	0.002327	-0.013978	0.000564	-0.718506	0.189453	-0.560303	0.735998	-0.151320	-0.618768	-0.229205
62261		9.552454	0.582802	1.829287	0.003438	-0.010095	-0.000555	-0.709717	0.187744	-0.556396	0.735966	-0.151302	-0.618857	-0.229081
62262		9.588818	0.601511	1.810344	0.001472	-0.007895	-0.002536	-0.717529	0.190674	-0.559326	0.735949	-0.151284	-0.618915	-0.228990
62263		9.581765	0.595122	1.829833	0.002870	-0.008178	-0.007007	-0.712158	0.185547	-0.551514	0.735912	-0.151224	-0.618994	-0.228935
62264		9.559545	0.575704	1.870786	0.000506	-0.005213	-0.007311	-0.712158	0.182861	-0.554932	0.735874	-0.151180	-0.619048	-0.228941
62265		9.540839	0.587221	1.839584	-0.006265	-0.009170	-0.004794	-0.713379	0.187012	-0.552979	0.735813	-0.151204	-0.619114	-0.228944
62266		9.606444	0.583087	1.836317	-0.006694	-0.005647	-0.002723	-0.717285	0.183838	-0.560791	0.735775	-0.151264	-0.619140	-0.228954
62267		9.598736	0.593584	1.840432	-0.004977	-0.005005	-0.003631	-0.712646	0.184326	-0.553223	0.735764	-0.151255	-0.619168	-0.228919
62268		9.573214	0.563115	1.842587	-0.006395	0.001866	-0.003213	-0.723389	0.182373	-0.554443	0.735787	-0.151273	-0.619129	-0.228940
62269		9.562493	0.562228	1.829727	-0.004946	-0.000876	-0.003958	-0.720215	0.184082	-0.551025	0.735762	-0.151270	-0.619144	-0.228980
62270		9.562313	0.595004	1.839872	-0.003968	-0.009016	-0.005100	-0.716064	0.190186	-0.554688	0.735669	-0.151292	-0.619235	-0.229020
62271		9.567768	0.574803	1.814254	-0.005160	-0.007685	-0.007312	-0.717285	0.189941	-0.561523	0.735609	-0.151314	-0.619289	-0.229052
62272		9.622370	0.586118	1.804138	-0.005266	-0.001802	-0.007521	-0.719238	0.190186	-0.556152	0.735620	-0.151290	-0.619281	-0.229052
62273		9.632088	0.622318	1.807183	-0.005590	0.005126	-0.003769	-0.717773	0.186279	-0.551270	0.735667	-0.151302	-0.619213	-0.229079
62274		9.538476	0.583412	1.816804	-0.008804	0.012079	-0.004442	-0.714355	0.180176	-0.555420	0.735740	-0.151320	-0.619085	-0.229179
62275		9.476813	0.549268	1.865430	-0.003238	0.004258	-0.006193	-0.711914	0.193115	-0.555176	0.735781	-0.151250	-0.619048	-0.229193
62276		9.528000	0.581147	1.849860	-0.000275	0.000147	-0.008408	-0.727295	0.183838	-0.553223	0.735801	-0.151209	-0.619032	-0.229200
62277		9.640036	0.582283	1.838558	-0.001078	-0.003117	-0.007851	-0.713379	0.187500	-0.558350	0.735739	-0.151158	-0.619094	-0.229263
62278		9.590233	0.600640	1.839901	-0.000602	-0.004609	-0.007525	-0.720947	0.183105	-0.558594	0.735732	-0.151102	-0.619128	-0.229233
62279		9.577886	0.569935	1.845842	0.004868	0.000646	-0.005288	-0.720703	0.181152	-0.562500	0.735760	-0.150978	-0.619148	-0.229170
62280		9.549137	0.560747	1.841465	0.004731	0.002398	-0.005171	-0.717041	0.187012	-0.558594	0.735818	-0.150826	-0.619149	-0.229078
62281		9.551662	0.574018	1.860308	0.005969	0.002135	-0.007803	-0.719727	0.182617	-0.552490	0.735865	-0.150687	-0.619148	-0.229023
62282		9.584976	0.581179	1.847819	0.005496	0.006022	-0.006731	-0.719238	0.185303	-0.554932	0.735906	-0.150560	-0.619130	-0.229024
62283		9.584084	0.584297	1.828108	0.003310	0.011662	-0.003352	-0.716064	0.185303	-0.555420	0.736010	-0.150465	-0.619037	-0.229004
62284		9.591341	0.591556	1.830462	0.001451	0.005578	-0.006521	-0.712891	0.197754	-0.551758	0.736063	-0.150379	-0.618995	-0.229003
62285		9.565078	0.564078	1.812568	-0.000079	0.006644	-0.009177	-0.728027	0.187988	-0.559814	0.736111	-0.150359	-0.618917	-0.229071
62286		9.538853	0.581180	1.855697	0.004410	0.010751	-0.007266	-0.720215	0.191650	-0.558594	0.736193	-0.150223	-0.618851	-0.229076
62287		9.564191	0.581865	1.844440	0.004325	0.010046	-0.003423	-0.716797	0.185547	-0.546143	0.736297	-0.150143	-0.618762	-0.229035
62288		9.560896	0.617205	1.866221	0.000126	0.002738	-0.001444	-0.718018	0.185303	-0.563721	0.736294	-0.150163	-0.618747	-0.229073
62289		9.581682	0.591969	1.838200	-0.003922	0.002295	-0.001236	-0.718506	0.188232	-0.558594	0.736353	-0.150146	-0.618704	-0.229010
62290		9.563132	0.584700	1.825799	-0.002242	0.005697	-0.001748	-0.718994	0.185303	-0.550293	0.736417	-0.150137	-0.618637	-0.228991
62291		9.570556	0.591078	1.827548	-0.004034	0.005776	-0.002844	-0.723145	0.177734	-0.557373	0.736435	-0.150157	-0.618586	-0.229057
62292		9.580834	0.592935	1.842304	-0.006126	0.007627	-0.001984	-0.717041	0.186523	-0.559326	0.736484	-0.150128	-0.618526	-0.229082
62293		9.567750	0.592560	1.861637	-0.013006	0.004745	-0.002478	-0.720703	0.183105	-0.548584	0.736523	-0.150203	-0.618440	-0.229140
62294		9.567921	0.560988	1.851765	-0.010786	0.005629	-0.004783	-0.709717	0.182129	-0.560303	0.736507	-0.150268	-0.618387	-0.229293
62295		9.585252	0.586712	1.850932	-0.004645	0.009013	-0.003052	-0.714355	0.186523	-0.553955	0.736617	-0.150219	-0.618280	-0.229260
62296		9.558853	0.587735	1.866983	-0.001738	0.010725	-0.000346	-0.714844	0.188965	-0.551514	0.736711	-0.150213	-0.618170	-0.229257
62297		9.535279	0.569740	1.868141	0.002421	0.007688	0.001055	-0.717041	0.193359	-0.558350	0.736780	-0.150214	-0.618097	-0.229232
62298		9.563380	0.580586	1.875262	0.006459	0.012619	-0.000476	-0.717529	0.176270	-0.556152	0.736913	-0.150146	-0.617979	-0.229165
62299		9.588505	0.596542	1.869899	0.004870	0.009920	-0.003811	-0.717041	0.193359	-0.551025	0.737000	-0.149989	-0.617932	-0.229117
62300		9.596493	0.584127	1.911185	0.007229	0.016236	-0.002035	-0.711426	0.175781	-0.558105	0.737122	-0.149929	-0.617797	-0.229128
62301		9.596462	0.619159	1.853380	0.005936	0.028217	-0.001665	-0.715088	0.185791	-0.561035	0.737381	-0.149716	-0.617567	-0.229052
62302		9.526355	0.563206	1.900036	0.008602	0.025574	-0.006040	-0.712402	0.190430	-0.558350	0.737611	-0.149501	-0.617359	-0.229013
62303		9.517448	0.559023	1.905124	0.011784	0.021387	-0.004961	-0.712891	0.186035	-0.558838	0.737810	-0.149321	-0.617184	-0.228963
62304		9.528624	0.623367	1.935668	0.008723	0.012819	-0.005899	-0.715088	0.193115	-0.566895	0.737932	-0.149161	-0.617093	-0.228920
62305		9.596336	0.586051	1.917263	0.004741	0.013739	-0.006423	-0.712402	0.191162	-0.554688	0.738079	-0.149040	-0.616959	-0.228883
62306		9.569520	0.574063	1.907135	0.003187	0.017856	-0.004567	-0.713379	0.190186	-0.562256	0.738212	-0.148981	-0.616796	-0.228931
62307		9.571089	0.572904	1.902684	0.007911	0.020904	-0.006605	-0.708984	0.183105	-0.561768	0.738400	-0.148817	-0.616617	-0.228916
62308		9.536186	0.571550	1.898173	0.011058	0.014693	-0.007918	-0.706543	0.178467	-0.564453	0.738550	-0.148593	-0.616516	-0.228850
62309		9.514716	0.595506	1.973729	0.011498	0.016263	-0.003073	-0.705078	0.188477	-0.562500	0.738744	-0.148362	-0.616394	-0.228701
62310		9.546948	0.621060	1.925715	0.002390	0.010114	-0.002681	-0.705078	0.183838	-0.565430	0.738867	-0.148306	-0.616278	-0.228653
62311		9.601863	0.584042	1.902480	-0.000139	0.008303	-0.003947	-0.708252	0.190430	-0.568604	0.738979	-0.148231	-0.616182	-0.228599
62312		9.538700	0.573136	1.868935	0.004558	0.006928	-0.009775	-0.713623	0.176758	-0.564453	0.739076	-0.148097	-0.616110	-0.228567
62313		9.527589	0.588379	1.885008	0.006515	0.009216	-0.009118	-0.701904	0.183105	-0.560791	0.739161	-0.147886	-0.616072	-0.228531
62314		9.557634	0.628949	1.916603	0.002055	0.014009	-0.008584	-0.712158	0.186523	-0.568115	0.739292	-0.147759	-0.615940	-0.228544
62315		9.565118	0.619415	1.936187	0.001890	0.011640	-0.008139	-0.711670	0.181396	-0.558838	0.739408	-0.147635	-0.615833	-0.228539
62316		9.557377	0.583020	1.927449	-0.000984	0.012267	-0.004332	-0.723633	0.191406	-0.568604	0.739491	-0.147580	-0.615731	-0.228581
62317		9.541039	0.588422	1.934917	-0.000267	0.009729	-0.007960	-0.715332	0.190674	-0.569580	0.739555	-0.147513	-0.615649	-0.228636
62318		9.561409	0.595159	1.941049	-0.005793	0.003119	-0.009492	-0.700928	0.185303	-0.563721	0.739580	-0.147497	-0.615598	-0.228705
62319		9.592315	0.592594	1.887867	-0.004907	-0.003601	-0.009502	-0.707031	0.191895	-0.567627	0.739569	-0.147486	-0.615600	-0.228742
62320		9.549022	0.553679	1.897519	-0.002586	-0.003486	-0.004668	-0.711426	0.175537	-0.567383	0.739577	-0.147511	-0.615591	-0.228723
62321		9.532871	0.588693	1.934950	0.003345	0.000280	-0.002082	-0.700928	0.181885	-0.563965	0.739618	-0.147399	-0.615609	-0.228612
62322		9.567686	0.559684	1.953843	0.005548	-0.002953	-0.004048	-0.708008	0.187744	-0.563965	0.739648	-0.147311	-0.615633	-0.228509
62323		9.551052	0.600210	1.925097	0.010448	-0.006478	-0.003857	-0.709473	0.176025	-0.571289	0.739640	-0.147224	-0.615705	-0.228396
62324		9.560826	0.638166	1.903765	0.012341	-0.010021	-0.001141	-0.705811	0.182373	-0.562012	0.739644	-0.147054	-0.615830	-0.228156
62325		9.553601	0.631345	1.923619	0.008109	-0.001502	-0.001779	-0.711182	0.186768	-0.570801	0.739674	-0.146971	-0.615855	-0.228046
62326		9.521061	0.591899	1.968421	0.011389	-0.002587	-0.003138	-0.706055	0.178467	-0.572266	0.739723	-0.146835	-0.615890	-0.227881
62327		9.550288	0.572057	1.961512	0.016788	-0.001094	-0.001557	-0.709717	0.187500	-0.571289	0.739816	-0.146606	-0.615929	-0.227617
62328		9.592230	0.663327	1.946308	0.012660	0.006037	-0.003314	-0.711914	0.181396	-0.569092	0.739939	-0.146435	-0.615883	-0.227453
62329		9.564261	0.715981	1.935169	-0.004781	0.013111	-0.001588	-0.710693	0.198730	-0.566406	0.740070	-0.146401	-0.615740	-0.227435
62330		9.519328	0.612983	1.956894	-0.012436	0.008703	-0.003268	-0.711182	0.183350	-0.566895	0.740143	-0.146536	-0.615582	-0.227538
62331		9.510478	0.528864	1.961496	0.000737	0.008431	-0.003905	-0.726074	0.175293	-0.571533	0.740231	-0.146467	-0.615502	-0.227515
62332		9.548129	0.575974	1.970854	0.007898	0.007816	-0.003614	-0.704590	0.184814	-0.574707	0.740302	-0.146280	-0.615494	-0.227426
62333		9.564139	0.651494	1.964832	0.007790	0.007128	0.000232	-0.715088	0.182129	-0.564941	0.740457	-0.146152	-0.615409	-0.227234
62334		9.582385	0.629319	1.947471	0.003603	0.010502	-0.002197	-0.709473	0.180420	-0.571289	0.740546	-0.146074	-0.615330	-0.227208
62335		9.528347	0.586725	1.968214	0.003420	0.003710	-0.005537	-0.715332	0.185059	-0.562256	0.740615	-0.145952	-0.615302	-0.227134
62336		9.507628	0.581018	1.985714	-0.000977	-0.001145	-0.000328	-0.711426	0.178467	-0.567139	0.740598	-0.145993	-0.615313	-0.227136
62337		9.552511	0.666489	1.982969	-0.006283	0.000755	-0.000243	-0.708008	0.185303	-0.572266	0.740616	-0.146022	-0.615291	-0.227118
62338		9.580934	0.678694	1.965636	-0.026454	-0.007286	-0.004196	-0.705566	0.185791	-0.567383	0.740560	-0.146237	-0.615262	-0.227241
62339		9.546645	0.582152	1.931810	-0.023786	-0.000683	-0.007110	-0.711182	0.176758	-0.568359	0.740537	-0.146408	-0.615185	-0.227413
62340		9.499669	0.592780	1.967780	-0.021719	-0.004252	-0.006232	-0.704590	0.183838	-0.567627	0.740478	-0.146531	-0.615179	-0.227545
62341		9.587855	0.612049	1.900909	-0.023081	-0.013888	-0.006343	-0.700195	0.179932	-0.559570	0.740360	-0.146726	-0.615227	-0.227669
62342		9.580018	0.636876	1.931473	-0.017860	-0.005821	-0.006980	-0.710693	0.176758	-0.562256	0.740288	-0.146863	-0.615227	-0.227816
62343		9.539772	0.592507	1.953386	-0.014925	-0.006854	-0.004658	-0.713867	0.168945	-0.569580	0.740203	-0.146966	-0.615269	-0.227916
62344		9.535676	0.566447	1.958065	-0.012719	-0.012164	-0.003899	-0.712158	0.183594	-0.564453	0.740106	-0.146996	-0.615379	-0.227912
62345		9.564535	0.579211	1.938285	-0.002294	-0.013532	-0.000843	-0.717773	0.186523	-0.563232	0.740014	-0.147049	-0.615495	-0.227863
62346		9.556026	0.637349	1.957263	0.001387	-0.012986	-0.002482	-0.718994	0.184082	-0.568848	0.739910	-0.147075	-0.615626	-0.227831
62347		9.539265	0.596408	1.951769	0.009091	-0.006890	0.002606	-0.710205	0.186279	-0.569336	0.739905	-0.147010	-0.615713	-0.227653
62348		9.527517	0.563875	1.956100	0.012977	-0.008806	0.002856	-0.715088	0.188965	-0.563965	0.739920	-0.146922	-0.615803	-0.227417
62349		9.544838	0.607069	1.935753	0.021166	-0.002430	0.001417	-0.711426	0.180664	-0.561035	0.739959	-0.146770	-0.615871	-0.227204
62350		9.523924	0.617625	1.958219	0.021872	0.001891	-0.002150	-0.711182	0.185059	-0.557861	0.740016	-0.146549	-0.615923	-0.227024
62351		9.558082	0.607131	1.961335	0.013241	0.000792	-0.005494	-0.708008	0.185303	-0.567383	0.740025	-0.146424	-0.615958	-0.226976
62352		9.569230	0.591408	2.012826	0.017923	0.004517	-0.004408	-0.709473	0.178955	-0.566162	0.740127	-0.146208	-0.615950	-0.226807
62353		9.500818	0.604422	1.955870	0.012537	-0.016590	0.001079	-0.710205	0.182861	-0.567139	0.740060	-0.146121	-0.616131	-0.226589
62354		9.553372	0.617697	1.952934	0.005803	-0.010247	0.000180	-0.712402	0.176025	-0.564209	0.740031	-0.146086	-0.616226	-0.226446
62355		9.605693	0.631692	1.950872	0.004292	-0.009517	-0.006609	-0.715332	0.189453	-0.558838	0.739966	-0.145992	-0.616348	-0.226388
62356		9.592891	0.620504	1.917641	-0.006218	-0.005037	-0.010267	-0.702881	0.178467	-0.568115	0.739878	-0.146048	-0.616385	-0.226539
62357		9.523492	0.569818	1.892152	-0.000635	0.000872	-0.006739	-0.711670	0.183350	-0.565674	0.739929	-0.145960	-0.616362	-0.226490
62358		9.502301	0.608803	1.969809	0.001082	-0.000242	-0.000788	-0.716553	0.181885	-0.564453	0.739958	-0.145943	-0.616356	-0.226426
62359		9.542507	0.574070	1.970380	0.001643	-0.005155	-0.003970	-0.719971	0.193848	-0.560791	0.739922	-0.145910	-0.616418	-0.226395
62360		9.571735	0.556011	1.940554	0.004968	-0.008992	-0.005724	-0.714355	0.187500	-0.565674	0.739834	-0.145922	-0.616512	-0.226418
62361		9.545008	0.592206	1.941580	0.010566	-0.005797	-0.007715	-0.714355	0.181396	-0.570801	0.739812	-0.145802	-0.616591	-0.226353
62362		9.554395	0.630640	1.921195	0.008016	-0.002503	-0.002067	-0.710205	0.184814	-0.564941	0.739848	-0.145687	-0.616629	-0.226206
62363		9.537835	0.587084	1.961097	0.010888	-0.002818	-0.001754	-0.703125	0.182617	-0.566895	0.739874	-0.145592	-0.616667	-0.226078
62364		9.530991	0.564283	1.975795	0.016603	-0.005166	0.000599	-0.709961	0.183838	-0.563721	0.739925	-0.145451	-0.616725	-0.225845
62365		9.530416	0.582918	1.958946	0.016380	0.001763	-0.002635	-0.711182	0.181152	-0.569824	0.739988	-0.145289	-0.616741	-0.225698
62366		9.555814	0.614133	1.978447	0.006322	0.000642	-0.005622	-0.713867	0.185547	-0.568359	0.740037	-0.145161	-0.616745	-0.225607
62367		9.576367	0.607798	1.933687	0.004503	-0.001005	-0.004994	-0.710205	0.177246	-0.566650	0.740060	-0.145089	-0.616755	-0.225552
62368		9.514792	0.589994	1.985038	0.004481	-0.003048	-0.007390	-0.716309	0.181885	-0.572510	0.740061	-0.144972	-0.616802	-0.225496
62369		9.573645	0.615745	1.919050	0.007131	-0.007093	-0.005903	-0.712891	0.184326	-0.558350	0.740049	-0.144851	-0.616885	-0.225384
62370		9.575883	0.630546	1.914949	0.004761	0.002367	-0.005167	-0.708252	0.179199	-0.557373	0.740058	-0.144807	-0.616879	-0.225402
62371		9.549653	0.632717	1.929204	-0.002136	0.003949	-0.007010	-0.708984	0.184570	-0.561768	0.740068	-0.144787	-0.616845	-0.225475
62372		9.554802	0.615427	1.883704	0.007643	-0.005117	-0.014157	-0.702148	0.181641	-0.556396	0.740022	-0.144656	-0.616917	-0.225511
62373		9.539250	0.621369	1.909715	0.009644	0.000939	-0.012841	-0.714355	0.175537	-0.559082	0.740025	-0.144509	-0.616935	-0.225545
62374		9.538876	0.639047	1.937264	0.006361	0.002024	-0.011479	-0.704102	0.187012	-0.566650	0.740016	-0.144355	-0.616971	-0.225576
62375		9.563694	0.672823	1.935813	-0.003767	0.006379	-0.008562	-0.707764	0.182373	-0.564453	0.740085	-0.144340	-0.616867	-0.225642
62376		9.558671	0.649389	1.922247	-0.014534	0.003333	-0.006580	-0.714111	0.183838	-0.563721	0.740098	-0.144432	-0.616782	-0.225773
62377		9.546203	0.619303	1.907500	-0.018935	-0.001501	-0.006487	-0.718018	0.181641	-0.560303	0.740048	-0.144588	-0.616742	-0.225949
62378		9.531168	0.591926	1.901651	-0.014833	0.002708	-0.006020	-0.706787	0.177490	-0.568115	0.740017	-0.144696	-0.616693	-0.226113
62379		9.546904	0.586995	1.919745	-0.008670	0.005755	-0.003282	-0.713379	0.189209	-0.565186	0.740086	-0.144710	-0.616602	-0.226128
62380		9.537278	0.630834	1.916451	-0.012645	0.010776	-0.004146	-0.711670	0.180420	-0.560059	0.740154	-0.144813	-0.616445	-0.226265
62381		9.583781	0.632273	1.954908	-0.013602	0.020249	-0.003752	-0.710693	0.187988	-0.567627	0.740280	-0.144871	-0.616225	-0.226417
62382		9.584680	0.661444	1.961301	-0.024873	0.012509	-0.004174	-0.706543	0.187744	-0.567627	0.740352	-0.145068	-0.616013	-0.226632
62383		9.577027	0.690557	1.879995	-0.041866	0.016000	-0.004504	-0.708740	0.183105	-0.562256	0.740428	-0.145409	-0.615713	-0.226982
62384		9.521457	0.601103	1.895956	-0.045859	0.016910	-0.010167	-0.707031	0.182861	-0.567871	0.740461	-0.145729	-0.615432	-0.227428
62385		9.518356	0.590354	1.880768	-0.047118	0.004172	-0.014806	-0.713379	0.183105	-0.564209	0.740405	-0.146039	-0.615263	-0.227869
62386		9.640473	0.595548	1.863595	-0.041733	0.001560	-0.012896	-0.707275	0.179688	-0.559082	0.740316	-0.146329	-0.615151	-0.228272
62387		9.599919	0.644392	1.912778	-0.024137	0.003756	-0.009879	-0.704834	0.184082	-0.558350	0.740282	-0.146470	-0.615068	-0.228519
62388		9.574388	0.612224	1.939544	-0.026466	0.016940	-0.008438	-0.703369	0.183105	-0.562012	0.740350	-0.146633	-0.614837	-0.228812
62389		9.493095	0.602925	1.965236	-0.026361	0.011431	-0.009237	-0.713867	0.186279	-0.566895	0.740390	-0.146787	-0.614654	-0.229076
62390		9.483624	0.554973	1.936362	-0.010838	-0.002305	-0.010317	-0.711914	0.178955	-0.556152	0.740342	-0.146826	-0.614654	-0.229208
62391		9.543000	0.577635	1.914441	0.001712	-0.007886	-0.004385	-0.708008	0.184326	-0.565430	0.740260	-0.146799	-0.614764	-0.229195
62392		9.587981	0.634509	1.878658	0.004774	0.004440	-0.002744	-0.715332	0.178955	-0.565186	0.740324	-0.146727	-0.614725	-0.229138
62393		9.585529	0.620338	1.906037	0.007407	0.015495	-0.001831	-0.710205	0.186523	-0.568115	0.740465	-0.146572	-0.614622	-0.229058
62394		9.532081	0.637849	1.942860	0.009936	0.021430	-0.000879	-0.705566	0.180908	-0.566895	0.740675	-0.146425	-0.614433	-0.228979
62395		9.518013	0.637895	1.965813	0.006116	0.024679	-0.001854	-0.713135	0.182617	-0.572266	0.740907	-0.146271	-0.614213	-0.228921
62396		9.540337	0.638781	1.989151	0.001754	0.025972	0.000288	-0.712646	0.181885	-0.572754	0.741145	-0.146162	-0.613969	-0.228872
62397		9.536231	0.655260	2.031152	-0.012478	0.019888	0.000615	-0.702881	0.180420	-0.570557	0.741312	-0.146200	-0.613743	-0.228915
62398		9.569851	0.632034	1.966989	-0.015477	0.008931	-0.001747	-0.703857	0.185791	-0.563721	0.741395	-0.146282	-0.613600	-0.228977
62399		9.572399	0.613057	1.955326	-0.014156	0.014449	-0.001290	-0.712402	0.184326	-0.568848	0.741494	-0.146392	-0.613409	-0.229098
62400		9.536797	0.638932	1.984135	-0.015967	0.021357	-0.002320	-0.703125	0.188232	-0.571777	0.741639	-0.146460	-0.613168	-0.229230
62401		9.525490	0.633465	2.019958	-0.013784	0.022912	-0.001488	-0.709717	0.181396	-0.567627	0.741829	-0.146529	-0.612882	-0.229336
62402		9.530094	0.622270	2.072541	-0.013702	0.019804	-0.000887	-0.704590	0.186035	-0.572510	0.741969	-0.146579	-0.612667	-0.229427
62403		9.554062	0.583608	1.966467	-0.016564	-0.001447	-0.001738	-0.709717	0.179932	-0.562500	0.741963	-0.146725	-0.612611	-0.229501
62404		9.568466	0.611499	1.974969	-0.010129	0.015259	-0.002474	-0.709229	0.187500	-0.577393	0.742051	-0.146748	-0.612465	-0.229589
62405		9.545857	0.636652	2.008062	-0.010490	0.021835	-0.002837	-0.699707	0.187012	-0.563477	0.742237	-0.146752	-0.612214	-0.229657
62406		9.493158	0.619384	2.055891	-0.017972	0.020046	-0.000875	-0.708496	0.182861	-0.581055	0.742371	-0.146891	-0.611957	-0.229821
62407		9.539287	0.609537	2.025304	-0.019307	0.023439	-0.003981	-0.700195	0.184326	-0.569824	0.742562	-0.146925	-0.611676	-0.229930
62408		9.570809	0.646645	2.029787	-0.024163	0.022088	-0.001860	-0.711182	0.186035	-0.572021	0.742715	-0.147071	-0.611386	-0.230110
62409		9.560698	0.673259	2.025837	-0.033215	0.030904	-0.002084	-0.703857	0.182617	-0.576416	0.742900	-0.147270	-0.611009	-0.230388
62410		9.464379	0.614910	2.085294	-0.025561	0.026534	-0.007974	-0.707764	0.190674	-0.574707	0.743079	-0.147334	-0.610693	-0.230606
62411		9.488975	0.618084	2.056808	-0.006353	0.026114	-0.012567	-0.698486	0.181885	-0.569580	0.743257	-0.147236	-0.610437	-0.230774
62412		9.481386	0.641913	2.087133	0.001405	0.028826	-0.010941	-0.699219	0.188721	-0.572998	0.743478	-0.147042	-0.610187	-0.230849
62413		9.508338	0.653466	2.119762	0.010568	0.018576	-0.006705	-0.709717	0.190186	-0.569824	0.743654	-0.146856	-0.610029	-0.230818
62414		9.538174	0.666069	2.099258	0.015603	0.024294	-0.006844	-0.704102	0.182617	-0.577881	0.743846	-0.146621	-0.609859	-0.230798
62415		9.506258	0.642299	2.124380	0.013859	0.023987	-0.006959	-0.707031	0.183105	-0.575195	0.744072	-0.146339	-0.609683	-0.230712
62416		9.481952	0.626498	2.128431	0.014265	0.025599	-0.007231	-0.704590	0.183838	-0.569092	0.744293	-0.146060	-0.609504	-0.230652
62417		9.510624	0.591874	2.122133	0.012523	0.022868	-0.003622	-0.705566	0.183350	-0.572510	0.744480	-0.145860	-0.609340	-0.230605
62418		9.522411	0.590745	2.153153	0.013639	0.020253	-0.005808	-0.705566	0.184570	-0.575684	0.744651	-0.145629	-0.609208	-0.230549
62419		9.492535	0.599681	2.135747	0.009103	0.015128	-0.008067	-0.699463	0.181641	-0.578613	0.744777	-0.145438	-0.609106	-0.230532
62420		9.493846	0.616991	2.114324	0.006362	0.016056	-0.007120	-0.701904	0.186523	-0.580078	0.744930	-0.145255	-0.608976	-0.230496
62421		9.527356	0.606800	2.121060	-0.003188	0.011328	-0.007155	-0.698242	0.186279	-0.580322	0.745025	-0.145201	-0.608853	-0.230548
62422		9.519258	0.601933	2.122318	-0.011557	0.002928	-0.006368	-0.702881	0.191406	-0.580078	0.745051	-0.145256	-0.608775	-0.230637
62423		9.493787	0.592665	2.064762	-0.017938	-0.001470	-0.006621	-0.706787	0.189209	-0.577881	0.745017	-0.145410	-0.608717	-0.230802
62424		9.545309	0.606614	2.067044	-0.023020	0.006446	-0.006319	-0.699951	0.189209	-0.566895	0.745020	-0.145580	-0.608590	-0.231019
62425		9.536839	0.616635	2.073313	-0.030222	-0.000842	-0.007038	-0.692139	0.181641	-0.576172	0.744930	-0.145867	-0.608512	-0.231332
62426		9.540576	0.659410	2.072419	-0.028629	-0.004926	-0.008897	-0.699707	0.189941	-0.575195	0.744859	-0.146067	-0.608470	-0.231545
62427		9.476889	0.611271	2.098291	-0.032104	-0.001854	-0.003313	-0.694824	0.190918	-0.575684	0.744798	-0.146379	-0.608376	-0.231793
62428		9.487884	0.594203	2.127008	-0.035186	-0.007311	-0.004914	-0.697754	0.193115	-0.578613	0.744696	-0.146729	-0.608311	-0.232067
62429		9.520181	0.592068	2.051002	-0.030431	-0.009036	-0.004582	-0.697510	0.184326	-0.574219	0.744595	-0.147042	-0.608273	-0.232296
62430		9.512294	0.599301	2.076203	-0.018221	-0.008998	-0.001044	-0.703125	0.187988	-0.575439	0.744519	-0.147222	-0.608296	-0.232364
62431		9.502214	0.591265	2.126223	-0.007808	-0.008541	0.000373	-0.697510	0.185059	-0.573486	0.744462	-0.147328	-0.608343	-0.232357
62432		9.500068	0.595543	2.111107	0.003434	-0.011661	0.001153	-0.703125	0.184570	-0.572266	0.744411	-0.147333	-0.608449	-0.232238
62433		9.525447	0.627026	2.107903	0.006755	-0.002501	0.001612	-0.700928	0.189453	-0.568359	0.744424	-0.147280	-0.608494	-0.232112
62434		9.537942	0.643727	2.096466	0.008802	0.004887	0.002279	-0.703125	0.184814	-0.576660	0.744487	-0.147235	-0.608462	-0.232023
62435		9.508630	0.648994	2.098510	0.002024	0.010175	-0.004056	-0.710938	0.183838	-0.576172	0.744584	-0.147137	-0.608379	-0.231991
62436		9.497658	0.646726	2.109239	0.001908	0.009532	-0.005343	-0.695801	0.180420	-0.572754	0.744656	-0.147022	-0.608326	-0.231973
62437		9.470836	0.644550	2.167336	0.001349	0.003539	-0.007057	-0.697266	0.182861	-0.574951	0.744696	-0.146916	-0.608311	-0.231951
62438		9.516042	0.623542	2.135448	-0.001202	0.002012	-0.004228	-0.700439	0.183838	-0.583740	0.744730	-0.146870	-0.608289	-0.231928
62439		9.518609	0.622041	2.127042	-0.002665	0.002688	-0.005899	-0.702148	0.184570	-0.575684	0.744783	-0.146804	-0.608251	-0.231900
62440		9.523769	0.616492	2.131672	0.000216	0.004478	-0.008280	-0.701904	0.192627	-0.569336	0.744817	-0.146714	-0.608224	-0.231920
62441		9.476609	0.615428	2.119119	0.000569	0.004384	-0.006830	-0.697021	0.184570	-0.573486	0.744827	-0.146702	-0.608181	-0.232005
62442		9.473908	0.599675	2.167081	-0.001205	0.006455	-0.005537	-0.699219	0.190918	-0.585205	0.744884	-0.146651	-0.608118	-0.232023
62443		9.520575	0.607272	2.138373	-0.005904	0.003005	-0.002559	-0.697510	0.181641	-0.585449	0.744941	-0.146686	-0.608036	-0.232031
62444		9.544715	0.594092	2.128160	-0.012170	-0.006875	-0.003643	-0.704102	0.184570	-0.568848	0.744920	-0.146740	-0.608053	-0.232019
62445		9.518894	0.596976	2.117865	-0.012208	-0.008180	-0.008059	-0.701660	0.189941	-0.574463	0.744808	-0.146823	-0.608123	-0.232144
62446		9.502687	0.619583	2.105426	-0.012617	-0.003341	-0.006688	-0.707764	0.186279	-0.574707	0.744756	-0.146925	-0.608113	-0.232272
62447		9.500602	0.607043	2.108156	-0.009222	-0.001715	-0.004327	-0.696533	0.195312	-0.584229	0.744721	-0.146979	-0.608119	-0.232333
62448		9.508157	0.611569	2.130217	-0.003064	-0.001363	-0.001913	-0.703125	0.183350	-0.581055	0.744753	-0.147034	-0.608068	-0.232331
62449		9.482781	0.598535	2.114976	0.003436	-0.004781	-0.003876	-0.704346	0.184570	-0.570312	0.744751	-0.146950	-0.608126	-0.232236
62450		9.516081	0.619672	2.128776	0.002992	-0.005687	-0.005613	-0.698486	0.183105	-0.578857	0.744700	-0.146895	-0.608211	-0.232215
62451		9.514228	0.609584	2.108945	0.003223	-0.004405	-0.003038	-0.700684	0.182373	-0.566650	0.744706	-0.146827	-0.608256	-0.232121
62452		9.506974	0.604456	2.106526	0.003566	-0.010604	-0.003696	-0.692139	0.181885	-0.580566	0.744621	-0.146796	-0.608386	-0.232072
62453		9.501795	0.610852	2.122557	0.002449	-0.005578	-0.005223	-0.699219	0.186768	-0.576172	0.744630	-0.146714	-0.608429	-0.231981
62454		9.504691	0.607631	2.134070	0.003414	-0.004426	-0.004879	-0.703857	0.191162	-0.578125	0.744619	-0.146661	-0.608472	-0.231938
62455		9.522839	0.616505	2.146528	0.003821	-0.007252	-0.003839	-0.702637	0.193115	-0.579834	0.744584	-0.146641	-0.608535	-0.231899
62456		9.525857	0.616983	2.114592	-0.001878	-0.002610	-0.004818	-0.708496	0.189453	-0.559814	0.744577	-0.146662	-0.608528	-0.231924
62457		9.492334	0.613988	2.104079	-0.002619	-0.008588	-0.004695	-0.698486	0.191650	-0.570312	0.744453	-0.146733	-0.608629	-0.232014
62458		9.523576	0.621626	2.120815	-0.004918	-0.004335	-0.005728	-0.704102	0.189697	-0.577881	0.744404	-0.146799	-0.608639	-0.232100
62459		9.505807	0.615254	2.105928	-0.007346	-0.004815	-0.007743	-0.703857	0.186768	-0.574951	0.744357	-0.146838	-0.608657	-0.232179
62460		9.541808	0.631692	2.132539	-0.011663	-0.006297	-0.006030	-0.697998	0.191406	-0.578369	0.744291	-0.146921	-0.608686	-0.232264
62461		9.580697	0.655047	2.041866	-0.017009	-0.001752	-0.005557	-0.692383	0.191895	-0.572754	0.744267	-0.147073	-0.608624	-0.232408
62462		9.502754	0.637804	2.096923	-0.021371	-0.002524	-0.005848	-0.699951	0.185547	-0.569092	0.744222	-0.147284	-0.608551	-0.232610
62463		9.483651	0.599665	2.100606	-0.020862	-0.012485	-0.009052	-0.696777	0.188721	-0.570312	0.744075	-0.147450	-0.608621	-0.232788
62464		9.485661	0.630109	2.100349	-0.021484	-0.015400	-0.011365	-0.705811	0.186035	-0.566895	0.743906	-0.147634	-0.608702	-0.233002
62465		9.508346	0.663599	2.126578	-0.027947	-0.014379	-0.010807	-0.703613	0.183594	-0.570801	0.743713	-0.147857	-0.608788	-0.233254
62466		9.571957	0.607145	2.072492	-0.029297	-0.029811	-0.008996	-0.698242	0.193848	-0.571045	0.743424	-0.148127	-0.609004	-0.233436
62467		9.555214	0.604581	2.009282	-0.022478	-0.022396	-0.009707	-0.705811	0.184082	-0.572021	0.743205	-0.148379	-0.609128	-0.233653
62468		9.507304	0.585578	2.037388	-0.010446	-0.022229	-0.009480	-0.707275	0.188965	-0.569336	0.743012	-0.148441	-0.609330	-0.233701
62469		9.518403	0.586639	2.068618	-0.001724	-0.010465	-0.007077	-0.700195	0.184570	-0.567871	0.742918	-0.148444	-0.609434	-0.233726
62470		9.533225	0.616198	2.073759	0.001581	-0.005729	-0.005301	-0.707764	0.182861	-0.569336	0.742885	-0.148395	-0.609500	-0.233690
62471		9.515439	0.609913	2.058791	0.005248	-0.003104	-0.004495	-0.704834	0.185791	-0.571045	0.742874	-0.148289	-0.609570	-0.233607
62472		9.524592	0.583355	2.068099	0.010074	-0.005873	-0.001176	-0.699463	0.191895	-0.571533	0.742868	-0.148193	-0.609655	-0.233467
62473		9.520820	0.620800	2.065250	0.008793	-0.009318	-0.004389	-0.711426	0.195312	-0.576172	0.742827	-0.148141	-0.609742	-0.233403
62474		9.546630	0.635979	2.077926	0.002543	-0.004576	-0.004955	-0.713379	0.192627	-0.577637	0.742799	-0.148134	-0.609776	-0.233410
62475		9.526153	0.629813	2.093860	0.002775	-0.003290	-0.002376	-0.703369	0.186035	-0.567139	0.742791	-0.148117	-0.609804	-0.233370
62476		9.537952	0.602346	2.072765	0.000488	-0.003492	-0.002098	-0.704102	0.192383	-0.573242	0.742775	-0.148108	-0.609840	-0.233333
62477		9.526942	0.617256	2.065073	-0.001822	0.000763	-0.003116	-0.708496	0.187012	-0.571777	0.742792	-0.148133	-0.609805	-0.233356
62478		9.524506	0.620700	2.072468	-0.006294	-0.014977	-0.006222	-0.699951	0.187988	-0.563721	0.742666	-0.148182	-0.609937	-0.233378
62479		9.548407	0.626574	2.043558	-0.004547	-0.010569	-0.006404	-0.699463	0.184570	-0.574463	0.742569	-0.148230	-0.610024	-0.233430
62480		9.527617	0.636336	2.063764	-0.002839	-0.011977	-0.004578	-0.709473	0.187012	-0.565918	0.742505	-0.148238	-0.610116	-0.233388
62481		9.512955	0.624604	2.060213	-0.008228	-0.009157	-0.002369	-0.708252	0.189453	-0.575928	0.742417	-0.148326	-0.610191	-0.233417
62482		9.518961	0.621681	2.017381	-0.009098	-0.017516	-0.001838	-0.707275	0.186768	-0.571777	0.742291	-0.148451	-0.610313	-0.233417
62483		9.508809	0.633951	2.027920	0.000279	-0.015420	-0.000379	-0.704590	0.184570	-0.565186	0.742199	-0.148482	-0.610453	-0.233327
62484		9.501944	0.628213	2.023905	0.002600	-0.013499	-0.002373	-0.709473	0.193359	-0.570801	0.742110	-0.148469	-0.610595	-0.233246
62485		9.510937	0.616987	2.037118	0.003589	-0.012701	-0.001027	-0.707275	0.190430	-0.580322	0.742030	-0.148502	-0.610705	-0.233192
62486		9.554765	0.643163	2.019134	0.006986	-0.008976	-0.001387	-0.710938	0.192627	-0.568115	0.742016	-0.148456	-0.610779	-0.233071
62487		9.556650	0.670469	2.041729	0.007967	-0.006153	0.002377	-0.704102	0.187988	-0.570801	0.741997	-0.148452	-0.610843	-0.232966
62488		9.515894	0.646201	2.004294	0.005943	0.004858	0.002937	-0.703857	0.184326	-0.576172	0.742083	-0.148411	-0.610793	-0.232851
62489		9.473108	0.603040	2.036666	0.010617	0.006319	-0.002470	-0.705078	0.189941	-0.570801	0.742191	-0.148248	-0.610754	-0.232712
62490		9.464569	0.612353	2.065170	0.017092	0.007373	-0.005765	-0.701904	0.195068	-0.573486	0.742286	-0.148044	-0.610726	-0.232613
62491		9.545564	0.668337	2.075074	0.007017	0.000944	-0.003687	-0.704102	0.186768	-0.570068	0.742323	-0.148004	-0.610697	-0.232594
62492		9.595544	0.656050	2.052225	-0.000387	0.004551	-0.002746	-0.708008	0.191895	-0.565674	0.742375	-0.147976	-0.610647	-0.232579
62493		9.543492	0.642854	2.052829	-0.002373	0.009075	-0.003314	-0.708008	0.188477	-0.572754	0.742433	-0.147986	-0.610551	-0.232641
62494		9.481113	0.624378	2.084186	-0.003415	0.008989	-0.006661	-0.704590	0.182861	-0.575439	0.742499	-0.147947	-0.610458	-0.232699
62495		9.479239	0.596472	2.083430	-0.001705	0.007582	-0.004836	-0.703857	0.189209	-0.571045	0.742580	-0.147873	-0.610385	-0.232678
62496		9.518067	0.596445	2.075926	0.000788	0.005330	-0.003243	-0.700684	0.179688	-0.570068	0.742636	-0.147844	-0.610324	-0.232678
62497		9.576934	0.621083	2.034670	-0.004715	-0.000692	-0.001729	-0.707520	0.186768	-0.566895	0.742654	-0.147836	-0.610323	-0.232628
62498		9.543714	0.599517	2.042377	-0.004533	0.007489	-0.004163	-0.706787	0.177490	-0.569824	0.742700	-0.147828	-0.610251	-0.232674
62499		9.511449	0.609528	2.032379	-0.002639	0.010163	-0.004475	-0.710693	0.182861	-0.572998	0.742789	-0.147726	-0.610182	-0.232637
62500		9.480625	0.644430	2.068969	-0.004267	0.010493	-0.003299	-0.700684	0.188477	-0.571777	0.742875	-0.147676	-0.610090	-0.232634
62501		9.506899	0.629117	2.052201	-0.005200	0.008975	-0.002643	-0.705322	0.192871	-0.566650	0.742954	-0.147695	-0.609973	-0.232675
62502		9.528014	0.614462	2.096396	-0.004210	0.005677	-0.001002	-0.702637	0.187744	-0.569336	0.742989	-0.147760	-0.609892	-0.232734
62503		9.524968	0.621002	2.062756	-0.007997	0.000325	-0.000380	-0.707764	0.189209	-0.573975	0.742995	-0.147843	-0.609855	-0.232761
62504		9.524740	0.623191	2.041706	-0.004110	0.004654	-0.003132	-0.701904	0.190430	-0.569824	0.743036	-0.147853	-0.609794	-0.232787
62505		9.526456	0.634890	2.061966	-0.002343	0.008709	-0.002312	-0.703369	0.189941	-0.565430	0.743109	-0.147861	-0.609689	-0.232821
62506		9.525969	0.633249	2.086110	0.002193	0.011496	-0.001451	-0.709961	0.185547	-0.573486	0.743202	-0.147827	-0.609582	-0.232826
62507		9.499241	0.635722	2.079862	0.000754	0.007708	-0.001822	-0.701660	0.184570	-0.570557	0.743277	-0.147765	-0.609523	-0.232782
62508		9.511181	0.648862	2.113949	0.001891	0.010869	-0.000900	-0.703125	0.181152	-0.574707	0.743386	-0.147697	-0.609425	-0.232730
62509		9.557738	0.658501	2.062678	-0.010926	-0.006535	-0.003129	-0.706787	0.189941	-0.574463	0.743345	-0.147751	-0.609464	-0.232727
62510		9.527493	0.636246	2.038260	-0.014983	0.001497	-0.004555	-0.697754	0.190186	-0.573242	0.743336	-0.147865	-0.609401	-0.232849
62511		9.501187	0.636761	2.052039	-0.010195	0.001527	-0.005952	-0.704102	0.188721	-0.576172	0.743342	-0.147936	-0.609336	-0.232953
62512		9.496840	0.608806	2.081341	-0.007292	0.008742	-0.004206	-0.697266	0.188232	-0.574951	0.743413	-0.147951	-0.609224	-0.233012
62513		9.508665	0.624389	2.093835	-0.003503	0.009996	-0.004529	-0.705566	0.181641	-0.571533	0.743506	-0.147930	-0.609101	-0.233048
62514		9.544645	0.626911	2.096033	0.000072	0.007530	-0.003717	-0.708252	0.190674	-0.578125	0.743578	-0.147838	-0.609053	-0.233003
62515		9.523860	0.673699	2.037238	-0.009249	0.012895	-0.003775	-0.705811	0.190918	-0.574707	0.743672	-0.147868	-0.608897	-0.233088
62516		9.504087	0.633250	2.066761	-0.007857	0.009203	-0.004817	-0.699219	0.190674	-0.575684	0.743733	-0.147897	-0.608782	-0.233179
62517		9.507724	0.595704	2.091978	-0.004220	0.012193	-0.005009	-0.708008	0.182129	-0.578125	0.743834	-0.147885	-0.608636	-0.233245
62518		9.506323	0.612462	2.100670	-0.000557	0.010730	-0.003906	-0.702393	0.184082	-0.582764	0.743936	-0.147781	-0.608554	-0.233199
62519		9.518116	0.627907	2.113245	-0.002010	0.008964	-0.001861	-0.708008	0.194092	-0.573975	0.744045	-0.147724	-0.608455	-0.233146
62520		9.520564	0.621640	2.149053	-0.007219	0.001901	-0.004338	-0.700439	0.180420	-0.571533	0.744041	-0.147791	-0.608409	-0.233239
62521		9.492201	0.614877	2.100631	-0.007386	0.001561	-0.001496	-0.702148	0.194336	-0.572754	0.744064	-0.147802	-0.608387	-0.233215
62522		9.487393	0.604079	2.112851	-0.000959	-0.001159	-0.000348	-0.707520	0.190430	-0.573242	0.744064	-0.147859	-0.608369	-0.233224
62523		9.509428	0.575131	2.128156	0.000878	0.005914	0.003189	-0.703369	0.184326	-0.576416	0.744131	-0.147872	-0.608306	-0.233167
62524		9.552663	0.602738	2.091752	0.004988	-0.002412	0.000481	-0.706543	0.187256	-0.572754	0.744155	-0.147809	-0.608342	-0.233036
62525		9.525707	0.619002	2.110862	0.003475	0.003064	-0.003481	-0.697754	0.195801	-0.580566	0.744189	-0.147736	-0.608334	-0.232994
62526		9.481433	0.612100	2.110821	0.007312	0.003605	-0.001798	-0.702393	0.189941	-0.583008	0.744259	-0.147694	-0.608274	-0.232953
62527		9.504666	0.613489	2.128992	0.005154	0.002020	-0.002653	-0.701416	0.189209	-0.579102	0.744316	-0.147625	-0.608248	-0.232884
62528		9.523178	0.607935	2.115593	0.002701	0.001475	0.000464	-0.708740	0.184326	-0.572266	0.744367	-0.147605	-0.608219	-0.232810
62529		9.501733	0.620970	2.095052	0.005115	0.000304	-0.000941	-0.707031	0.185059	-0.570557	0.744388	-0.147524	-0.608251	-0.232708
62530		9.525014	0.621820	2.113160	0.001741	0.004409	-0.000176	-0.701660	0.181152	-0.571777	0.744434	-0.147478	-0.608231	-0.232645
62531		9.504141	0.616874	2.109234	0.001086	0.003874	-0.001076	-0.694824	0.191650	-0.581543	0.744487	-0.147412	-0.608213	-0.232564
62532		9.498357	0.622305	2.128273	-0.001792	0.004491	-0.002412	-0.705322	0.182129	-0.579102	0.744555	-0.147423	-0.608125	-0.232569
62533		9.509187	0.608417	2.136607	-0.000984	0.003291	-0.001642	-0.702637	0.185303	-0.574707	0.744608	-0.147365	-0.608103	-0.232494
62534		9.527720	0.602524	2.123247	-0.005795	-0.000482	-0.000960	-0.705566	0.192383	-0.586426	0.744614	-0.147400	-0.608092	-0.232480
62535		9.508950	0.610895	2.115852	-0.007282	0.004633	-0.003923	-0.704834	0.187012	-0.567871	0.744664	-0.147434	-0.608004	-0.232528
62536		9.497530	0.621478	2.153277	-0.006323	0.005791	-0.003575	-0.700928	0.185059	-0.566406	0.744688	-0.147455	-0.607949	-0.232586
62537		9.503601	0.601079	2.130186	-0.006953	0.000806	-0.003182	-0.695312	0.187012	-0.576660	0.744677	-0.147492	-0.607936	-0.232627
62538		9.488471	0.591144	2.107327	-0.005577	-0.000860	-0.001802	-0.694580	0.184814	-0.574707	0.744692	-0.147533	-0.607910	-0.232624
62539		9.510377	0.626155	2.114851	-0.002994	-0.001690	-0.006049	-0.702148	0.191406	-0.579102	0.744691	-0.147509	-0.607914	-0.232630
62540		9.513167	0.620102	2.148927	-0.006535	-0.002020	-0.002151	-0.699951	0.182129	-0.572021	0.744685	-0.147577	-0.607895	-0.232659
62541		9.542118	0.615567	2.148507	-0.007360	0.001199	-0.000499	-0.698730	0.183105	-0.584717	0.744703	-0.147608	-0.607872	-0.232638
62542		9.520602	0.630375	2.106717	-0.006993	0.003181	-0.001761	-0.696777	0.192139	-0.565674	0.744766	-0.147606	-0.607812	-0.232598
62543		9.483923	0.629143	2.107203	-0.006998	0.001519	-0.005183	-0.706787	0.193115	-0.573975	0.744750	-0.147678	-0.607769	-0.232713
62544		9.479046	0.619058	2.119493	-0.008563	-0.000891	-0.004431	-0.701416	0.187500	-0.570312	0.744720	-0.147757	-0.607751	-0.232806
62545		9.497757	0.611274	2.127000	-0.008992	-0.004233	-0.002459	-0.699463	0.186768	-0.577637	0.744677	-0.147839	-0.607768	-0.232847
62546		9.520732	0.629964	2.127313	-0.009730	-0.009862	-0.003361	-0.699219	0.192627	-0.573242	0.744608	-0.147921	-0.607826	-0.232865
62547		9.514313	0.610759	2.097200	-0.007886	-0.006471	-0.005665	-0.692871	0.186279	-0.573730	0.744544	-0.148005	-0.607851	-0.232951
62548		9.525581	0.597538	2.103418	-0.005451	-0.003902	-0.006358	-0.704590	0.193848	-0.578369	0.744522	-0.148015	-0.607864	-0.232982
62549		9.485682	0.612989	2.139085	-0.002790	-0.004140	-0.004181	-0.698975	0.183594	-0.576172	0.744493	-0.148049	-0.607879	-0.233011
62550		9.477162	0.576308	2.155973	0.001351	-0.007062	-0.002759	-0.700684	0.181641	-0.580566	0.744471	-0.148005	-0.607951	-0.232922
62551		9.546798	0.603130	2.126740	0.002303	-0.001808	-0.002698	-0.701172	0.186523	-0.574463	0.744501	-0.147916	-0.607980	-0.232808
62552		9.560064	0.607328	2.086420	0.000697	-0.007597	-0.003659	-0.707764	0.195801	-0.572266	0.744459	-0.147894	-0.608055	-0.232760
62553		9.510673	0.605352	2.102608	0.001408	-0.001610	-0.003757	-0.700684	0.188965	-0.570312	0.744439	-0.147905	-0.608066	-0.232790
62554		9.478944	0.613570	2.111770	0.006824	-0.000670	-0.005249	-0.698730	0.188721	-0.580322	0.744445	-0.147818	-0.608094	-0.232753
62555		9.502998	0.599659	2.123639	0.006083	0.003549	-0.003303	-0.693604	0.189697	-0.576904	0.744513	-0.147725	-0.608060	-0.232681
62556		9.510399	0.606788	2.124613	0.007941	0.000417	-0.001607	-0.704834	0.183105	-0.572266	0.744563	-0.147655	-0.608049	-0.232593
62557		9.512480	0.621006	2.120881	0.004027	-0.005227	-0.003293	-0.707031	0.186035	-0.579102	0.744541	-0.147578	-0.608130	-0.232503
62558		9.525624	0.625338	2.081013	0.000057	-0.000305	-0.004134	-0.700684	0.184082	-0.576172	0.744555	-0.147524	-0.608142	-0.232463
62559		9.496802	0.626227	2.124288	-0.003394	-0.005395	-0.003077	-0.693604	0.187500	-0.578613	0.744531	-0.147524	-0.608185	-0.232426
