// Start Time: Unknown
// Update Rate: 40.0Hz
// Filter Profile: human (46.1)
// Firmware Version: 4.6.0
PacketCounter	SampleTimeFine	Acc_X	Acc_Y	Acc_Z	Gyr_X	Gyr_Y	Gyr_Z	Mag_X	Mag_Y	Mag_Z	Quat_q0	Quat_q1	Quat_q2	Quat_q3
61647		9.750618	0.559582	-0.746774	0.003087	-0.005732	-0.012753	-0.716309	-0.527588	-0.131836	0.575058	0.425802	-0.597307	0.362251
61648		9.744937	0.556768	-0.742630	0.010451	-0.003765	-0.015189	-0.718506	-0.529053	-0.137207	0.575043	0.426008	-0.597206	0.362199
61649		9.763400	0.579968	-0.773308	0.006886	-0.003345	-0.014766	-0.716064	-0.522217	-0.145508	0.575053	0.426178	-0.597118	0.362127
61650		9.736709	0.511130	-0.829207	0.022667	-0.001892	-0.016486	-0.723633	-0.529541	-0.139160	0.574992	0.426473	-0.596942	0.362167
61651		9.734295	0.596352	-0.792885	0.009518	0.002977	-0.019684	-0.719238	-0.526367	-0.147461	0.575047	0.426676	-0.596778	0.362111
61652		9.731484	0.589523	-0.737143	0.001419	0.005425	-0.021358	-0.711670	-0.531982	-0.142090	0.575168	0.426825	-0.596626	0.361993
61653		9.716821	0.567897	-0.798662	0.010249	-0.000290	-0.020778	-0.723633	-0.525879	-0.148193	0.575199	0.427060	-0.596476	0.361913
61654		9.743988	0.609781	-0.782254	0.005160	0.003272	-0.020517	-0.712646	-0.531006	-0.142822	0.575277	0.427243	-0.596330	0.361815
61655		9.733848	0.622380	-0.746718	0.002077	0.007578	-0.018966	-0.714111	-0.529297	-0.143066	0.575394	0.427377	-0.596177	0.361722
61656		9.724686	0.595930	-0.771415	-0.001915	0.004372	-0.017242	-0.707520	-0.519287	-0.142334	0.575504	0.427488	-0.596072	0.361591
61657		9.714032	0.591238	-0.737736	-0.013613	0.005230	-0.016613	-0.714111	-0.518311	-0.155029	0.575677	0.427506	-0.596019	0.361380
61658		9.733525	0.556140	-0.743538	-0.001492	0.008000	-0.018545	-0.711914	-0.529053	-0.149170	0.575817	0.427610	-0.595881	0.361263
61659		9.761483	0.617711	-0.702381	0.002364	0.004404	-0.017956	-0.702637	-0.531982	-0.159424	0.575902	0.427751	-0.595756	0.361167
61660		9.751330	0.557850	-0.731210	0.012068	0.005372	-0.020864	-0.708740	-0.523926	-0.146484	0.575972	0.427972	-0.595551	0.361130
61661		9.740922	0.577488	-0.758951	0.006465	0.003044	-0.019854	-0.714355	-0.525635	-0.152832	0.576034	0.428150	-0.595407	0.361058
61662		9.748822	0.582990	-0.714124	0.005277	0.004419	-0.021779	-0.709229	-0.522705	-0.147949	0.576117	0.428317	-0.595256	0.360976
61663		9.686921	0.622620	-0.700531	0.010891	0.000491	-0.022615	-0.708984	-0.519287	-0.159180	0.576145	0.428545	-0.595100	0.360918
61664		9.727974	0.626407	-0.749833	0.011706	-0.003080	-0.022172	-0.713379	-0.524170	-0.145264	0.576162	0.428770	-0.594964	0.360848
61665		9.752305	0.581291	-0.764716	0.009215	0.003096	-0.020649	-0.708008	-0.529053	-0.142578	0.576203	0.428964	-0.594807	0.360811
61666		9.745722	0.632219	-0.718349	0.007683	0.000545	-0.019738	-0.712891	-0.531494	-0.149170	0.576222	0.429166	-0.594677	0.360754
61667		9.735161	0.641285	-0.705977	0.012955	-0.001604	-0.018816	-0.709961	-0.532227	-0.145020	0.576205	0.429390	-0.594545	0.360732
61668		9.725278	0.690253	-0.753036	0.006473	-0.001219	-0.014573	-0.719971	-0.521484	-0.147705	0.576207	0.429549	-0.594451	0.360696
61669		9.744925	0.643852	-0.718829	-0.008533	0.003644	-0.011784	-0.710938	-0.533936	-0.147949	0.576305	0.429516	-0.594437	0.360601
61670		9.728532	0.624780	-0.723911	-0.000127	-0.001953	-0.009084	-0.714844	-0.526367	-0.143066	0.576326	0.429594	-0.594399	0.360538
61671		9.757838	0.662210	-0.743332	0.000662	-0.001821	-0.007833	-0.705322	-0.529541	-0.145020	0.576309	0.429655	-0.594387	0.360512
61672		9.745548	0.587666	-0.718639	0.002146	-0.000684	-0.005968	-0.710938	-0.522461	-0.141846	0.576312	0.429734	-0.594338	0.360493
61673		9.745249	0.586181	-0.739851	0.003912	0.004108	-0.009375	-0.711670	-0.530518	-0.147217	0.576323	0.429798	-0.594267	0.360518
61674		9.722049	0.606587	-0.741888	0.005913	0.000316	-0.012214	-0.715332	-0.533203	-0.150391	0.576331	0.429911	-0.594183	0.360507
61675		9.727396	0.619007	-0.725899	0.002481	-0.001304	-0.012941	-0.714111	-0.525146	-0.146729	0.576358	0.429991	-0.594130	0.360457
61676		9.716912	0.626789	-0.713492	0.000362	-0.000612	-0.013978	-0.708496	-0.522217	-0.136963	0.576382	0.430046	-0.594098	0.360405
61677		9.722045	0.636213	-0.718686	0.000634	0.002466	-0.013143	-0.703857	-0.534668	-0.147461	0.576368	0.430153	-0.594039	0.360398
61678		9.703720	0.646282	-0.727933	0.002018	0.001915	-0.010929	-0.718262	-0.527100	-0.155029	0.576430	0.430261	-0.593924	0.360358
61679		9.733168	0.687210	-0.725502	-0.000457	-0.003314	-0.007236	-0.716553	-0.521973	-0.154297	0.576464	0.430189	-0.593967	0.360320
61680		9.741916	0.620305	-0.724766	-0.008420	-0.004083	-0.004854	-0.717529	-0.518555	-0.149170	0.576521	0.430027	-0.594076	0.360240
61681		9.734880	0.660918	-0.722417	-0.001057	-0.000646	-0.003079	-0.716064	-0.521973	-0.152344	0.576501	0.429912	-0.594154	0.360282
61682		9.724963	0.682458	-0.708294	-0.006518	-0.003035	0.001910	-0.715576	-0.527344	-0.144775	0.576511	0.429725	-0.594282	0.360277
61683		9.712728	0.602611	-0.705707	-0.003859	-0.004677	0.001476	-0.708008	-0.527344	-0.150635	0.576436	0.429685	-0.594373	0.360296
61684		9.722723	0.584328	-0.700123	0.000437	-0.007768	0.000858	-0.716064	-0.530518	-0.149170	0.576404	0.429666	-0.594431	0.360273
61685		9.742416	0.643872	-0.684039	0.003196	-0.000615	0.003218	-0.715820	-0.531738	-0.145996	0.576366	0.429604	-0.594465	0.360353
61686		9.721733	0.648705	-0.680470	0.000440	-0.000662	0.004002	-0.719727	-0.515625	-0.153320	0.576311	0.429562	-0.594504	0.360426
61687		9.737704	0.563274	-0.743477	0.009591	-0.003824	0.004531	-0.716553	-0.526123	-0.160400	0.576217	0.429384	-0.594623	0.360594
61688		9.733115	0.589830	-0.735792	0.007219	-0.006782	0.001762	-0.714111	-0.523682	-0.150879	0.576251	0.429211	-0.594705	0.360609
61689		9.762438	0.624611	-0.756165	0.005969	-0.003700	0.002526	-0.712402	-0.524414	-0.148682	0.576190	0.429142	-0.594758	0.360702
61690		9.740279	0.664663	-0.713478	-0.011544	0.004741	0.007842	-0.717041	-0.523926	-0.149902	0.576241	0.428917	-0.594843	0.360749
61691		9.739409	0.513602	-0.742242	-0.010655	0.004581	0.003623	-0.711426	-0.526611	-0.150635	0.576303	0.428688	-0.594928	0.360780
61692		9.716255	0.507512	-0.682871	-0.000904	0.001312	-0.000996	-0.710205	-0.532471	-0.148193	0.576345	0.428621	-0.594928	0.360792
61693		9.739119	0.600017	-0.697059	0.006190	-0.000313	-0.005179	-0.715332	-0.525146	-0.147705	0.576348	0.428720	-0.594850	0.360799
61694		9.745899	0.571666	-0.741422	0.003221	-0.000605	-0.003789	-0.715088	-0.522949	-0.152100	0.576301	0.428716	-0.594858	0.360866
61695		9.730068	0.557807	-0.703745	0.004091	-0.000194	-0.007112	-0.718750	-0.519775	-0.148926	0.576324	0.428655	-0.594859	0.360900
61696		9.730334	0.576376	-0.702244	0.009505	-0.001789	-0.008331	-0.718262	-0.524658	-0.147461	0.576232	0.428655	-0.594875	0.361020
61697		9.726390	0.649061	-0.731299	0.003027	-0.001420	-0.004080	-0.715576	-0.523438	-0.145752	0.576161	0.428634	-0.594912	0.361098
61698		9.722431	0.584517	-0.704009	0.007382	-0.001679	-0.003256	-0.720459	-0.519043	-0.152100	0.576041	0.428683	-0.594919	0.361220
61699		9.734362	0.548589	-0.734483	0.009444	-0.002636	-0.004654	-0.710205	-0.530518	-0.154541	0.575981	0.428568	-0.594989	0.361334
61700		9.747897	0.570039	-0.716173	0.001930	-0.000925	-0.005366	-0.711670	-0.527832	-0.148438	0.576122	0.428513	-0.594947	0.361245
61701		9.755755	0.568752	-0.693733	0.006498	0.001625	-0.006141	-0.722168	-0.527588	-0.151855	0.576128	0.428573	-0.594874	0.361284
61702		9.742806	0.583290	-0.708949	0.004261	-0.001367	-0.004938	-0.714600	-0.529297	-0.157959	0.576129	0.428472	-0.594924	0.361320
61703		9.730042	0.600976	-0.703262	0.007015	-0.003880	-0.004733	-0.723633	-0.520508	-0.150879	0.576255	0.428348	-0.594930	0.361258
61704		9.742339	0.581986	-0.732143	0.009944	-0.002442	-0.004334	-0.711426	-0.525391	-0.145508	0.576143	0.428255	-0.595004	0.361423
61705		9.747573	0.588734	-0.738144	0.005627	-0.001345	-0.001828	-0.711182	-0.530273	-0.151611	0.576046	0.428343	-0.594978	0.361518
61706		9.738924	0.547964	-0.723147	0.002274	-0.000711	-0.002005	-0.715332	-0.512939	-0.154785	0.576124	0.428309	-0.594951	0.361478
61707		9.728599	0.553262	-0.710873	0.010869	-0.001761	-0.005227	-0.715820	-0.522217	-0.158691	0.576092	0.428141	-0.595004	0.361641
61708		9.713676	0.586412	-0.689640	0.002737	-0.001363	-0.005012	-0.717529	-0.526367	-0.146973	0.576244	0.427885	-0.595060	0.361609
61709		9.743932	0.556991	-0.730452	0.010270	-0.006199	-0.004207	-0.715576	-0.519043	-0.150635	0.576093	0.427985	-0.595077	0.361702
61710		9.748330	0.530676	-0.740964	0.010308	-0.004779	-0.006993	-0.717773	-0.526123	-0.148193	0.576003	0.427979	-0.595100	0.361814
61711		9.731092	0.579801	-0.705892	0.008940	-0.009923	-0.008120	-0.710449	-0.527832	-0.149414	0.575878	0.428077	-0.595139	0.361834
61712		9.722366	0.553747	-0.712924	0.010037	-0.010414	-0.006837	-0.713135	-0.531006	-0.149170	0.575823	0.428211	-0.595120	0.361795
61713		9.750189	0.527286	-0.719845	0.014351	-0.006384	-0.011335	-0.712646	-0.528564	-0.143066	0.575801	0.428390	-0.595035	0.361757
61714		9.724931	0.579736	-0.707289	0.008764	-0.008746	-0.010303	-0.718750	-0.524658	-0.154785	0.575644	0.428653	-0.594993	0.361765
61715		9.745152	0.572760	-0.734535	0.015621	-0.005482	-0.008870	-0.713623	-0.526855	-0.148682	0.575659	0.428579	-0.595005	0.361808
61716		9.753025	0.585168	-0.733354	0.007839	-0.004878	-0.005283	-0.711426	-0.522217	-0.148438	0.575622	0.428617	-0.595000	0.361830
61717		9.736978	0.568248	-0.718049	0.002790	-0.003077	-0.007705	-0.718018	-0.518311	-0.150879	0.575613	0.428615	-0.594998	0.361852
61718		9.739854	0.577836	-0.689416	0.007319	-0.004494	-0.004710	-0.710938	-0.522705	-0.141602	0.575541	0.428486	-0.595084	0.361976
61719		9.739181	0.572014	-0.733878	0.006915	-0.005556	-0.004391	-0.718994	-0.515137	-0.147461	0.575333	0.428679	-0.595068	0.362104
61720		9.730605	0.545267	-0.739788	0.006723	-0.006372	-0.004680	-0.717285	-0.528320	-0.150391	0.575166	0.428582	-0.595197	0.362273
61721		9.735958	0.555751	-0.725611	0.003681	-0.008930	-0.003824	-0.710938	-0.527832	-0.151367	0.575163	0.428528	-0.595272	0.362219
61722		9.761786	0.557160	-0.736776	0.005200	-0.006370	-0.004751	-0.712402	-0.525391	-0.163086	0.575236	0.428501	-0.595268	0.362141
61723		9.759118	0.556813	-0.724641	0.001521	-0.004546	-0.004059	-0.720703	-0.528564	-0.147217	0.575580	0.428105	-0.595336	0.361953
61724		9.742255	0.515995	-0.754013	-0.001507	-0.002560	-0.006088	-0.717285	-0.522705	-0.149658	0.575565	0.428057	-0.595397	0.361931
61725		9.706838	0.572008	-0.727750	0.001249	-0.005063	-0.005886	-0.720703	-0.520996	-0.154053	0.575541	0.427971	-0.595469	0.361953
61726		9.732979	0.577205	-0.716506	0.012707	-0.002934	-0.006048	-0.722656	-0.525391	-0.151855	0.575539	0.427811	-0.595521	0.362061
61727		9.737168	0.547520	-0.748211	-0.003429	-0.006181	-0.004841	-0.716309	-0.518555	-0.151367	0.575571	0.427609	-0.595665	0.362011
61728		9.741243	0.491234	-0.740571	0.008585	-0.005575	-0.007373	-0.720215	-0.529785	-0.140869	0.575519	0.427546	-0.595703	0.362106
61729		9.736730	0.537236	-0.731351	0.003308	-0.006013	-0.007290	-0.724609	-0.519531	-0.150146	0.575329	0.427740	-0.595727	0.362139
61730		9.737720	0.592961	-0.706501	0.001828	-0.009715	-0.008157	-0.718994	-0.520996	-0.156982	0.575227	0.427607	-0.595888	0.362193
61731		9.743664	0.531576	-0.756164	0.000170	-0.007702	-0.007074	-0.713623	-0.531006	-0.142334	0.575357	0.427322	-0.596018	0.362109
61732		9.736020	0.556045	-0.756816	-0.001066	-0.005199	-0.007207	-0.721436	-0.524658	-0.145752	0.575292	0.427502	-0.595998	0.362032
61733		9.764267	0.532794	-0.741639	0.003522	-0.008323	-0.006907	-0.716553	-0.517822	-0.147217	0.575153	0.427536	-0.596084	0.362071
61734		9.754763	0.575911	-0.705397	0.010680	-0.003115	-0.006449	-0.726807	-0.520264	-0.150391	0.575022	0.427554	-0.596093	0.362244
61735		9.737900	0.521644	-0.715279	0.009974	-0.006108	-0.005167	-0.716309	-0.520508	-0.155762	0.574905	0.427416	-0.596222	0.362380
61736		9.758781	0.534020	-0.718746	0.015051	-0.003922	-0.006539	-0.727783	-0.519775	-0.153076	0.574983	0.427260	-0.596234	0.362421
61737		9.745309	0.531606	-0.736902	0.007332	-0.005049	-0.005623	-0.720215	-0.517090	-0.146729	0.574945	0.427029	-0.596377	0.362518
61738		9.749770	0.505885	-0.747242	0.015023	-0.005334	-0.010772	-0.712402	-0.514648	-0.147461	0.574761	0.427117	-0.596373	0.362713
61739		9.753297	0.549728	-0.714849	0.006990	0.001264	-0.006755	-0.714111	-0.520508	-0.143555	0.574703	0.427108	-0.596330	0.362884
61740		9.739080	0.510401	-0.755895	0.001764	0.006205	-0.006225	-0.727783	-0.526367	-0.151367	0.574659	0.427157	-0.596254	0.363022
61741		9.754882	0.503739	-0.731527	0.008003	0.003634	-0.008008	-0.721680	-0.527344	-0.148438	0.574725	0.426988	-0.596288	0.363061
61742		9.739601	0.547869	-0.750444	0.005299	0.004417	-0.010899	-0.719482	-0.520996	-0.148193	0.574799	0.426952	-0.596245	0.363056
61743		9.762297	0.485747	-0.729895	-0.006936	0.008658	-0.009739	-0.719238	-0.520752	-0.147949	0.574913	0.426794	-0.596236	0.363076
61744		9.757659	0.502342	-0.698826	0.019146	0.010963	-0.011114	-0.717041	-0.519287	-0.152832	0.574898	0.426839	-0.596082	0.363301
61745		9.727671	0.621891	-0.733823	0.010763	0.001145	-0.007809	-0.715088	-0.511719	-0.152344	0.574954	0.426721	-0.596065	0.363377
61746		9.708183	0.576537	-0.770504	0.003785	-0.002686	-0.007075	-0.716064	-0.526367	-0.146973	0.574950	0.426557	-0.596120	0.363487
61747		9.718077	0.530381	-0.745353	0.000323	0.001357	-0.008884	-0.719727	-0.527100	-0.153320	0.574995	0.426585	-0.596077	0.363453
61748		9.704955	0.532198	-0.740758	0.011920	-0.001052	-0.009216	-0.710938	-0.518799	-0.145752	0.575094	0.426515	-0.596057	0.363412
61749		9.758809	0.476533	-0.737497	0.004480	-0.006222	-0.010594	-0.724365	-0.527344	-0.145020	0.574996	0.426659	-0.596018	0.363461
61750		9.748250	0.497694	-0.746286	0.004273	-0.006469	-0.017010	-0.717041	-0.525146	-0.155518	0.574911	0.426799	-0.596029	0.363414
61751		9.718110	0.596346	-0.722882	0.008361	-0.005227	-0.019929	-0.714355	-0.525635	-0.146484	0.575095	0.426749	-0.595994	0.363237
61752		9.709435	0.586317	-0.748453	0.004480	-0.006219	-0.017624	-0.722656	-0.521240	-0.159668	0.575090	0.426916	-0.595935	0.363146
61753		9.708626	0.543498	-0.734178	0.007983	-0.011397	-0.017611	-0.715332	-0.521973	-0.148926	0.575239	0.426707	-0.596035	0.362992
61754		9.725788	0.490416	-0.732760	0.011993	-0.014394	-0.019177	-0.711914	-0.527344	-0.144043	0.575153	0.426889	-0.596023	0.362934
61755		9.741055	0.487413	-0.713856	0.016805	-0.019806	-0.025521	-0.718506	-0.525879	-0.150146	0.574994	0.427338	-0.595935	0.362803
61756		9.695700	0.366655	-0.628189	0.024569	-0.033407	-0.033619	-0.715088	-0.528320	-0.140625	0.574821	0.427735	-0.595955	0.362577
61757		9.661896	0.422105	-0.584299	0.054732	-0.054429	-0.049728	-0.711426	-0.516602	-0.145996	0.574244	0.428813	-0.595835	0.362415
61758		9.649203	0.415895	-0.632654	0.031633	-0.077184	-0.065265	-0.712646	-0.527344	-0.140625	0.573757	0.429732	-0.595940	0.361925
61759		9.830757	0.400616	-0.753287	0.110297	-0.050870	-0.076255	-0.716553	-0.520996	-0.143799	0.573083	0.431301	-0.595406	0.362004
61760		9.764676	1.083885	-0.892998	0.103036	-0.049426	-0.057422	-0.713623	-0.531738	-0.145020	0.572406	0.432452	-0.595086	0.362228
61761		9.697674	0.975916	-0.991839	0.045414	-0.047946	-0.026326	-0.719971	-0.525879	-0.132812	0.572077	0.432945	-0.595142	0.362067
61762		9.673150	0.696132	-0.807715	0.020574	-0.043532	-0.010879	-0.721680	-0.537109	-0.135254	0.571511	0.433326	-0.595382	0.362110
61763		9.793984	0.529265	-0.838787	0.050900	-0.025576	-0.008303	-0.717529	-0.532715	-0.134766	0.571070	0.433774	-0.595363	0.362302
61764		9.738121	0.744449	-0.779644	0.043251	-0.020791	0.001037	-0.720459	-0.538086	-0.134277	0.570661	0.434071	-0.595379	0.362563
61765		9.791459	0.563695	-0.812388	0.023609	-0.018755	0.007927	-0.708984	-0.533691	-0.132324	0.570382	0.434163	-0.595512	0.362673
61766		9.847026	0.590037	-0.900937	0.064451	0.006744	0.012360	-0.718262	-0.532227	-0.137939	0.570049	0.434498	-0.595219	0.363276
61767		9.824806	0.428308	-0.967176	0.022128	0.055951	0.011815	-0.705322	-0.531738	-0.137939	0.570384	0.434094	-0.594861	0.363820
61768		9.663363	0.465922	-0.875229	0.020064	0.036709	-0.001321	-0.723145	-0.521729	-0.136230	0.570693	0.433974	-0.594479	0.364102
61769		9.680697	0.290983	-0.775788	0.017562	0.012363	-0.024363	-0.714600	-0.539307	-0.141113	0.570709	0.434002	-0.594310	0.364321
61770		9.710809	0.657412	-0.747815	0.040939	-0.007593	-0.036262	-0.717773	-0.533691	-0.130371	0.570797	0.434392	-0.594024	0.364184
61771		9.709989	0.630202	-0.873817	0.023251	-0.018114	-0.034945	-0.709473	-0.524414	-0.131836	0.570616	0.434870	-0.593910	0.364081
61772		9.777482	0.568359	-0.856045	-0.008652	-0.000165	-0.031238	-0.715332	-0.528809	-0.131592	0.570720	0.434996	-0.593799	0.363951
61773		9.832434	0.637207	-0.838443	-0.019570	0.024347	-0.031053	-0.713379	-0.531006	-0.133301	0.571063	0.434905	-0.593602	0.363844
61774		9.774117	0.760895	-0.743291	-0.065554	0.003446	-0.016220	-0.714844	-0.524414	-0.130371	0.571477	0.434467	-0.593830	0.363343
61775		9.680524	0.424339	-0.844294	-0.023037	-0.010346	-0.023408	-0.717285	-0.528076	-0.145752	0.571457	0.434492	-0.593944	0.363160
61776		9.760258	0.518696	-0.880032	0.007465	0.004231	-0.029332	-0.714111	-0.536865	-0.136230	0.571727	0.434371	-0.593846	0.363038
61777		9.736032	0.797179	-0.741222	0.003179	0.000715	-0.030888	-0.716064	-0.527832	-0.141602	0.571883	0.434528	-0.593700	0.362843
61778		9.700522	0.628540	-0.812550	0.008894	-0.010966	-0.024112	-0.717285	-0.528809	-0.136230	0.571912	0.434553	-0.593711	0.362748
61779		9.686116	0.559235	-0.859983	0.004789	-0.017642	-0.028608	-0.711182	-0.528564	-0.131104	0.571829	0.434726	-0.593750	0.362610
61780		9.717780	0.534554	-0.818709	0.001893	-0.012921	-0.032272	-0.710938	-0.536865	-0.142334	0.571741	0.435032	-0.593687	0.362485
61781		9.684703	0.696816	-0.834597	0.010194	-0.004726	-0.038442	-0.716553	-0.526367	-0.137451	0.571986	0.435184	-0.593520	0.362190
61782		9.667873	0.680075	-0.861581	0.002259	-0.002262	-0.040663	-0.716553	-0.537842	-0.133789	0.572091	0.435304	-0.593413	0.362055
61783		9.699853	0.695543	-0.793603	0.007130	-0.008157	-0.040894	-0.718262	-0.533203	-0.140381	0.572138	0.435611	-0.593283	0.361824
61784		9.702971	0.665765	-0.868358	0.016070	-0.005387	-0.038554	-0.721924	-0.538330	-0.134277	0.572229	0.435769	-0.593162	0.361689
61785		9.734007	0.760288	-0.815173	0.026352	-0.004802	-0.033627	-0.698975	-0.528076	-0.144287	0.572147	0.436081	-0.593009	0.361693
61786		9.731194	0.872598	-0.871113	0.016767	-0.001448	-0.019344	-0.707275	-0.540283	-0.128906	0.572306	0.436094	-0.592865	0.361662
61787		9.675299	0.716645	-0.858704	0.000844	0.002904	-0.014527	-0.710938	-0.541504	-0.134277	0.572313	0.436262	-0.592751	0.361635
61788		9.741040	0.589213	-0.772926	0.006017	0.007142	-0.013903	-0.708984	-0.540771	-0.136963	0.572415	0.436303	-0.592635	0.361615
61789		9.733000	0.705474	-0.840798	0.025789	0.006424	-0.015048	-0.715820	-0.532715	-0.135986	0.572458	0.436452	-0.592428	0.361705
61790		9.703755	0.698782	-0.860241	0.006298	-0.001104	-0.014804	-0.707031	-0.536133	-0.144287	0.572436	0.436439	-0.592424	0.361760
61791		9.726437	0.625019	-0.806443	-0.001755	0.002186	-0.017669	-0.708252	-0.541016	-0.125977	0.572719	0.436270	-0.592388	0.361576
61792		9.725212	0.730507	-0.797071	0.002481	0.007709	-0.018052	-0.711670	-0.532227	-0.132568	0.572705	0.436502	-0.592215	0.361602
61793		9.709177	0.708006	-0.821235	-0.005836	0.006833	-0.013384	-0.709717	-0.536377	-0.136230	0.572744	0.436456	-0.592179	0.361655
61794		9.700320	0.709146	-0.863618	0.000188	0.004717	-0.013711	-0.714355	-0.538330	-0.136963	0.572841	0.436420	-0.592122	0.361639
61795		9.711917	0.740118	-0.787174	-0.010284	0.009839	-0.009662	-0.710693	-0.538818	-0.139648	0.573017	0.436221	-0.592127	0.361592
61796		9.699589	0.691137	-0.784090	-0.013010	0.008322	-0.006007	-0.717773	-0.535400	-0.135498	0.573240	0.435963	-0.592159	0.361497
61797		9.706206	0.730086	-0.819604	-0.010207	0.010123	-0.007213	-0.718018	-0.535889	-0.127197	0.573329	0.435761	-0.592193	0.361544
61798		9.756352	0.719754	-0.802632	-0.013115	0.007785	-0.003841	-0.711914	-0.535645	-0.128418	0.573252	0.435696	-0.592242	0.361664
61799		9.728068	0.735126	-0.775757	-0.026443	0.008853	0.000875	-0.700439	-0.536865	-0.145752	0.573282	0.435513	-0.592333	0.361687
61800		9.693651	0.731970	-0.807943	-0.024442	0.004860	0.002634	-0.710938	-0.530029	-0.148438	0.573618	0.435106	-0.592434	0.361478
61801		9.719953	0.715589	-0.817072	-0.021167	0.006598	0.006371	-0.709717	-0.531250	-0.133057	0.573883	0.434544	-0.592629	0.361414
61802		9.722574	0.662185	-0.733755	-0.021685	0.015174	0.008787	-0.707764	-0.528076	-0.140869	0.573935	0.434259	-0.592696	0.361564
61803		9.709797	0.602052	-0.773218	-0.012972	0.007516	0.004778	-0.706787	-0.530029	-0.146240	0.574027	0.433951	-0.592786	0.361642
61804		9.745142	0.682404	-0.786881	-0.010806	0.002348	0.001670	-0.719482	-0.527832	-0.137695	0.574189	0.433623	-0.592895	0.361599
61805		9.765260	0.616125	-0.739110	-0.013864	0.002854	0.002461	-0.707520	-0.537109	-0.144531	0.574142	0.433360	-0.593062	0.361714
61806		9.710931	0.736921	-0.771954	-0.017038	0.004227	0.002599	-0.706055	-0.528076	-0.143311	0.574350	0.433057	-0.593156	0.361593
61807		9.690622	0.632913	-0.818412	-0.010261	0.004807	0.002517	-0.705566	-0.528076	-0.136963	0.574448	0.432803	-0.593226	0.361627
61808		9.696478	0.683805	-0.755320	-0.007224	0.004872	0.002626	-0.709717	-0.542725	-0.146240	0.574414	0.432712	-0.593242	0.361762
61809		9.719769	0.679434	-0.772265	-0.000288	-0.001364	0.001885	-0.709717	-0.529297	-0.137695	0.574529	0.432574	-0.593287	0.361673
61810		9.750840	0.648415	-0.811314	-0.001572	0.005074	0.004979	-0.713135	-0.535400	-0.145996	0.574457	0.432476	-0.593314	0.361858
61811		9.759597	0.649061	-0.766875	-0.001454	-0.000600	0.006118	-0.709229	-0.531250	-0.147705	0.574503	0.432248	-0.593425	0.361877
61812		9.721043	0.629109	-0.753575	-0.003495	0.004545	0.006157	-0.713867	-0.525635	-0.152100	0.574619	0.431956	-0.593504	0.361912
61813		9.699493	0.679519	-0.765226	-0.007121	0.007975	0.006508	-0.715332	-0.521240	-0.141113	0.574799	0.431488	-0.593639	0.361962
61814		9.723353	0.640226	-0.783538	-0.000249	0.008254	0.007982	-0.715332	-0.531006	-0.149902	0.574704	0.431270	-0.593706	0.362263
61815		9.741165	0.658024	-0.811603	0.002019	0.010991	0.008271	-0.708008	-0.532227	-0.148438	0.574834	0.430919	-0.593764	0.362380
61816		9.735415	0.588872	-0.753300	0.001539	0.005413	0.007539	-0.717285	-0.525146	-0.146973	0.574937	0.430681	-0.593804	0.362434
61817		9.704101	0.667828	-0.708657	0.008722	0.001675	0.006719	-0.715576	-0.538818	-0.140869	0.574862	0.430480	-0.593891	0.362649
61818		9.725800	0.593374	-0.717925	0.011422	0.002927	0.007694	-0.712891	-0.531494	-0.146973	0.574775	0.430462	-0.593891	0.362809
61819		9.723517	0.693658	-0.793224	0.003496	0.002552	0.011099	-0.707764	-0.517578	-0.145508	0.574781	0.430236	-0.593976	0.362927
61820		9.738196	0.577184	-0.785652	-0.002552	0.005257	0.012306	-0.713623	-0.524902	-0.138916	0.574737	0.429970	-0.594061	0.363174
61821		9.725490	0.611258	-0.755800	-0.006092	0.000188	0.012365	-0.712646	-0.529053	-0.157471	0.574586	0.429828	-0.594180	0.363386
61822		9.760060	0.590666	-0.743416	-0.004205	0.006666	0.012496	-0.720215	-0.524414	-0.145264	0.574825	0.429323	-0.594329	0.363361
61823		9.734704	0.553161	-0.735226	-0.016540	0.005609	0.011762	-0.718262	-0.529297	-0.144531	0.574850	0.428940	-0.594517	0.363466
61824		9.732222	0.546009	-0.741941	-0.008346	0.003105	0.007863	-0.714355	-0.527100	-0.145264	0.574857	0.428705	-0.594637	0.363535
61825		9.758094	0.579318	-0.746781	-0.008865	0.009697	0.005136	-0.716797	-0.532227	-0.146729	0.574941	0.428465	-0.594680	0.363616
61826		9.742801	0.556185	-0.748978	-0.006717	0.009901	0.002444	-0.721191	-0.525635	-0.146240	0.575071	0.428241	-0.594706	0.363632
61827		9.727879	0.520456	-0.731839	-0.009220	0.004092	0.001337	-0.716309	-0.525879	-0.153564	0.575103	0.428008	-0.594811	0.363683
61828		9.741242	0.562782	-0.689797	-0.001412	0.001928	-0.005042	-0.716553	-0.526367	-0.145996	0.575247	0.427783	-0.594869	0.363625
61829		9.730573	0.527200	-0.722610	0.001626	0.001986	-0.004928	-0.717285	-0.523193	-0.150635	0.575248	0.427729	-0.594872	0.363682
61830		9.734812	0.544119	-0.769570	0.016083	0.000414	-0.008310	-0.714600	-0.525391	-0.144775	0.575227	0.427714	-0.594836	0.363793
61831		9.732596	0.548690	-0.735030	0.004016	-0.003515	-0.009547	-0.714844	-0.524658	-0.144775	0.575176	0.427770	-0.594826	0.363824
61832		9.750718	0.561787	-0.724914	0.017338	-0.004043	-0.013321	-0.713623	-0.528809	-0.154297	0.575063	0.427948	-0.594742	0.363930
61833		9.741829	0.616989	-0.743587	0.010134	0.000275	-0.011611	-0.712891	-0.527588	-0.149414	0.575201	0.427874	-0.594707	0.363856
61834		9.736935	0.617097	-0.716293	0.002680	0.002085	-0.009813	-0.722412	-0.517822	-0.147217	0.575298	0.427817	-0.594677	0.363819
61835		9.726398	0.602811	-0.726359	0.006539	0.000318	-0.006526	-0.716309	-0.514404	-0.154541	0.575206	0.427749	-0.594710	0.363989
61836		9.732147	0.563965	-0.714931	0.002523	-0.000715	-0.008176	-0.718262	-0.527344	-0.147461	0.575260	0.427551	-0.594776	0.364030
61837		9.733732	0.596851	-0.747609	0.008848	-0.002895	-0.007546	-0.717041	-0.526123	-0.151123	0.575222	0.427561	-0.594781	0.364070
61838		9.728368	0.609012	-0.741124	0.002913	-0.001058	-0.005690	-0.729492	-0.523438	-0.153809	0.575277	0.427439	-0.594827	0.364051
61839		9.745148	0.535402	-0.723152	0.000036	0.005079	-0.005112	-0.716064	-0.528809	-0.150146	0.575367	0.427153	-0.594925	0.364083
61840		9.725774	0.589653	-0.749607	0.002710	-0.001306	-0.005073	-0.710449	-0.525391	-0.151123	0.575424	0.427060	-0.594962	0.364043
61841		9.736439	0.573312	-0.742690	0.007084	-0.002030	-0.005188	-0.711914	-0.527100	-0.147949	0.575463	0.427010	-0.594962	0.364040
61842		9.717118	0.648043	-0.747114	0.006746	-0.000840	-0.004324	-0.718018	-0.522949	-0.147461	0.575464	0.427002	-0.594948	0.364072
61843		9.728705	0.547095	-0.747404	0.003938	-0.002637	-0.003132	-0.716553	-0.521729	-0.148193	0.575400	0.426952	-0.594994	0.364156
61844		9.739670	0.534236	-0.719533	0.005930	-0.005232	-0.004187	-0.710938	-0.521973	-0.146484	0.575321	0.426928	-0.595041	0.364232
61845		9.723862	0.529764	-0.724107	0.009893	-0.005040	-0.005891	-0.714844	-0.528320	-0.151855	0.575228	0.427003	-0.595020	0.364324
61846		9.738081	0.617141	-0.736667	0.013153	-0.005297	-0.007297	-0.711426	-0.531006	-0.150146	0.575240	0.426997	-0.595028	0.364300
61847		9.718313	0.543208	-0.719218	0.006831	0.000277	-0.005598	-0.712646	-0.520996	-0.145752	0.575325	0.426954	-0.595007	0.364250
61848		9.749007	0.568458	-0.733276	0.011955	-0.002546	-0.004991	-0.713135	-0.517578	-0.145020	0.575212	0.427029	-0.594969	0.364402
61849		9.716638	0.642062	-0.733772	0.011173	-0.005518	-0.000599	-0.716064	-0.528564	-0.146973	0.575030	0.427083	-0.594982	0.364606
61850		9.720047	0.542001	-0.757280	0.005396	-0.005697	0.000115	-0.716553	-0.517090	-0.146240	0.574972	0.427049	-0.595045	0.364633
61851		9.739296	0.526663	-0.707413	0.006820	-0.005368	-0.001383	-0.715576	-0.531982	-0.148193	0.574832	0.427028	-0.595103	0.364784
61852		9.732904	0.563580	-0.741959	0.004802	-0.005603	-0.001756	-0.712402	-0.527100	-0.148438	0.574833	0.426992	-0.595154	0.364742
61853		9.732807	0.563922	-0.742973	0.008470	-0.001963	-0.002072	-0.722900	-0.524414	-0.144287	0.574828	0.426969	-0.595153	0.364779
61854		9.741012	0.562441	-0.720958	0.000021	-0.000572	-0.000899	-0.713379	-0.527344	-0.150635	0.574761	0.426886	-0.595223	0.364866
61855		9.728029	0.561766	-0.716611	0.000346	-0.002597	0.001960	-0.719482	-0.528320	-0.150146	0.574808	0.426738	-0.595299	0.364842
61856		9.725507	0.539648	-0.726520	-0.004304	-0.002404	0.000244	-0.722168	-0.527832	-0.149170	0.574868	0.426550	-0.595413	0.364781
61857		9.715927	0.476942	-0.720346	0.001447	-0.005051	-0.001901	-0.713623	-0.522705	-0.147949	0.574861	0.426437	-0.595517	0.364753
61858		9.720241	0.534379	-0.723226	-0.001231	-0.006879	-0.003773	-0.716797	-0.525391	-0.156494	0.574842	0.426384	-0.595590	0.364727
61859		9.744558	0.488940	-0.703330	0.001998	-0.005155	-0.007106	-0.721436	-0.520752	-0.156250	0.574962	0.426218	-0.595673	0.364596
61860		9.752147	0.629783	-0.748298	0.006653	-0.010155	-0.004896	-0.718506	-0.526123	-0.151611	0.574959	0.426074	-0.595805	0.364554
61861		9.733002	0.504666	-0.736223	-0.010468	-0.007052	-0.001026	-0.726074	-0.527832	-0.147949	0.575037	0.425852	-0.595979	0.364406
61862		9.735752	0.456196	-0.755901	0.009976	-0.008723	-0.006680	-0.720947	-0.523682	-0.150635	0.574955	0.425855	-0.596060	0.364399
61863		9.760387	0.543445	-0.760566	0.011504	-0.007851	-0.010352	-0.718018	-0.527588	-0.143555	0.574915	0.425872	-0.596094	0.364386
61864		9.745597	0.514258	-0.725392	0.004275	-0.006383	-0.010055	-0.714355	-0.521240	-0.149170	0.574866	0.425949	-0.596110	0.364349
61865		9.736285	0.548438	-0.767825	0.008999	-0.004051	-0.012440	-0.710449	-0.522217	-0.150146	0.574861	0.425999	-0.596077	0.364351
61866		9.736613	0.538446	-0.748763	0.003627	-0.003739	-0.012953	-0.716553	-0.522705	-0.149902	0.574923	0.426013	-0.596051	0.364280
61867		9.723397	0.577865	-0.720347	0.010598	-0.000336	-0.007609	-0.722168	-0.520020	-0.151123	0.574928	0.425998	-0.596026	0.364330
61868		9.741311	0.548550	-0.755759	0.008568	-0.004807	-0.006583	-0.717529	-0.526611	-0.146973	0.574884	0.425942	-0.596077	0.364381
61869		9.752864	0.465415	-0.755339	-0.001903	-0.007064	-0.008097	-0.713623	-0.524902	-0.144531	0.574897	0.425908	-0.596150	0.364282
61870		9.752908	0.509332	-0.710989	0.015769	-0.003449	-0.012539	-0.718750	-0.523926	-0.147705	0.574828	0.426077	-0.596060	0.364340
61871		9.726963	0.605088	-0.750942	0.011727	-0.004760	-0.009554	-0.723633	-0.526367	-0.151611	0.574778	0.426125	-0.596054	0.364372
61872		9.713642	0.585608	-0.770674	0.005805	-0.007747	-0.007183	-0.715088	-0.526611	-0.149902	0.574784	0.426040	-0.596152	0.364302
61873		9.738037	0.540507	-0.751678	0.003459	-0.011602	-0.006190	-0.710205	-0.523926	-0.149658	0.574777	0.426010	-0.596247	0.364194
61874		9.756825	0.502395	-0.747037	0.011161	-0.006642	-0.009505	-0.717529	-0.526123	-0.150146	0.574772	0.426066	-0.596226	0.364170
61875		9.753071	0.528947	-0.774910	0.005773	-0.002369	-0.006785	-0.718750	-0.514648	-0.154541	0.574818	0.425997	-0.596254	0.364131
61876		9.743578	0.505269	-0.743863	0.006536	-0.000234	-0.007460	-0.710205	-0.534912	-0.139404	0.574839	0.425887	-0.596265	0.364209
61877		9.714125	0.551307	-0.738405	0.015662	-0.000578	-0.008056	-0.724609	-0.519043	-0.145020	0.574804	0.426065	-0.596163	0.364224
61878		9.713866	0.532307	-0.761714	0.012964	-0.001840	-0.009024	-0.718018	-0.524658	-0.154297	0.574681	0.426127	-0.596143	0.364379
61879		9.734219	0.525172	-0.787853	0.006111	-0.003555	-0.007652	-0.720703	-0.522949	-0.145508	0.574761	0.426012	-0.596191	0.364309
61880		9.757879	0.510406	-0.786123	0.003495	-0.003707	-0.009891	-0.723145	-0.525635	-0.150635	0.574730	0.426019	-0.596213	0.364313
61881		9.736884	0.538385	-0.760664	0.011839	-0.005609	-0.008914	-0.713379	-0.526367	-0.145020	0.574715	0.425994	-0.596254	0.364297
61882		9.734357	0.539477	-0.748370	0.010284	-0.003670	-0.010895	-0.727295	-0.515625	-0.141846	0.574698	0.426085	-0.596210	0.364291
61883		9.741769	0.532068	-0.769459	0.008949	0.000511	-0.008340	-0.723389	-0.521484	-0.153809	0.574541	0.426142	-0.596189	0.364506
61884		9.728695	0.533444	-0.764968	0.008407	-0.001947	-0.009183	-0.719727	-0.530273	-0.141846	0.574584	0.426037	-0.596228	0.364498
61885		9.736866	0.533960	-0.743252	0.004173	-0.002682	-0.009297	-0.723145	-0.526123	-0.144775	0.574574	0.426074	-0.596236	0.364456
61886		9.728066	0.554694	-0.764899	0.004054	-0.001817	-0.009953	-0.716797	-0.522949	-0.145752	0.574569	0.426064	-0.596257	0.364440
61887		9.741826	0.527702	-0.751204	0.002496	-0.000713	-0.008204	-0.715088	-0.520264	-0.145508	0.574578	0.426046	-0.596256	0.364450
61888		9.736465	0.540143	-0.744031	0.006251	0.002647	-0.006982	-0.720703	-0.530273	-0.149414	0.574567	0.426048	-0.596207	0.364545
61889		9.738989	0.526073	-0.758684	0.008247	0.000066	-0.008042	-0.718994	-0.513428	-0.153564	0.574637	0.425987	-0.596215	0.364495
61890		9.752003	0.570006	-0.717824	0.008906	0.001662	-0.006546	-0.720215	-0.523926	-0.146729	0.574636	0.425896	-0.596204	0.364618
61891		9.728196	0.529505	-0.767382	0.012199	-0.000554	-0.006037	-0.718018	-0.522461	-0.153076	0.574593	0.425903	-0.596190	0.364701
61892		9.725773	0.529612	-0.754543	0.005311	-0.004538	-0.005180	-0.722412	-0.520996	-0.144775	0.574625	0.425797	-0.596253	0.364671
61893		9.731573	0.507318	-0.742767	0.007487	-0.006299	-0.005960	-0.724121	-0.521729	-0.146729	0.574514	0.425821	-0.596300	0.364742
61894		9.725721	0.515463	-0.758613	0.009462	-0.004077	-0.007527	-0.718994	-0.513916	-0.138672	0.574445	0.425821	-0.596331	0.364800
61895		9.756446	0.524356	-0.774498	0.008843	-0.000018	-0.006176	-0.720459	-0.517090	-0.153076	0.574263	0.425939	-0.596276	0.365038
61896		9.741063	0.503230	-0.778962	0.006008	0.000147	-0.006894	-0.721191	-0.520508	-0.147217	0.574300	0.425818	-0.596306	0.365071
61897		9.740746	0.542478	-0.754667	0.003511	0.002523	-0.006152	-0.718750	-0.519043	-0.152100	0.574315	0.425741	-0.596314	0.365126
61898		9.711691	0.512662	-0.796983	0.002075	-0.000638	-0.006068	-0.719238	-0.520020	-0.141846	0.574368	0.425612	-0.596360	0.365118
61899		9.725006	0.560634	-0.735197	-0.001318	-0.002363	-0.006726	-0.721680	-0.521484	-0.141113	0.574310	0.425615	-0.596387	0.365161
61900		9.749405	0.490630	-0.758328	0.001797	-0.001997	-0.004172	-0.720459	-0.522217	-0.143555	0.574223	0.425617	-0.596420	0.365241
61901		9.754022	0.514547	-0.762456	0.007183	0.004779	-0.003660	-0.722168	-0.516602	-0.148926	0.574195	0.425593	-0.596388	0.365367
61902		9.752104	0.497487	-0.748972	0.004028	0.005557	-0.004415	-0.723389	-0.519531	-0.145752	0.574220	0.425465	-0.596396	0.365463
61903		9.702691	0.517940	-0.719912	-0.000001	0.000831	-0.003734	-0.726074	-0.520020	-0.150391	0.574204	0.425367	-0.596449	0.365516
61904		9.729183	0.486685	-0.731947	0.012275	0.000572	-0.007323	-0.725342	-0.522217	-0.143311	0.574188	0.425310	-0.596461	0.365586
61905		9.735995	0.512620	-0.750209	0.005868	-0.001813	-0.008977	-0.726074	-0.518555	-0.154541	0.574129	0.425333	-0.596473	0.365633
61906		9.763372	0.550440	-0.771076	0.006505	0.000357	-0.006582	-0.726074	-0.521240	-0.142334	0.574180	0.425174	-0.596536	0.365634
61907		9.725848	0.503497	-0.739456	0.000321	-0.003184	-0.006021	-0.722900	-0.527588	-0.159424	0.574108	0.425153	-0.596597	0.365672
61908		9.730630	0.490096	-0.768983	0.009186	-0.005424	-0.005634	-0.715088	-0.527100	-0.146729	0.574211	0.424989	-0.596690	0.365549
61909		9.732826	0.555208	-0.715811	0.007868	-0.005219	-0.006304	-0.721680	-0.526855	-0.149414	0.574199	0.425019	-0.596697	0.365524
61910		9.751938	0.495875	-0.732921	0.002042	-0.007122	-0.005182	-0.718994	-0.517578	-0.157227	0.574214	0.424940	-0.596794	0.365434
61911		9.736413	0.453935	-0.762156	0.012063	-0.010123	-0.009045	-0.711182	-0.521240	-0.153809	0.574206	0.424894	-0.596863	0.365386
61912		9.729764	0.517382	-0.753472	0.012753	-0.005438	-0.010765	-0.721191	-0.515137	-0.153320	0.574243	0.424915	-0.596840	0.365341
61913		9.721205	0.562920	-0.732015	0.004373	-0.006655	-0.008519	-0.720947	-0.512939	-0.154785	0.574233	0.424842	-0.596913	0.365322
61914		9.748706	0.481537	-0.749130	0.007403	-0.003164	-0.006103	-0.723145	-0.516357	-0.147949	0.574226	0.424742	-0.596963	0.365368
61915		9.739845	0.522125	-0.748540	0.007026	-0.004232	-0.005762	-0.714844	-0.524902	-0.151611	0.574150	0.424721	-0.597006	0.365441
61916		9.726731	0.522916	-0.745098	0.005671	-0.006284	-0.006953	-0.718018	-0.525879	-0.148926	0.574198	0.424669	-0.597056	0.365345
61917		9.723058	0.532185	-0.775051	0.007151	-0.008492	-0.007429	-0.715332	-0.522461	-0.155273	0.574192	0.424661	-0.597117	0.365264
61918		9.747149	0.500358	-0.775555	-0.000774	-0.007535	-0.006797	-0.722168	-0.524902	-0.147705	0.574289	0.424518	-0.597225	0.365101
61919		9.743558	0.470390	-0.730998	0.007262	-0.005124	-0.008189	-0.722656	-0.511963	-0.150391	0.574282	0.424500	-0.597271	0.365056
61920		9.749385	0.529905	-0.748572	0.003862	-0.010512	-0.006524	-0.718262	-0.520996	-0.148438	0.574174	0.424482	-0.597363	0.365098
61921		9.739209	0.498027	-0.762397	0.005877	-0.010258	-0.006164	-0.716553	-0.518799	-0.149414	0.574118	0.424480	-0.597441	0.365060
61922		9.715357	0.499372	-0.768613	0.002278	-0.008012	-0.007608	-0.721680	-0.515625	-0.139893	0.574105	0.424453	-0.597505	0.365008
61923		9.736422	0.479380	-0.775688	0.000242	-0.007692	-0.007069	-0.716064	-0.520508	-0.141113	0.573958	0.424527	-0.597547	0.365085
61924		9.754889	0.496532	-0.744898	0.011601	-0.004397	-0.011177	-0.727783	-0.521729	-0.140625	0.573860	0.424684	-0.597485	0.365157
61925		9.733757	0.483075	-0.764346	0.014620	-0.000074	-0.012505	-0.720215	-0.523193	-0.140137	0.573765	0.424805	-0.597424	0.365265
61926		9.740764	0.492966	-0.784105	0.006587	-0.002489	-0.011108	-0.720215	-0.516357	-0.142090	0.573710	0.424902	-0.597390	0.365294
61927		9.742023	0.550976	-0.773555	0.012702	-0.004267	-0.008993	-0.720947	-0.519775	-0.145752	0.573581	0.425016	-0.597360	0.365416
61928		9.727501	0.517245	-0.758528	0.012840	-0.002301	-0.006915	-0.724365	-0.516113	-0.146729	0.573517	0.425049	-0.597347	0.365497
61929		9.734935	0.509121	-0.779871	0.008112	-0.003266	-0.007327	-0.720703	-0.518799	-0.144043	0.573458	0.425029	-0.597382	0.365555
61930		9.715895	0.452457	-0.760729	0.009756	-0.007476	-0.008948	-0.717285	-0.518799	-0.144043	0.573361	0.425101	-0.597402	0.365592
61931		9.734917	0.517213	-0.761411	0.007848	-0.004367	-0.010068	-0.721680	-0.524414	-0.151367	0.573311	0.425165	-0.597387	0.365620
61932		9.737407	0.524511	-0.754416	0.010396	-0.001648	-0.008876	-0.723877	-0.519287	-0.150146	0.573363	0.425115	-0.597396	0.365583
61933		9.755934	0.478593	-0.790654	0.005472	-0.002865	-0.008663	-0.725098	-0.518799	-0.145752	0.573386	0.425039	-0.597446	0.365553
61934		9.742040	0.534753	-0.760895	0.002580	0.002653	-0.008992	-0.722412	-0.517090	-0.148438	0.573416	0.424971	-0.597454	0.365573
61935		9.735686	0.475094	-0.766048	-0.004161	0.001426	-0.009760	-0.722656	-0.524170	-0.140869	0.573499	0.424845	-0.597497	0.365518
61936		9.749386	0.465572	-0.750122	0.003492	0.002787	-0.010824	-0.718262	-0.525391	-0.150391	0.573512	0.424870	-0.597454	0.365538
61937		9.727453	0.527579	-0.720851	0.002546	0.000402	-0.009514	-0.715088	-0.515137	-0.147949	0.573622	0.424789	-0.597460	0.365451
61938		9.724675	0.482701	-0.774496	0.005834	-0.004617	-0.010431	-0.714600	-0.523438	-0.144775	0.573603	0.424812	-0.597459	0.365455
61939		9.732051	0.475565	-0.796157	0.009259	-0.004017	-0.011591	-0.721191	-0.525635	-0.140869	0.573589	0.424901	-0.597415	0.365445
61940		9.739801	0.514901	-0.750792	0.000391	-0.001821	-0.011955	-0.725342	-0.528320	-0.145264	0.573599	0.424938	-0.597408	0.365398
61941		9.749437	0.465851	-0.732544	0.004762	-0.002486	-0.012105	-0.721436	-0.524902	-0.143066	0.573634	0.424938	-0.597420	0.365324
61942		9.734532	0.493480	-0.769081	0.013202	-0.003774	-0.013342	-0.719727	-0.523926	-0.140381	0.573587	0.425056	-0.597372	0.365338
61943		9.743596	0.525663	-0.780634	0.014344	-0.004788	-0.012957	-0.720215	-0.518311	-0.149658	0.573496	0.425221	-0.597312	0.365388
61944		9.715310	0.505041	-0.781519	0.008032	-0.006927	-0.012124	-0.722412	-0.514648	-0.148682	0.573482	0.425233	-0.597341	0.365347
61945		9.733345	0.497697	-0.794667	0.001461	-0.003947	-0.010289	-0.721436	-0.520996	-0.139648	0.573486	0.425172	-0.597399	0.365318
61946		9.755423	0.487500	-0.757525	-0.002359	-0.001140	-0.014853	-0.714111	-0.516602	-0.144043	0.573497	0.425213	-0.597386	0.365275
61947		9.745057	0.474502	-0.767392	0.005446	0.001630	-0.014747	-0.716309	-0.510498	-0.146973	0.573520	0.425276	-0.597305	0.365297
61948		9.726846	0.556322	-0.764280	0.006765	0.001437	-0.014083	-0.725830	-0.527588	-0.151123	0.573529	0.425294	-0.597255	0.365343
61949		9.730895	0.493091	-0.782751	0.006490	-0.002746	-0.013598	-0.717529	-0.518799	-0.145264	0.573607	0.425254	-0.597275	0.365235
61950		9.735468	0.523766	-0.766399	0.010157	-0.000207	-0.015769	-0.721680	-0.518066	-0.154297	0.573610	0.425339	-0.597200	0.365253
61951		9.743379	0.500700	-0.788544	0.004474	-0.003006	-0.013958	-0.716064	-0.521973	-0.151367	0.573693	0.425260	-0.597238	0.365154
61952		9.743612	0.508012	-0.767466	0.004658	0.000641	-0.012261	-0.721436	-0.520020	-0.146973	0.573792	0.425212	-0.597216	0.365089
61953		9.730093	0.527063	-0.760513	0.003118	0.007637	-0.012311	-0.722900	-0.523682	-0.155762	0.573888	0.425152	-0.597159	0.365101
61954		9.724769	0.519813	-0.774539	-0.000567	0.005925	-0.013890	-0.724609	-0.521973	-0.145996	0.574098	0.424979	-0.597162	0.364968
61955		9.729926	0.533352	-0.758262	0.005305	-0.000578	-0.012190	-0.725830	-0.517090	-0.142578	0.574109	0.424975	-0.597162	0.364955
61956		9.746335	0.508636	-0.758389	-0.000489	-0.005920	-0.013359	-0.722900	-0.517334	-0.146240	0.574054	0.425002	-0.597212	0.364928
61957		9.728396	0.484270	-0.771854	-0.003089	-0.006675	-0.016497	-0.720215	-0.522705	-0.148682	0.574066	0.425003	-0.597267	0.364818
61958		9.754287	0.494230	-0.761741	0.004899	-0.006463	-0.018440	-0.719971	-0.515625	-0.153076	0.574101	0.425056	-0.597270	0.364697
61959		9.738917	0.544381	-0.776343	0.010205	-0.004719	-0.019914	-0.720947	-0.528564	-0.151367	0.574136	0.425101	-0.597250	0.364623
61960		9.728258	0.553235	-0.765391	0.007189	-0.008484	-0.017669	-0.725586	-0.520264	-0.147217	0.574195	0.425134	-0.597276	0.364449
61961		9.710852	0.512301	-0.780643	0.004266	-0.008886	-0.016191	-0.717529	-0.523682	-0.151367	0.574167	0.425172	-0.597330	0.364360
61962		9.709217	0.502586	-0.749630	0.011618	-0.013919	-0.017304	-0.717773	-0.520264	-0.149658	0.574141	0.425271	-0.597367	0.364224
61963		9.705674	0.450163	-0.750711	0.012415	-0.013487	-0.020711	-0.722900	-0.513916	-0.142578	0.574096	0.425420	-0.597372	0.364114
61964		9.749371	0.446627	-0.678236	0.018785	-0.019243	-0.028019	-0.720947	-0.516357	-0.144531	0.573892	0.425766	-0.597339	0.364085
61965		9.703410	0.381259	-0.718084	0.062108	-0.029009	-0.040016	-0.724121	-0.529785	-0.146484	0.573482	0.426528	-0.597121	0.364197
61966		9.731559	0.220806	-0.948846	0.059331	-0.016559	-0.056812	-0.723633	-0.524170	-0.145752	0.573347	0.427278	-0.596764	0.364116
61967		9.703862	0.465083	-0.926406	0.049928	-0.006002	-0.078367	-0.721191	-0.531738	-0.139160	0.573405	0.428074	-0.596262	0.363911
61968		9.676597	0.401930	-0.874460	0.002711	-0.001550	-0.094762	-0.716309	-0.533691	-0.144043	0.573803	0.428701	-0.595822	0.363267
61969		9.662185	0.314371	-0.793706	0.005906	-0.001784	-0.116771	-0.716309	-0.530762	-0.139404	0.574335	0.429472	-0.595257	0.362439
61970		9.681343	0.413625	-0.787849	0.000003	-0.015602	-0.139677	-0.705566	-0.529053	-0.142822	0.574826	0.430486	-0.594678	0.361407
61971		9.741434	0.393670	-0.738941	0.008925	-0.033675	-0.165175	-0.711670	-0.532471	-0.135986	0.575276	0.431833	-0.594025	0.360155
61972		9.627108	0.395284	-0.719599	0.002532	-0.041689	-0.193509	-0.702393	-0.539551	-0.132324	0.575757	0.433418	-0.593308	0.358662
61973		9.730518	0.185558	-0.781248	0.046241	-0.044535	-0.244639	-0.708740	-0.541748	-0.137695	0.576208	0.435763	-0.592088	0.357109
61974		9.821330	0.137947	-0.594844	0.038692	-0.027713	-0.299829	-0.698730	-0.540527	-0.133545	0.577102	0.438269	-0.590547	0.355145
61975		9.639915	-0.248508	-0.648697	0.091420	-0.030807	-0.387455	-0.702393	-0.549561	-0.133789	0.578015	0.441867	-0.588263	0.352985
61976		9.595817	-0.424508	-0.740044	0.104172	-0.046289	-0.512119	-0.695068	-0.558105	-0.137207	0.579291	0.446469	-0.585373	0.349892
61977		9.556536	-1.087290	-0.660820	0.071363	-0.063289	-0.679630	-0.678711	-0.565674	-0.127930	0.581376	0.452048	-0.581809	0.345185
61978		9.657545	-1.608564	-0.502369	-0.018836	-0.104356	-0.907026	-0.673584	-0.571533	-0.123291	0.584524	0.458867	-0.577517	0.338004
61979		9.357126	-1.471905	-0.183212	-0.016960	-0.142488	-1.173963	-0.655518	-0.595947	-0.138184	0.588350	0.467696	-0.571898	0.328691
61980		9.007304	0.430520	0.045581	0.112842	-0.224269	-1.396800	-0.636963	-0.621338	-0.122559	0.591774	0.479093	-0.564995	0.317889
61981		9.259944	0.225722	0.402408	-0.059706	-0.287770	-1.591316	-0.620361	-0.642090	-0.111328	0.596251	0.490800	-0.557800	0.304073
61982		9.045523	0.586656	-0.910806	0.028935	-0.358063	-1.811188	-0.591309	-0.664795	-0.102539	0.600164	0.504796	-0.549157	0.288810
61983		7.403226	4.226618	-2.599530	-0.110944	-0.357100	-1.815093	-0.568848	-0.683594	-0.098877	0.604645	0.517519	-0.540682	0.272472
61984		6.819811	6.845138	-3.192566	-0.227237	-0.153727	-1.563733	-0.524658	-0.702393	-0.093994	0.610127	0.526660	-0.532534	0.258422
61985		10.308045	2.519982	-2.716097	0.185107	0.064924	-1.355913	-0.514648	-0.718750	-0.087158	0.613489	0.536828	-0.522402	0.250089
61986		9.571300	4.059399	-2.250575	0.730618	-0.022566	-1.410115	-0.481934	-0.732910	-0.077881	0.612647	0.551519	-0.510786	0.244106
61987		6.912446	10.233517	-0.960884	0.697519	0.013376	-1.092217	-0.470459	-0.743164	-0.060303	0.611180	0.563604	-0.501036	0.240359
61988		8.744606	11.820372	-0.654328	0.635421	-0.071985	-0.363993	-0.464600	-0.745361	-0.054688	0.607334	0.570815	-0.497171	0.241113
61989		12.463591	14.446595	-2.573748	0.424755	-0.057964	0.383385	-0.477783	-0.736328	-0.040527	0.602793	0.571702	-0.499137	0.246294
61990		13.882635	16.300161	-2.691243	0.283268	-0.005529	1.259165	-0.498291	-0.733887	-0.044434	0.596799	0.565809	-0.507326	0.257512
61991		19.840488	9.391652	-1.692581	-0.082529	0.174384	1.995123	-0.532715	-0.715576	-0.041016	0.591901	0.551687	-0.520333	0.273035
61992		17.118289	3.836807	-0.930764	-0.666710	0.231928	2.273856	-0.564697	-0.685791	-0.060303	0.590005	0.530816	-0.536422	0.287018
61993		9.573637	0.371326	-1.425806	-1.410965	0.120203	2.668948	-0.603516	-0.644775	-0.089600	0.590196	0.501592	-0.557991	0.297860
61994		4.314799	-3.641893	-4.044410	-1.366340	0.504955	2.605213	-0.645996	-0.606934	-0.107178	0.592192	0.470995	-0.575361	0.310534
61995		4.070579	-2.700206	-0.247038	-0.059099	0.570366	1.516054	-0.653320	-0.586670	-0.110352	0.590644	0.457224	-0.580246	0.324654
61996		0.997218	3.130978	0.195328	0.260368	0.091709	0.498609	-0.667236	-0.577881	-0.102295	0.587790	0.455028	-0.581412	0.330776
61997		-0.053730	2.083546	-0.245939	-1.098006	-0.010154	0.117871	-0.670654	-0.580322	-0.128906	0.593424	0.445979	-0.586710	0.323607
61998		0.577586	-1.347077	0.729242	-0.919733	0.035941	-0.129099	-0.665039	-0.569580	-0.150146	0.599310	0.439799	-0.589478	0.316103
61999		0.954374	-1.101979	0.622629	-0.132633	-0.008122	-0.428669	-0.664551	-0.579590	-0.142090	0.601677	0.441858	-0.587767	0.311891
62000		1.234658	-1.351676	1.132393	0.115098	-0.008242	-0.713766	-0.644775	-0.574951	-0.142822	0.603749	0.447858	-0.583476	0.307354
62001		0.521429	0.364225	0.539166	-0.069306	0.029012	-0.998263	-0.637451	-0.610840	-0.148926	0.608149	0.454344	-0.577948	0.299505
62002		0.967393	2.319480	2.102140	-0.323987	-0.045683	-1.499770	-0.613525	-0.620850	-0.147949	0.615176	0.462680	-0.570941	0.285502
62003		12.105270	-11.476771	-9.975322	2.489881	-1.173562	-3.083495	-0.573486	-0.675293	-0.097412	0.602609	0.507268	-0.552544	0.272466
62004		19.320611	-1.837237	-5.207775	1.347812	-0.419701	-2.194648	-0.544678	-0.701904	-0.063232	0.598336	0.533601	-0.536994	0.262493
62005		23.001288	14.208575	-0.049072	0.178386	-0.155881	-1.753400	-0.504150	-0.725586	-0.069092	0.601712	0.546954	-0.525836	0.249560
62006		19.230426	25.984863	-2.673018	0.544315	-0.036246	-0.849769	-0.497070	-0.738770	-0.053223	0.600383	0.556565	-0.518651	0.246530
62007		16.949828	23.771877	-5.439104	-0.155856	0.087641	0.981299	-0.520020	-0.726074	-0.054199	0.598985	0.548595	-0.525344	0.253525
62008		21.706384	11.952561	-4.389619	-0.430177	0.393774	2.220189	-0.547363	-0.696045	-0.070557	0.597255	0.529200	-0.538856	0.269940
62009		17.807499	2.181053	-0.860103	-1.015235	0.443965	2.868932	-0.591553	-0.660156	-0.095703	0.596865	0.500283	-0.557646	0.287227
62010		6.535138	-6.181575	-5.497488	-1.250043	0.721341	3.331985	-0.643311	-0.616943	-0.122559	0.597164	0.464506	-0.577098	0.307551
62011		6.055517	-3.718129	-0.365136	0.518238	0.812975	1.911774	-0.667236	-0.580322	-0.126221	0.592482	0.451177	-0.580013	0.330136
62012		0.202440	8.163458	-2.142151	0.773763	-0.144326	-0.118806	-0.668213	-0.581543	-0.114014	0.587545	0.458226	-0.577269	0.334035
62013		0.394391	0.246069	0.797213	-0.834420	-0.271567	-0.557534	-0.665283	-0.588135	-0.124756	0.592658	0.457087	-0.579607	0.322309
62014		0.448093	0.266028	0.548748	-0.422641	-0.269095	-0.841809	-0.645508	-0.603027	-0.126221	0.596489	0.460969	-0.578553	0.311426
62015		0.946961	-0.992238	0.972771	-0.170923	-0.218876	-0.939625	-0.641357	-0.613281	-0.122559	0.599530	0.467175	-0.575492	0.301863
62016		1.089984	-0.884926	1.290626	-0.041669	-0.126456	-1.083132	-0.612061	-0.624268	-0.125732	0.602905	0.474963	-0.570306	0.292690
62017		0.910253	0.057395	1.167454	-0.453313	-0.143460	-1.194118	-0.595215	-0.645020	-0.132812	0.608891	0.480385	-0.565978	0.279554
62018		0.571892	-1.172852	0.306063	-0.481078	-0.134538	-1.290732	-0.586426	-0.658936	-0.142334	0.615279	0.486115	-0.560942	0.265458
62019		0.558331	-0.560090	1.446542	-0.433423	-0.023013	-1.444498	-0.559082	-0.676758	-0.151611	0.622461	0.492753	-0.553781	0.251124
62020		2.491330	-1.090367	0.761676	-0.181669	-0.089819	-1.684168	-0.530029	-0.698242	-0.150146	0.628139	0.503017	-0.544657	0.236143
62021		9.933781	3.920034	-5.866598	2.631099	-0.753315	-2.598481	-0.491455	-0.732422	-0.102783	0.613477	0.542880	-0.525959	0.228680
62022		16.747843	4.977846	-6.771913	0.013863	-0.439727	-1.521253	-0.471191	-0.751465	-0.104492	0.614763	0.553952	-0.519031	0.214034
62023		29.696643	9.043680	-4.077768	0.226873	-0.337390	-1.055047	-0.459229	-0.761719	-0.103760	0.613813	0.563167	-0.513881	0.204945
62024		28.670349	20.052075	-1.600318	0.651465	0.054823	-0.477619	-0.445068	-0.767822	-0.090088	0.610820	0.570840	-0.508629	0.205760
62025		20.853057	26.494295	-1.114121	0.117526	0.169453	0.887821	-0.464600	-0.760254	-0.086182	0.608776	0.565454	-0.513477	0.214465
62026		19.711004	13.684398	-6.117098	-0.868646	0.246660	2.249809	-0.492676	-0.732422	-0.102051	0.610218	0.543357	-0.529680	0.227677
62027		16.568751	2.396147	-2.134306	-2.059657	0.019270	3.214271	-0.551270	-0.690430	-0.145996	0.614520	0.505580	-0.556694	0.238424
62028		8.620987	-12.563378	-3.146838	-1.131005	0.831668	3.183070	-0.602295	-0.635742	-0.162109	0.617423	0.471658	-0.573339	0.260018
62029		6.554782	-6.204910	1.117657	1.834361	0.900043	1.064954	-0.604004	-0.632568	-0.137695	0.609342	0.474957	-0.566519	0.286662
62030		2.311410	4.997983	-1.260958	1.677427	-0.078392	-0.281356	-0.601318	-0.641846	-0.109863	0.599692	0.489820	-0.559321	0.295983
62031		-1.024033	2.383041	1.047567	0.450344	0.332281	0.151959	-0.605469	-0.643311	-0.103271	0.598674	0.490803	-0.556111	0.302394
62032		-1.181876	2.549354	-0.333373	0.134385	0.202218	0.839602	-0.619385	-0.629639	-0.102051	0.596036	0.485094	-0.559231	0.310942
62033		-0.579768	1.921410	-0.344553	-0.757203	0.375783	1.415547	-0.636963	-0.604492	-0.118164	0.597613	0.467907	-0.567868	0.318510
62034		-0.011939	0.889551	-0.215040	-1.328313	0.153025	1.454058	-0.653564	-0.572266	-0.137451	0.600483	0.446823	-0.580375	0.320833
62035		0.695967	-1.231847	0.098428	-1.308015	0.100136	1.255730	-0.680908	-0.560059	-0.163818	0.603310	0.427288	-0.591766	0.321332
62036		0.626995	-1.512341	-0.492240	-0.213248	0.068402	0.695591	-0.685547	-0.552002	-0.161865	0.602125	0.420155	-0.595825	0.325434
62037		0.801305	-1.410980	-1.093462	0.662247	0.105935	0.090250	-0.683350	-0.549316	-0.163330	0.599028	0.423952	-0.592801	0.331688
62038		0.585967	-0.957653	0.012626	0.708759	-0.015689	-0.628447	-0.672607	-0.561279	-0.157227	0.597716	0.433856	-0.586642	0.332198
62039		7.075084	5.653887	4.080363	-0.104669	-0.263506	-1.270837	-0.660889	-0.590820	-0.158691	0.601553	0.443325	-0.582117	0.320525
62040		12.360919	14.859097	-17.067217	0.521866	-1.868534	-4.195682	-0.601074	-0.637451	-0.120361	0.600885	0.484411	-0.569886	0.281981
62041		12.837070	0.133751	-1.929301	-3.516512	-0.498311	-1.214081	-0.587402	-0.644287	-0.176025	0.622260	0.467720	-0.578170	0.244435
62042		21.613841	1.938519	-2.542929	0.397932	0.439685	-0.927494	-0.581055	-0.665039	-0.179199	0.625926	0.475957	-0.568189	0.242577
62043		39.288723	-14.994567	10.110653	0.263421	0.663674	-1.597185	-0.556885	-0.683838	-0.172363	0.633798	0.487058	-0.552698	0.235794
62044		2.409566	31.708283	-4.928950	2.986084	-0.373629	-1.060088	-0.533936	-0.705566	-0.126221	0.615663	0.518610	-0.540019	0.245726
62045		5.025867	15.964729	-6.814350	-0.847258	0.270483	0.975321	-0.555908	-0.694336	-0.142090	0.619941	0.504421	-0.546918	0.249224
62046		13.661589	-3.321439	1.109291	0.698259	0.273556	0.986797	-0.572266	-0.681396	-0.138428	0.614287	0.502000	-0.548930	0.263294
62047		9.588268	6.673424	-1.574617	0.866854	0.268262	0.919140	-0.581543	-0.675537	-0.127441	0.607621	0.501213	-0.549862	0.277911
62048		6.852019	4.777919	-0.235482	0.044914	0.176591	1.265708	-0.595459	-0.656494	-0.133789	0.604124	0.492004	-0.556362	0.288838
62049		8.825548	2.778029	1.255907	-0.008987	0.155117	1.340500	-0.618652	-0.641113	-0.142334	0.600403	0.481793	-0.563539	0.299693
62050		9.487845	-2.596283	-0.430700	-0.042366	0.140824	1.072157	-0.631348	-0.616943	-0.143555	0.597671	0.473137	-0.569210	0.308108
62051		9.785983	-2.999703	-1.534402	0.083302	0.129537	0.570559	-0.646484	-0.610352	-0.146973	0.595965	0.468982	-0.571431	0.313605
62052		9.998149	-3.344112	-1.276886	0.422401	0.034894	0.196123	-0.638428	-0.614746	-0.139404	0.593031	0.470371	-0.570811	0.318182
62053		10.287153	-0.655570	-0.803267	0.348839	0.035256	0.027543	-0.649902	-0.614258	-0.140625	0.591204	0.472411	-0.569468	0.320955
62054		9.605237	3.545461	-0.794480	0.609240	0.107196	0.006738	-0.643799	-0.616699	-0.122559	0.588403	0.476203	-0.566416	0.325862
62055		9.106458	3.882104	-0.270273	1.044877	0.171465	0.040466	-0.648438	-0.615723	-0.116943	0.583229	0.482696	-0.561206	0.334509
62056		8.968459	3.397403	-1.094733	0.594334	0.174433	0.290784	-0.654297	-0.614502	-0.106934	0.579683	0.484059	-0.559318	0.341786
62057		8.276531	4.429212	-0.692091	0.317750	0.202093	0.530221	-0.658447	-0.606201	-0.107422	0.576927	0.481613	-0.559803	0.349035
62058		8.624951	5.583743	-0.433781	-0.889768	-0.005157	0.765866	-0.672363	-0.595947	-0.125000	0.578888	0.469640	-0.568394	0.348217
62059		8.831386	3.189165	0.616324	-1.075498	-0.041802	0.879725	-0.679932	-0.580566	-0.138428	0.581049	0.455531	-0.578592	0.346561
62060		10.002295	-1.418512	0.485625	-0.797552	-0.014350	0.793597	-0.690918	-0.562988	-0.143555	0.582057	0.443833	-0.586735	0.346359
62061		9.954782	-1.515079	-1.047961	-0.110952	-0.111847	0.581272	-0.699463	-0.558838	-0.150146	0.579356	0.439083	-0.591324	0.349124
62062		9.693163	-0.278406	-2.317944	-0.060251	-0.087682	0.425978	-0.695557	-0.550781	-0.155273	0.577229	0.435697	-0.594657	0.351223
62063		9.761317	-1.376476	-1.545113	-0.051229	-0.033957	0.358262	-0.708252	-0.544189	-0.154053	0.575733	0.432632	-0.597180	0.353182
62064		10.027823	0.743519	-0.318366	0.272417	-0.062201	0.267033	-0.707031	-0.539795	-0.147217	0.572633	0.432720	-0.597945	0.356800
62065		10.101906	1.406406	-0.884659	0.067491	-0.060245	0.284981	-0.713379	-0.533936	-0.146240	0.570554	0.431205	-0.599684	0.359040
62066		9.756809	0.224006	-1.159159	0.141235	-0.056506	0.277624	-0.719727	-0.528320	-0.145020	0.568126	0.430251	-0.601014	0.361801
62067		9.596689	0.435656	-1.495059	0.050407	-0.059677	0.272679	-0.723145	-0.533936	-0.151855	0.566175	0.428697	-0.602741	0.363823
62068		10.185514	0.021275	-0.953696	-0.127832	-0.069522	0.230944	-0.728516	-0.522461	-0.148193	0.565290	0.426234	-0.605120	0.364145
62069		9.789747	-0.512961	-1.115636	-0.150356	-0.030352	0.171455	-0.730469	-0.527832	-0.150635	0.565083	0.423881	-0.606999	0.364085
62070		9.538055	-0.424368	-1.749196	-0.132750	-0.010277	0.096508	-0.730469	-0.515625	-0.160156	0.565272	0.422126	-0.608255	0.363735
62071		9.579507	-0.822682	-0.689008	-0.106910	-0.009909	0.018437	-0.728271	-0.518555	-0.144775	0.565680	0.421143	-0.608979	0.363028
62072		9.736179	-0.223081	-0.581515	0.110422	-0.033005	-0.064643	-0.734131	-0.526855	-0.153809	0.565142	0.422435	-0.608439	0.363271
62073		9.787906	0.304190	-1.089154	0.098672	-0.027781	-0.099284	-0.726074	-0.527344	-0.144775	0.564862	0.423882	-0.607729	0.363208
62074		9.704236	0.763598	-1.419120	0.019346	0.014307	-0.100859	-0.729736	-0.518555	-0.147217	0.565327	0.424590	-0.607073	0.362754
62075		9.621754	0.830750	-1.239030	-0.126608	0.034195	-0.079098	-0.725342	-0.525146	-0.144043	0.566619	0.424008	-0.607055	0.361448
62076		9.618769	0.423365	-0.656893	-0.066040	0.019133	-0.060115	-0.722656	-0.528809	-0.143555	0.567388	0.423778	-0.606970	0.360653
62077		9.722960	0.308191	-0.551035	0.035227	-0.001595	-0.062071	-0.716797	-0.520996	-0.151367	0.567472	0.424376	-0.606563	0.360503
62078		9.743014	0.631487	-1.136260	0.060584	0.007714	-0.056312	-0.717041	-0.524902	-0.148926	0.567466	0.425066	-0.606005	0.360637
62079		9.727310	0.533688	-1.100358	-0.011005	0.017746	-0.050153	-0.715088	-0.524170	-0.148193	0.567888	0.425157	-0.605732	0.360325
62080		9.692343	0.313155	-1.080496	-0.025124	0.012517	-0.062572	-0.725342	-0.523682	-0.145752	0.568402	0.425265	-0.605493	0.359788
62081		9.710026	0.406745	-0.998667	-0.029480	0.026423	-0.075762	-0.723877	-0.525391	-0.154541	0.569101	0.425378	-0.605106	0.359199
62082		9.715147	0.676824	-0.835402	-0.038056	0.028759	-0.066358	-0.722412	-0.523926	-0.153564	0.569823	0.425347	-0.604791	0.358623
62083		9.761378	0.599912	-0.953143	0.002059	0.030414	-0.054696	-0.719482	-0.523682	-0.151855	0.570290	0.425506	-0.604345	0.358442
62084		9.720439	0.961119	-0.879323	-0.036164	0.032944	-0.032271	-0.724854	-0.520508	-0.146973	0.570879	0.425213	-0.604172	0.358145
62085		9.706940	0.383265	-0.938592	-0.027563	0.032458	-0.025589	-0.719482	-0.525879	-0.150879	0.571386	0.424933	-0.603999	0.357959
62086		9.778288	0.361079	-1.020774	0.030321	0.032019	-0.038136	-0.711182	-0.530762	-0.148682	0.571640	0.425164	-0.603502	0.358117
62087		9.800668	0.505054	-0.964464	0.011984	0.048329	-0.042306	-0.714111	-0.526123	-0.157227	0.572133	0.425226	-0.602945	0.358195
62088		9.714738	0.698915	-0.903339	-0.000480	0.053294	-0.040576	-0.714111	-0.527832	-0.158691	0.572724	0.425156	-0.602422	0.358213
62089		9.706658	0.574389	-0.830466	-0.044668	0.050526	-0.034344	-0.717041	-0.529053	-0.156006	0.573501	0.424736	-0.602149	0.357928
62090		9.711444	0.563193	-0.755792	0.000737	0.049873	-0.036048	-0.710449	-0.534668	-0.156250	0.574036	0.424659	-0.601668	0.357970
62091		9.729702	0.770214	-0.840817	-0.024717	0.039123	-0.026659	-0.720459	-0.543213	-0.162842	0.574584	0.424380	-0.601423	0.357834
62092		9.747953	0.545682	-0.934123	-0.014105	0.044546	-0.019848	-0.716797	-0.526367	-0.157715	0.575088	0.424100	-0.601128	0.357852
62093		9.732391	0.768403	-0.799802	-0.010198	0.036243	-0.015022	-0.711670	-0.531250	-0.155273	0.575483	0.423845	-0.600907	0.357890
62094		9.734638	0.481396	-0.763161	-0.020262	0.020437	-0.009807	-0.716064	-0.533447	-0.158203	0.575789	0.423555	-0.600867	0.357809
62095		9.776338	0.410743	-0.709993	0.060572	0.006976	-0.016297	-0.719482	-0.532227	-0.160645	0.575595	0.423954	-0.600529	0.358216
62096		9.760053	0.563931	-0.768588	0.029913	0.027884	-0.020428	-0.712402	-0.523193	-0.166260	0.575740	0.424066	-0.600158	0.358473
62097		9.705580	0.588541	-0.782679	0.029655	0.030162	-0.024000	-0.715332	-0.534424	-0.159424	0.575924	0.424184	-0.599757	0.358707
62098		9.733799	0.658533	-0.669932	-0.007968	0.024172	-0.025436	-0.710938	-0.530029	-0.161865	0.576264	0.424081	-0.599552	0.358626
62099		9.699517	0.545251	-0.704803	-0.008382	0.024799	-0.022353	-0.714355	-0.533203	-0.167725	0.576598	0.423946	-0.599363	0.358564
62100		9.695706	0.669884	-0.832983	0.059426	0.014797	-0.018249	-0.708008	-0.523438	-0.157715	0.576483	0.424309	-0.598965	0.358984
62101		9.721221	0.644428	-0.906244	-0.008903	0.002753	-0.007213	-0.712646	-0.528564	-0.158691	0.576584	0.424156	-0.599019	0.358914
62102		9.755394	0.635508	-0.647212	0.038949	0.022106	-0.013109	-0.714111	-0.523926	-0.163330	0.576602	0.424307	-0.598686	0.359262
62103		9.746774	0.677494	-0.654658	-0.022202	0.022591	-0.007240	-0.714111	-0.533936	-0.164062	0.576926	0.423961	-0.598662	0.359190
62104		9.717633	0.527321	-0.705150	0.006045	0.023629	-0.007938	-0.710205	-0.530029	-0.157227	0.577110	0.423828	-0.598491	0.359335
62105		9.649649	0.660174	-0.708659	-0.007104	0.020196	-0.006179	-0.715088	-0.525879	-0.168701	0.577324	0.423610	-0.598410	0.359384
62106		9.692315	0.576299	-0.731572	-0.008695	0.013656	-0.009336	-0.720703	-0.527100	-0.167725	0.577523	0.423413	-0.598380	0.359347
62107		9.757776	0.607313	-0.743499	0.002410	0.021275	-0.010410	-0.712158	-0.540771	-0.161377	0.577721	0.423272	-0.598239	0.359428
62108		9.755144	0.721656	-0.716658	-0.037527	0.025314	-0.006832	-0.710938	-0.530518	-0.163086	0.578139	0.422822	-0.598246	0.359275
62109		9.698374	0.598255	-0.678734	-0.026536	0.018942	-0.002509	-0.718750	-0.531494	-0.169922	0.578432	0.422439	-0.598282	0.359195
62110		9.695654	0.710751	-0.653619	-0.031838	0.010906	0.001517	-0.721680	-0.520752	-0.165527	0.578681	0.422011	-0.598428	0.359052
62111		9.716412	0.567106	-0.691846	-0.048113	0.011229	0.006422	-0.703369	-0.523193	-0.168457	0.578989	0.421424	-0.598679	0.358826
62112		9.768375	0.575974	-0.686874	-0.026216	0.011918	0.004722	-0.713135	-0.524658	-0.166016	0.579202	0.421013	-0.598805	0.358757
62113		9.747491	0.626817	-0.725323	-0.045132	0.010326	0.007763	-0.719238	-0.528564	-0.167969	0.579481	0.420452	-0.599044	0.358565
62114		9.721263	0.522905	-0.741005	-0.038370	0.006698	0.006530	-0.712158	-0.527344	-0.173340	0.579702	0.419966	-0.599272	0.358395
62115		9.705612	0.502413	-0.708733	-0.023424	-0.000750	0.001625	-0.713867	-0.529785	-0.172852	0.579820	0.419653	-0.599461	0.358255
62116		9.738276	0.599390	-0.675874	-0.008563	-0.002586	-0.000412	-0.717285	-0.520508	-0.169678	0.579854	0.419475	-0.599582	0.358205
62117		9.740627	0.643346	-0.657783	-0.011100	0.005576	0.005712	-0.715576	-0.524414	-0.165527	0.579929	0.419189	-0.599700	0.358222
62118		9.719164	0.549789	-0.659529	-0.012494	0.003503	0.007651	-0.715576	-0.522949	-0.174316	0.579979	0.418904	-0.599836	0.358245
62119		9.748101	0.612972	-0.663697	-0.005071	0.000899	0.007027	-0.718750	-0.527588	-0.176270	0.579989	0.418670	-0.599966	0.358287
62120		9.733227	0.526300	-0.685942	-0.023002	-0.000243	0.010680	-0.719971	-0.530518	-0.175781	0.580069	0.418285	-0.600199	0.358215
62121		9.728514	0.388489	-0.677099	-0.007511	-0.012811	-0.001478	-0.719727	-0.531738	-0.179688	0.580026	0.418167	-0.600386	0.358111
62122		9.770945	0.517131	-0.670922	0.013228	-0.009766	-0.009532	-0.716309	-0.526367	-0.169434	0.579940	0.418239	-0.600417	0.358113
62123		9.788797	0.583177	-0.686353	-0.002755	-0.005542	-0.003571	-0.715820	-0.525146	-0.173828	0.579926	0.418149	-0.600514	0.358080
62124		9.732703	0.572765	-0.662699	0.008082	-0.009691	-0.005915	-0.709473	-0.522461	-0.173096	0.579843	0.418162	-0.600586	0.358078
62125		9.712394	0.517567	-0.693779	0.009764	-0.012704	-0.005733	-0.723389	-0.522217	-0.174072	0.579729	0.418201	-0.600670	0.358075
62126		9.737939	0.612826	-0.720940	0.013789	-0.010397	-0.005427	-0.722412	-0.526611	-0.166016	0.579608	0.418244	-0.600738	0.358108
62127		9.727293	0.617489	-0.711336	-0.000135	-0.014288	-0.000276	-0.721680	-0.531982	-0.174805	0.579491	0.418192	-0.600904	0.358078
62128		9.730276	0.510260	-0.715114	0.006621	-0.014000	-0.001373	-0.721436	-0.529053	-0.161377	0.579364	0.418184	-0.601033	0.358078
62129		9.743712	0.481890	-0.690594	0.006702	-0.014004	-0.004505	-0.715088	-0.532471	-0.173828	0.579223	0.418229	-0.601132	0.358086
62130		9.748624	0.545798	-0.702386	0.018763	-0.010449	-0.002809	-0.717041	-0.518555	-0.175537	0.579067	0.418313	-0.601161	0.358191
62131		9.717560	0.619882	-0.746368	0.007970	-0.009114	-0.001885	-0.717285	-0.528320	-0.170410	0.578980	0.418270	-0.601268	0.358202
62132		9.709461	0.499007	-0.724262	0.007789	-0.014980	-0.000990	-0.723145	-0.521973	-0.169189	0.578833	0.418279	-0.601396	0.358215
62133		9.754230	0.501639	-0.707436	0.023189	-0.017715	-0.004567	-0.715088	-0.522949	-0.178467	0.578597	0.418424	-0.601475	0.358294
62134		9.774839	0.537478	-0.706432	0.018777	-0.018289	-0.003084	-0.718750	-0.525635	-0.169434	0.578399	0.418510	-0.601586	0.358326
62135		9.742493	0.580478	-0.705474	0.020461	-0.014007	-0.003564	-0.713379	-0.522949	-0.175293	0.578205	0.418620	-0.601642	0.358417
62136		9.722128	0.523961	-0.737013	0.006723	-0.013718	0.001115	-0.708740	-0.520752	-0.175537	0.578081	0.418576	-0.601790	0.358421
62137		9.722632	0.541535	-0.752879	0.017706	-0.011422	-0.001251	-0.713379	-0.525146	-0.168945	0.577931	0.418617	-0.601858	0.358500
62138		9.722667	0.493678	-0.710263	0.008967	-0.012589	-0.001395	-0.715088	-0.529053	-0.166992	0.577801	0.418626	-0.601960	0.358529
62139		9.752796	0.516080	-0.763904	0.022113	-0.016440	-0.002489	-0.718994	-0.522461	-0.171387	0.577572	0.418767	-0.602015	0.358640
62140		9.766700	0.462083	-0.783378	0.019671	-0.013057	-0.006154	-0.717529	-0.519531	-0.173584	0.577409	0.418870	-0.602065	0.358697
62141		9.747991	0.555022	-0.733850	0.015437	-0.009454	-0.005168	-0.724854	-0.524170	-0.169434	0.577299	0.418907	-0.602122	0.358736
62142		9.730920	0.483587	-0.778980	0.014123	-0.011533	-0.006352	-0.719482	-0.520752	-0.167480	0.577171	0.418967	-0.602188	0.358761
62143		9.709450	0.489003	-0.778392	0.020093	-0.015903	-0.009780	-0.717773	-0.520996	-0.165039	0.576992	0.419120	-0.602236	0.358788
62144		9.760187	0.565503	-0.728313	0.028996	-0.017819	-0.009509	-0.729004	-0.522705	-0.162842	0.576747	0.419354	-0.602254	0.358882
62145		9.766270	0.574215	-0.752236	0.011419	-0.015675	-0.005591	-0.713623	-0.527588	-0.167725	0.576581	0.419418	-0.602366	0.358884
62146		9.737489	0.523231	-0.784737	0.016379	-0.015147	-0.002073	-0.713135	-0.531006	-0.162598	0.576401	0.419499	-0.602443	0.358950
62147		9.726094	0.440495	-0.838136	0.020812	-0.019044	-0.004621	-0.718262	-0.522461	-0.166504	0.576166	0.419675	-0.602496	0.359033
62148		9.731689	0.514363	-0.808705	0.012034	-0.013236	-0.011032	-0.727295	-0.520508	-0.159424	0.576060	0.419768	-0.602551	0.359002
62149		9.738391	0.437419	-0.795730	0.009223	-0.017656	-0.012755	-0.728516	-0.521240	-0.162598	0.575918	0.419882	-0.602650	0.358928
62150		9.735888	0.440498	-0.786381	0.015633	-0.016486	-0.021786	-0.722168	-0.524414	-0.160889	0.575803	0.420093	-0.602671	0.358833
62151		9.741428	0.531172	-0.790469	0.014473	-0.010468	-0.023361	-0.723145	-0.524658	-0.166260	0.575744	0.420300	-0.602624	0.358763
62152		9.723514	0.567836	-0.772143	0.005663	-0.006046	-0.020609	-0.722656	-0.521240	-0.162109	0.575770	0.420381	-0.602612	0.358648
62153		9.738610	0.540217	-0.780636	0.014390	-0.006522	-0.020116	-0.718018	-0.529297	-0.162109	0.575731	0.420529	-0.602568	0.358609
62154		9.721086	0.550197	-0.804854	0.005941	-0.001593	-0.018633	-0.718750	-0.526855	-0.164062	0.575770	0.420610	-0.602504	0.358560
62155		9.754842	0.499890	-0.790649	0.005275	-0.007665	-0.018036	-0.719971	-0.520996	-0.172607	0.575769	0.420693	-0.602503	0.358466
62156		9.737519	0.553490	-0.784935	-0.001267	-0.008288	-0.018440	-0.716309	-0.523682	-0.159912	0.575830	0.420680	-0.602571	0.358268
62157		9.722103	0.512393	-0.799080	-0.006595	-0.009339	-0.020684	-0.718994	-0.517578	-0.160645	0.575879	0.420716	-0.602619	0.358067
62158		9.717102	0.593901	-0.755522	-0.005268	-0.012845	-0.019237	-0.711426	-0.533203	-0.173096	0.575890	0.420740	-0.602719	0.357852
62159		9.782326	0.548715	-0.792791	0.005168	0.000201	-0.014669	-0.718262	-0.521484	-0.166504	0.575970	0.420749	-0.602668	0.357799
62160		9.726460	0.731111	-0.753544	-0.006021	0.005736	-0.002584	-0.718262	-0.517578	-0.165039	0.576070	0.420547	-0.602725	0.357779
62161		9.727441	0.461457	-0.784044	-0.006521	-0.001194	-0.001314	-0.713867	-0.520996	-0.163574	0.576109	0.420360	-0.602848	0.357729
62162		9.729319	0.450067	-0.764073	0.017447	-0.002341	-0.006480	-0.712891	-0.527588	-0.156250	0.576033	0.420414	-0.602821	0.357834
62163		9.731477	0.566132	-0.785306	0.010429	-0.003756	-0.008107	-0.713623	-0.517334	-0.164795	0.575963	0.420490	-0.602788	0.357912
62164		9.726624	0.518110	-0.811526	0.011167	-0.006644	-0.010780	-0.712891	-0.532715	-0.163574	0.575914	0.420531	-0.602813	0.357901
62165		9.736325	0.529625	-0.748291	0.002121	-0.006147	-0.012220	-0.717041	-0.524414	-0.164551	0.575916	0.420570	-0.602814	0.357850
62166		9.783426	0.466249	-0.817025	0.007309	-0.004792	-0.011569	-0.717773	-0.526855	-0.165039	0.575901	0.420598	-0.602823	0.357826
62167		9.733784	0.573767	-0.838906	0.003291	0.001265	-0.013821	-0.714355	-0.515381	-0.163818	0.575963	0.420592	-0.602789	0.357790
62168		9.722329	0.545661	-0.800501	0.002098	-0.000550	-0.012498	-0.722900	-0.527100	-0.166016	0.576012	0.420548	-0.602810	0.357728
62169		9.716892	0.563393	-0.771941	0.010421	0.004640	-0.010098	-0.718018	-0.524414	-0.167480	0.576046	0.420539	-0.602752	0.357782
62170		9.731618	0.554335	-0.755651	0.007993	0.003813	-0.006018	-0.719971	-0.522949	-0.160889	0.576077	0.420476	-0.602735	0.357834
62171		9.736808	0.484168	-0.780204	0.016510	-0.001097	-0.010655	-0.715332	-0.522705	-0.157471	0.576019	0.420559	-0.602682	0.357920
62172		9.758232	0.500843	-0.797750	0.015895	-0.001589	-0.013471	-0.724121	-0.532227	-0.163574	0.575963	0.420683	-0.602603	0.357998
62173		9.740891	0.553083	-0.790388	0.005137	0.000772	-0.013774	-0.717285	-0.523926	-0.167236	0.576000	0.420708	-0.602555	0.357989
62174		9.730499	0.547288	-0.743358	0.009986	0.001056	-0.012765	-0.715576	-0.521240	-0.167725	0.576031	0.420722	-0.602514	0.357992
62175		9.721357	0.563223	-0.800145	0.017027	-0.003101	-0.010869	-0.722900	-0.533936	-0.166016	0.575989	0.420780	-0.602489	0.358031
62176		9.741388	0.526259	-0.779450	0.010403	-0.001492	-0.007607	-0.715332	-0.523193	-0.161621	0.575966	0.420801	-0.602466	0.358085
62177		9.744704	0.512433	-0.793755	0.001371	0.003448	-0.011150	-0.718994	-0.532715	-0.168945	0.576032	0.420758	-0.602439	0.358075
62178		9.734314	0.519479	-0.780245	0.005109	0.003015	-0.013267	-0.723145	-0.525391	-0.161865	0.576110	0.420751	-0.602380	0.358057
62179		9.728321	0.576922	-0.741938	-0.005668	0.004250	-0.012254	-0.721191	-0.525879	-0.165283	0.576217	0.420657	-0.602382	0.357990
62180		9.735057	0.503884	-0.801324	0.015356	-0.002339	-0.011569	-0.717773	-0.525879	-0.163574	0.576176	0.420727	-0.602345	0.358037
62181		9.732813	0.518925	-0.822636	0.020464	-0.002368	-0.015258	-0.713135	-0.521484	-0.168945	0.576120	0.420876	-0.602253	0.358107
62182		9.750307	0.565447	-0.748528	0.016072	-0.002979	-0.013732	-0.720459	-0.525879	-0.161377	0.576105	0.420944	-0.602216	0.358113
62183		9.702956	0.564327	-0.755630	0.000016	0.002484	-0.010503	-0.721924	-0.528076	-0.168701	0.576160	0.420894	-0.602208	0.358097
62184		9.737135	0.582066	-0.777737	-0.007224	-0.002558	-0.007536	-0.718262	-0.519043	-0.170410	0.576235	0.420756	-0.602300	0.357984
62185		9.720543	0.480544	-0.773348	-0.005304	-0.006415	-0.009824	-0.719727	-0.522705	-0.170166	0.576291	0.420631	-0.602429	0.357823
62186		9.738343	0.513101	-0.777884	0.009511	-0.009207	-0.010698	-0.715332	-0.520508	-0.164062	0.576250	0.420644	-0.602497	0.357761
62187		9.748690	0.573228	-0.774493	0.000428	-0.003155	-0.012414	-0.721680	-0.518311	-0.161865	0.576283	0.420615	-0.602529	0.357685
62188		9.766931	0.505214	-0.803940	0.008369	0.004903	-0.009551	-0.711670	-0.527100	-0.170898	0.576306	0.420582	-0.602499	0.357739
62189		9.733301	0.571279	-0.775602	-0.004553	0.006075	-0.010451	-0.720703	-0.524414	-0.162598	0.576465	0.420446	-0.602489	0.357660
62190		9.706507	0.487295	-0.791002	0.002251	-0.001400	-0.011847	-0.716553	-0.521240	-0.171631	0.576485	0.420435	-0.602496	0.357629
62191		9.685219	0.568633	-0.804276	0.007755	-0.006499	-0.016532	-0.724365	-0.524658	-0.173584	0.576509	0.420458	-0.602524	0.357516
62192		9.700696	0.540396	-0.812910	-0.002290	-0.009286	-0.016870	-0.715332	-0.528320	-0.162598	0.576571	0.420407	-0.602630	0.357296
62193		9.734636	0.473317	-0.786624	0.007381	-0.008420	-0.022741	-0.720947	-0.523926	-0.174561	0.576566	0.420568	-0.602582	0.357197
62194		9.765082	0.497794	-0.762527	0.010146	-0.009850	-0.026407	-0.717041	-0.519287	-0.166016	0.576610	0.420674	-0.602587	0.356991
62195		9.751456	0.559338	-0.763048	0.007063	-0.005589	-0.025420	-0.714355	-0.526367	-0.153076	0.576651	0.420785	-0.602555	0.356849
62196		9.708502	0.585337	-0.790109	0.015636	-0.004020	-0.026945	-0.709229	-0.529541	-0.165527	0.576601	0.421078	-0.602385	0.356871
62197		9.706456	0.607938	-0.790399	0.012194	-0.003068	-0.022960	-0.716064	-0.522949	-0.169922	0.576636	0.421237	-0.602274	0.356814
62198		9.748325	0.605862	-0.800299	0.022072	-0.006654	-0.019478	-0.713135	-0.519775	-0.169189	0.576591	0.421391	-0.602222	0.356791
62199		9.747668	0.653786	-0.771252	0.006855	-0.003300	-0.015478	-0.719238	-0.526611	-0.157715	0.576632	0.421389	-0.602238	0.356701
62200		9.733916	0.571332	-0.792558	-0.006388	-0.000162	-0.008911	-0.716553	-0.529297	-0.169678	0.576670	0.421321	-0.602270	0.356666
62201		9.723760	0.534073	-0.810347	-0.003645	-0.001025	-0.011661	-0.717285	-0.526367	-0.167480	0.576771	0.421223	-0.602315	0.356543
62202		9.724552	0.547046	-0.768521	-0.001496	-0.005737	-0.016429	-0.716309	-0.522949	-0.162598	0.576831	0.421205	-0.602361	0.356390
62203		9.723387	0.529247	-0.778530	0.005995	-0.007118	-0.021604	-0.719482	-0.538330	-0.162842	0.576833	0.421315	-0.602344	0.356285
62204		9.746129	0.611043	-0.793586	0.008020	-0.007335	-0.022197	-0.717529	-0.525635	-0.163086	0.576835	0.421481	-0.602276	0.356202
62205		9.749009	0.582371	-0.796831	0.007456	-0.005870	-0.019763	-0.712891	-0.522461	-0.166504	0.576835	0.421579	-0.602253	0.356123
62206		9.721609	0.539581	-0.805013	0.003643	-0.006856	-0.021980	-0.718750	-0.527588	-0.161865	0.576881	0.421642	-0.602259	0.355964
62207		9.734040	0.595071	-0.759848	0.003110	-0.004841	-0.021780	-0.717773	-0.528076	-0.163818	0.576914	0.421731	-0.602231	0.355853
62208		9.743968	0.596047	-0.773594	0.008933	-0.002388	-0.020564	-0.721436	-0.524414	-0.164795	0.576941	0.421829	-0.602172	0.355793
62209		9.702891	0.620802	-0.813517	0.011212	-0.000948	-0.017454	-0.718018	-0.529785	-0.170166	0.576954	0.421885	-0.602137	0.355763
62210		9.721930	0.542064	-0.809349	-0.001114	-0.003547	-0.021287	-0.714355	-0.527344	-0.165283	0.577070	0.421873	-0.602152	0.355565
62211		9.744620	0.593556	-0.776594	0.006642	-0.004929	-0.022369	-0.716797	-0.528809	-0.155273	0.577110	0.421970	-0.602114	0.355449
62212		9.735768	0.700053	-0.786817	0.009568	-0.002438	-0.018672	-0.713867	-0.527588	-0.169678	0.577072	0.422130	-0.602020	0.355480
62213		9.731532	0.635679	-0.799111	0.004268	-0.003261	-0.012079	-0.714600	-0.525635	-0.150391	0.577121	0.422087	-0.602056	0.355391
62214		9.735152	0.592011	-0.767028	-0.010713	-0.002514	-0.010124	-0.716553	-0.528809	-0.159912	0.577119	0.422071	-0.602081	0.355369
62215		9.747798	0.564789	-0.838015	0.003107	-0.007876	-0.009017	-0.715332	-0.528809	-0.154541	0.577060	0.422098	-0.602128	0.355353
62216		9.745752	0.584125	-0.839056	0.012710	-0.005821	-0.013094	-0.716553	-0.527100	-0.166016	0.576952	0.422262	-0.602068	0.355437
62217		9.712360	0.563711	-0.762465	0.000481	-0.003702	-0.016536	-0.711426	-0.521729	-0.167236	0.577013	0.422247	-0.602095	0.355309
62218		9.697714	0.552494	-0.822005	-0.001791	-0.002911	-0.022295	-0.713623	-0.528076	-0.167725	0.577131	0.422232	-0.602113	0.355106
62219		9.701177	0.643135	-0.824905	0.012353	-0.008292	-0.020243	-0.711182	-0.530273	-0.158203	0.577125	0.422347	-0.602096	0.355008
62220		9.714671	0.694016	-0.815330	0.005928	-0.007058	-0.018504	-0.716064	-0.526123	-0.166504	0.577094	0.422491	-0.602047	0.354969
62221		9.736450	0.620411	-0.804050	0.004635	-0.002175	-0.015620	-0.710693	-0.525146	-0.158691	0.577145	0.422479	-0.602061	0.354877
62222		9.740389	0.612869	-0.797325	0.003904	0.001252	-0.015179	-0.712158	-0.522705	-0.156494	0.577177	0.422519	-0.602005	0.354873
62223		9.744306	0.587673	-0.777207	-0.001140	0.001218	-0.014615	-0.716553	-0.527832	-0.165283	0.577216	0.422521	-0.601982	0.354846
62224		9.692025	0.642200	-0.760708	0.007053	-0.002980	-0.019343	-0.718750	-0.529053	-0.151123	0.577255	0.422575	-0.601959	0.354756
62225		9.717849	0.623067	-0.815466	0.013920	-0.005077	-0.016298	-0.715088	-0.517578	-0.169434	0.577130	0.422789	-0.601867	0.354861
62226		9.712693	0.615272	-0.832580	0.017298	-0.008209	-0.014512	-0.715088	-0.531006	-0.158203	0.577092	0.422808	-0.601940	0.354777
62227		9.703669	0.689770	-0.797043	0.007235	-0.008848	-0.014299	-0.718262	-0.535645	-0.159424	0.577018	0.422928	-0.601932	0.354766
62228		9.734252	0.645378	-0.810988	0.009081	-0.002335	-0.010193	-0.715088	-0.534424	-0.168457	0.576971	0.423007	-0.601883	0.354833
62229		9.729804	0.623454	-0.792515	0.001473	-0.001276	-0.007503	-0.714111	-0.529297	-0.160156	0.577025	0.422927	-0.601917	0.354783
62230		9.712742	0.652330	-0.807717	0.010715	-0.001939	-0.007665	-0.714355	-0.530518	-0.168945	0.576972	0.422966	-0.601896	0.354857
62231		9.721204	0.565233	-0.833504	0.006580	-0.005143	-0.008182	-0.711914	-0.527100	-0.162598	0.576980	0.422920	-0.601954	0.354801
62232		9.741936	0.647957	-0.813607	0.017503	-0.005416	-0.008979	-0.716797	-0.529785	-0.159180	0.576892	0.423003	-0.601939	0.354870
62233		9.720526	0.652713	-0.810883	0.009077	-0.005671	-0.006227	-0.711914	-0.531250	-0.166992	0.576805	0.423039	-0.601962	0.354929
62234		9.732584	0.615449	-0.811759	0.009564	0.003765	-0.004510	-0.717041	-0.527588	-0.167725	0.576841	0.422972	-0.601941	0.354988
62235		9.756718	0.605599	-0.773372	0.004801	0.003698	0.000179	-0.714111	-0.528809	-0.158936	0.576880	0.422796	-0.602007	0.355021
62236		9.730806	0.615114	-0.796890	0.003706	0.000181	-0.001229	-0.718262	-0.532227	-0.163574	0.576844	0.422738	-0.602030	0.355112
62237		9.720468	0.637172	-0.796945	0.002371	0.001428	-0.003210	-0.717041	-0.528320	-0.164795	0.576860	0.422646	-0.602056	0.355149
62238		9.718812	0.552958	-0.809022	0.005281	-0.002491	-0.002648	-0.714844	-0.530762	-0.164551	0.576840	0.422560	-0.602125	0.355168
62239		9.740933	0.613053	-0.810522	0.008019	-0.003330	-0.005417	-0.714355	-0.530762	-0.165039	0.576811	0.422541	-0.602149	0.355197
62240		9.738957	0.613363	-0.797572	0.007306	-0.001582	-0.004571	-0.713379	-0.531250	-0.165527	0.576800	0.422499	-0.602168	0.355231
62241		9.723268	0.584719	-0.808423	0.002565	0.001126	-0.004775	-0.712891	-0.527832	-0.162109	0.576841	0.422414	-0.602184	0.355239
62242		9.746851	0.553117	-0.778268	0.003141	0.006090	-0.004086	-0.717285	-0.528076	-0.157715	0.576887	0.422323	-0.602163	0.355309
62243		9.755323	0.549641	-0.776475	0.002587	0.001678	-0.007019	-0.718994	-0.529541	-0.162598	0.576877	0.422304	-0.602148	0.355374
62244		9.752851	0.598574	-0.822424	0.007109	0.004286	-0.009636	-0.709717	-0.524414	-0.169434	0.576908	0.422284	-0.602103	0.355424
62245		9.728889	0.647461	-0.773625	-0.000383	0.001412	-0.010207	-0.724365	-0.523682	-0.161133	0.577023	0.422155	-0.602146	0.355316
62246		9.704726	0.607250	-0.771895	-0.001245	0.001224	-0.008309	-0.715088	-0.525635	-0.165771	0.577051	0.422048	-0.602210	0.355291
62247		9.703606	0.599274	-0.814030	0.009283	0.002683	-0.007310	-0.723145	-0.532227	-0.155273	0.577075	0.421994	-0.602204	0.355326
62248		9.718617	0.590519	-0.798550	0.002634	-0.001670	-0.006207	-0.718262	-0.523193	-0.163574	0.577002	0.422028	-0.602190	0.355426
62249		9.724097	0.542140	-0.801071	0.000700	-0.002601	-0.010612	-0.707764	-0.522705	-0.161377	0.577027	0.421960	-0.602255	0.355356
62250		9.744236	0.568559	-0.762478	0.002377	0.000016	-0.013899	-0.711182	-0.531250	-0.169434	0.577073	0.421965	-0.602230	0.355320
62251		9.733090	0.606232	-0.797099	-0.000615	-0.000802	-0.014843	-0.710449	-0.526367	-0.164307	0.577186	0.421922	-0.602225	0.355195
62252		9.714579	0.623514	-0.763680	0.005858	0.003296	-0.015304	-0.713379	-0.528564	-0.155518	0.577259	0.421936	-0.602157	0.355175
62253		9.711038	0.593725	-0.800833	0.013471	-0.002193	-0.012699	-0.715820	-0.529053	-0.162109	0.577165	0.422105	-0.602051	0.355305
62254		9.739049	0.610341	-0.783463	0.013027	-0.005772	-0.012195	-0.704346	-0.526123	-0.163818	0.577094	0.422211	-0.602024	0.355343
62255		9.719259	0.651901	-0.820724	0.015571	-0.007414	-0.012078	-0.718750	-0.528076	-0.164307	0.577028	0.422332	-0.601987	0.355368
62256		9.744532	0.622307	-0.806505	0.004361	-0.003511	-0.007358	-0.713867	-0.529541	-0.163086	0.577015	0.422286	-0.602041	0.355351
62257		9.737885	0.594699	-0.795383	0.004305	0.000952	-0.009504	-0.713623	-0.531006	-0.167969	0.577042	0.422273	-0.602016	0.355367
62258		9.714692	0.616680	-0.789820	0.000525	0.004672	-0.008169	-0.723389	-0.531494	-0.168701	0.577147	0.422168	-0.602005	0.355338
62259		9.729352	0.585806	-0.781837	0.005593	0.001947	-0.007010	-0.712158	-0.533691	-0.163086	0.577192	0.422073	-0.602034	0.355330
62260		9.726829	0.581967	-0.790127	0.007301	-0.006867	-0.009042	-0.718506	-0.527100	-0.170654	0.577138	0.422150	-0.602017	0.355354
62261		9.713347	0.577583	-0.807943	0.010163	-0.006312	-0.010625	-0.708008	-0.529785	-0.162354	0.577138	0.422116	-0.602089	0.355274
62262		9.724258	0.620987	-0.805557	0.008600	-0.003094	-0.011455	-0.716553	-0.527832	-0.165771	0.577119	0.422195	-0.602035	0.355302
62263		9.728248	0.629711	-0.812315	-0.000016	-0.001968	-0.008448	-0.709717	-0.531250	-0.159912	0.577160	0.422110	-0.602092	0.355240
62264		9.719678	0.619088	-0.800658	0.007712	-0.001607	-0.009965	-0.712646	-0.534180	-0.163818	0.577128	0.422195	-0.602020	0.355313
62265		9.724277	0.615187	-0.773380	0.002753	-0.005584	-0.009486	-0.713867	-0.526123	-0.162842	0.577115	0.422231	-0.602016	0.355298
62266		9.738679	0.602197	-0.780597	0.007101	-0.005446	-0.008812	-0.714355	-0.529297	-0.164062	0.577075	0.422241	-0.602049	0.355295
62267		9.734228	0.615202	-0.787824	0.002198	0.003952	-0.007484	-0.709717	-0.531982	-0.161133	0.577132	0.422173	-0.602030	0.355315
62268		9.719121	0.609766	-0.789544	0.002421	0.001977	-0.008641	-0.721436	-0.533936	-0.162354	0.577157	0.422189	-0.601963	0.355368
62269		9.716172	0.600829	-0.818160	0.011641	0.000814	-0.006573	-0.720215	-0.533447	-0.164307	0.577108	0.422232	-0.601910	0.355487
62270		9.727951	0.613181	-0.767215	-0.003595	-0.000782	-0.006020	-0.714600	-0.525391	-0.162109	0.577141	0.422148	-0.601949	0.355466
62271		9.723255	0.585992	-0.769742	0.007197	-0.002383	-0.008031	-0.713379	-0.524902	-0.169434	0.577113	0.422142	-0.601965	0.355491
62272		9.767469	0.639381	-0.810293	0.012116	0.000499	-0.004016	-0.715820	-0.527588	-0.163086	0.577123	0.422056	-0.602001	0.355518
62273		9.729279	0.577643	-0.776593	-0.003519	0.001725	-0.002988	-0.716553	-0.530273	-0.160645	0.577163	0.421922	-0.602054	0.355522
62274		9.692165	0.546940	-0.803473	-0.004195	0.003457	-0.005312	-0.710449	-0.535645	-0.164795	0.577205	0.421840	-0.602051	0.355556
62275		9.716364	0.596323	-0.783346	0.012693	0.000711	-0.010047	-0.711914	-0.523438	-0.165039	0.577190	0.421951	-0.601925	0.355661
62276		9.720626	0.644460	-0.794533	0.007150	-0.001257	-0.006194	-0.724609	-0.529297	-0.164551	0.577189	0.421895	-0.601960	0.355671
62277		9.743625	0.568468	-0.782107	0.003996	-0.003461	-0.005154	-0.711426	-0.531738	-0.167236	0.577155	0.421834	-0.602031	0.355679
62278		9.751509	0.560296	-0.802871	0.006966	0.000709	-0.008210	-0.721436	-0.532959	-0.166016	0.577186	0.421832	-0.601986	0.355707
62279		9.741054	0.566325	-0.789981	0.009825	0.001269	-0.009797	-0.719238	-0.534912	-0.173340	0.577188	0.421853	-0.601938	0.355759
62280		9.709796	0.655314	-0.782053	0.011222	0.005878	-0.008774	-0.712158	-0.527344	-0.167969	0.577271	0.421806	-0.601874	0.355789
62281		9.732829	0.597347	-0.780508	0.013514	0.007894	-0.007913	-0.715332	-0.531250	-0.165771	0.577328	0.421774	-0.601791	0.355875
62282		9.700983	0.583321	-0.770001	0.007472	0.006802	-0.005698	-0.715332	-0.531006	-0.165039	0.577373	0.421730	-0.601723	0.355968
62283		9.734229	0.595773	-0.812766	0.009582	0.002699	-0.006395	-0.714600	-0.533203	-0.165771	0.577372	0.421732	-0.601669	0.356059
62284		9.724621	0.628668	-0.770230	-0.003300	0.000855	-0.005478	-0.714355	-0.518311	-0.161133	0.577425	0.421657	-0.601674	0.356055
62285		9.724231	0.550087	-0.760442	0.003968	-0.001784	-0.005567	-0.725098	-0.529785	-0.168701	0.577400	0.421575	-0.601749	0.356063
62286		9.723756	0.586300	-0.787384	0.010047	-0.003475	-0.006041	-0.719727	-0.526367	-0.167480	0.577364	0.421536	-0.601803	0.356078
62287		9.734294	0.548676	-0.775097	0.008742	-0.005024	-0.006285	-0.714844	-0.531006	-0.156982	0.577327	0.421496	-0.601870	0.356072
62288		9.734679	0.595224	-0.760631	0.016722	-0.008289	-0.008555	-0.715088	-0.530273	-0.166748	0.577150	0.421705	-0.601797	0.356235
62289		9.737956	0.615623	-0.802538	0.011025	-0.001893	-0.006760	-0.716309	-0.529297	-0.165039	0.577124	0.421722	-0.601777	0.356290
62290		9.727402	0.581137	-0.784684	-0.002176	0.003252	-0.005921	-0.716064	-0.530029	-0.158203	0.577190	0.421619	-0.601787	0.356289
62291		9.716696	0.564378	-0.779390	0.002907	0.002210	-0.008349	-0.721924	-0.532959	-0.169189	0.577174	0.421655	-0.601720	0.356384
62292		9.734242	0.601768	-0.761084	0.004104	0.000153	-0.006632	-0.718262	-0.524170	-0.169189	0.577203	0.421597	-0.601731	0.356388
62293		9.725764	0.590530	-0.749614	0.007754	-0.005485	-0.006906	-0.721436	-0.529053	-0.157471	0.577190	0.421527	-0.601822	0.356338
62294		9.728665	0.548516	-0.794460	0.004217	-0.004320	-0.007645	-0.709717	-0.531982	-0.166748	0.577103	0.421581	-0.601823	0.356414
62295		9.718142	0.554641	-0.782240	0.004313	0.000401	-0.010456	-0.712891	-0.528564	-0.161865	0.577147	0.421607	-0.601755	0.356425
62296		9.733299	0.587185	-0.771425	0.006618	0.002970	-0.011852	-0.716064	-0.524170	-0.158691	0.577168	0.421657	-0.601665	0.356485
62297		9.718402	0.604687	-0.765885	0.003052	-0.003935	-0.008950	-0.715088	-0.520996	-0.167725	0.577121	0.421670	-0.601689	0.356505
62298		9.734412	0.530299	-0.789658	0.008507	-0.006123	-0.012264	-0.720703	-0.534424	-0.166016	0.577122	0.421642	-0.601761	0.356415
62299		9.751524	0.586023	-0.785923	0.006052	-0.002544	-0.010273	-0.715088	-0.520020	-0.162109	0.577110	0.421688	-0.601726	0.356439
62300		9.728511	0.573356	-0.755528	0.007233	-0.002376	-0.011225	-0.710938	-0.538818	-0.166016	0.577099	0.421672	-0.601759	0.356419
62301		9.727831	0.610862	-0.782371	0.007547	-0.001290	-0.011604	-0.716553	-0.528564	-0.169189	0.577099	0.421804	-0.601625	0.356489
62302		9.693044	0.626640	-0.807588	0.006641	-0.000358	-0.007857	-0.717529	-0.521240	-0.161377	0.577130	0.421755	-0.601636	0.356480
62303		9.710249	0.561555	-0.787770	0.007807	-0.000739	-0.006553	-0.718262	-0.526611	-0.166992	0.577097	0.421709	-0.601677	0.356519
62304		9.736200	0.594326	-0.769156	0.008169	-0.000779	-0.008772	-0.717041	-0.521973	-0.173096	0.577105	0.421678	-0.601690	0.356520
62305		9.731687	0.567385	-0.771412	0.009674	-0.000637	-0.008767	-0.715332	-0.523926	-0.160889	0.577165	0.421557	-0.601765	0.356440
62306		9.744207	0.571071	-0.777144	0.011731	-0.002497	-0.008959	-0.715820	-0.522461	-0.169434	0.577099	0.421610	-0.601747	0.356514
62307		9.708737	0.658494	-0.743400	0.003280	-0.000049	-0.007911	-0.713867	-0.530273	-0.163086	0.577165	0.421479	-0.601820	0.356438
62308		9.697153	0.551398	-0.771408	0.001483	-0.003496	-0.004866	-0.714600	-0.531006	-0.164795	0.577139	0.421469	-0.601832	0.356473
62309		9.742002	0.575125	-0.764761	0.007600	0.000679	-0.006326	-0.709229	-0.523682	-0.164307	0.577130	0.421484	-0.601784	0.356551
62310		9.749925	0.606599	-0.790139	0.006420	0.000511	-0.005374	-0.709961	-0.525879	-0.164795	0.577135	0.421442	-0.601782	0.356594
62311		9.718117	0.552370	-0.776088	0.003434	-0.000335	-0.006305	-0.715332	-0.520996	-0.172852	0.577154	0.421403	-0.601782	0.356611
62312		9.714369	0.552590	-0.748890	0.008466	-0.000236	-0.006901	-0.717041	-0.538330	-0.164062	0.577215	0.421262	-0.601864	0.356540
62313		9.728244	0.551473	-0.789632	0.013764	-0.003785	-0.008235	-0.709961	-0.527344	-0.163086	0.577130	0.421420	-0.601756	0.356675
62314		9.730811	0.564691	-0.761945	0.008119	-0.003847	-0.012734	-0.715332	-0.523682	-0.170654	0.577109	0.421510	-0.601703	0.356690
62315		9.738919	0.540438	-0.770083	0.011128	-0.003560	-0.012726	-0.717285	-0.529297	-0.162354	0.577136	0.421492	-0.601732	0.356619
62316		9.730240	0.610475	-0.768507	0.009487	0.001882	-0.013065	-0.726318	-0.518311	-0.166992	0.577135	0.421568	-0.601641	0.356684
62317		9.729875	0.590687	-0.776754	0.004049	-0.002912	-0.010603	-0.719971	-0.517334	-0.169922	0.577158	0.421434	-0.601777	0.356577
62318		9.727877	0.592587	-0.763389	0.004960	0.000906	-0.010823	-0.707520	-0.524902	-0.164062	0.577238	0.421276	-0.601876	0.356465
62319		9.751111	0.575135	-0.767999	-0.002105	0.000438	-0.007359	-0.713623	-0.518799	-0.169189	0.577294	0.421210	-0.601882	0.356443
62320		9.724835	0.523422	-0.795141	0.005878	-0.002791	-0.009643	-0.717529	-0.536133	-0.167725	0.577333	0.421112	-0.601965	0.356355
62321		9.733944	0.571693	-0.757995	0.003461	-0.005094	-0.013026	-0.709229	-0.531738	-0.165771	0.577352	0.421169	-0.601936	0.356307
62322		9.739981	0.564370	-0.765163	0.004307	0.000961	-0.012745	-0.713135	-0.524414	-0.164795	0.577408	0.421217	-0.601847	0.356309
62323		9.733650	0.515326	-0.760728	0.005216	0.004780	-0.012966	-0.714111	-0.532227	-0.170654	0.577479	0.421200	-0.601789	0.356313
62324		9.733149	0.536395	-0.773471	0.011938	-0.000013	-0.018670	-0.712891	-0.528564	-0.161865	0.577545	0.421290	-0.601688	0.356269
62325		9.743070	0.599145	-0.784769	0.016202	-0.009300	-0.018720	-0.713135	-0.520508	-0.169189	0.577449	0.421521	-0.601604	0.356294
62326		9.724177	0.617334	-0.753631	0.002521	-0.005031	-0.019092	-0.711670	-0.531250	-0.173096	0.577530	0.421489	-0.601659	0.356107
62327		9.726953	0.617616	-0.803555	0.002342	-0.005837	-0.016183	-0.714111	-0.523926	-0.169189	0.577621	0.421480	-0.601678	0.355938
62328		9.759366	0.562455	-0.782051	0.003262	-0.003127	-0.015067	-0.717041	-0.529785	-0.166016	0.577689	0.421438	-0.601717	0.355812
62329		9.734341	0.590160	-0.743132	0.003403	-0.002301	-0.014799	-0.714111	-0.513184	-0.168457	0.577726	0.421460	-0.601701	0.355753
62330		9.707677	0.664391	-0.765030	0.008398	-0.002168	-0.012222	-0.717041	-0.525879	-0.167236	0.577757	0.421363	-0.601795	0.355659
62331		9.695536	0.633010	-0.824948	-0.002564	-0.006222	-0.010792	-0.727051	-0.533447	-0.171143	0.577790	0.421288	-0.601890	0.355534
62332		9.739256	0.538064	-0.790131	0.004812	-0.006305	-0.011049	-0.713867	-0.525879	-0.172119	0.577804	0.421242	-0.601967	0.355434
62333		9.754490	0.576180	-0.759656	0.009715	-0.001166	-0.012914	-0.718018	-0.531006	-0.165283	0.577869	0.421201	-0.601981	0.355353
62334		9.704647	0.607468	-0.778862	0.005945	0.002496	-0.014758	-0.711914	-0.533691	-0.165771	0.577922	0.421229	-0.601913	0.355349
62335		9.726118	0.590740	-0.769587	0.004976	0.000913	-0.014034	-0.723389	-0.523926	-0.159180	0.577979	0.421279	-0.601830	0.355338
62336		9.724071	0.570718	-0.764073	-0.001989	-0.002378	-0.011979	-0.717041	-0.532959	-0.165039	0.577957	0.421266	-0.601868	0.355325
62337		9.751364	0.560765	-0.775805	0.010817	-0.004042	-0.014650	-0.716553	-0.524414	-0.168457	0.577931	0.421377	-0.601807	0.355337
62338		9.729061	0.669205	-0.774839	0.006027	-0.000843	-0.013925	-0.711914	-0.526367	-0.164795	0.577983	0.421341	-0.601826	0.355264
62339		9.707541	0.607318	-0.794732	-0.000345	-0.001404	-0.011710	-0.712646	-0.534424	-0.167236	0.578028	0.421314	-0.601833	0.355211
62340		9.725453	0.588786	-0.758539	0.004447	0.000696	-0.011165	-0.710938	-0.527832	-0.168945	0.578082	0.421327	-0.601776	0.355203
62341		9.739299	0.611072	-0.790585	0.002258	0.000609	-0.009902	-0.705811	-0.532715	-0.159912	0.578158	0.421261	-0.601783	0.355148
62342		9.750462	0.552422	-0.784718	-0.003071	-0.000056	-0.011177	-0.715088	-0.534424	-0.163574	0.578188	0.421320	-0.601698	0.355172
62343		9.746750	0.576550	-0.748734	-0.000883	0.005328	-0.011169	-0.718994	-0.538330	-0.169922	0.578265	0.421314	-0.601613	0.355199
62344		9.746160	0.596706	-0.761334	-0.003563	-0.000292	-0.011487	-0.713867	-0.523193	-0.164062	0.578361	0.421264	-0.601607	0.355113
62345		9.724258	0.574793	-0.786643	0.007107	-0.003152	-0.014742	-0.720703	-0.524658	-0.163086	0.578351	0.421307	-0.601599	0.355089
62346		9.733555	0.561513	-0.751702	-0.009738	-0.000612	-0.013111	-0.721680	-0.527100	-0.169922	0.578424	0.421205	-0.601669	0.354975
62347		9.726032	0.565420	-0.788057	0.005167	-0.004109	-0.019168	-0.712158	-0.526611	-0.166992	0.578474	0.421211	-0.601695	0.354841
62348		9.714290	0.608792	-0.802599	0.012475	-0.001385	-0.021195	-0.716797	-0.522217	-0.166748	0.578504	0.421331	-0.601607	0.354800
62349		9.692673	0.638614	-0.790613	0.005020	0.000364	-0.018170	-0.714355	-0.530029	-0.161621	0.578564	0.421323	-0.601604	0.354716
62350		9.726005	0.589742	-0.746979	0.008290	-0.001861	-0.020247	-0.715820	-0.528564	-0.162109	0.578557	0.421481	-0.601495	0.354724
62351		9.734821	0.692502	-0.762666	0.017368	0.001573	-0.017203	-0.712891	-0.527100	-0.169189	0.578516	0.421645	-0.601359	0.354826
62352		9.738754	0.679367	-0.776481	0.016082	0.003095	-0.010287	-0.713135	-0.530762	-0.167969	0.578532	0.421656	-0.601303	0.354883
62353		9.710102	0.608346	-0.761735	0.003105	0.003905	-0.004686	-0.714111	-0.526855	-0.165039	0.578585	0.421566	-0.601296	0.354915
62354		9.735019	0.585726	-0.800542	0.014878	0.003482	-0.008407	-0.714355	-0.535645	-0.164551	0.578562	0.421596	-0.601229	0.355030
62355		9.756447	0.635200	-0.767151	0.008841	0.003425	-0.007491	-0.720215	-0.524414	-0.162109	0.578559	0.421642	-0.601132	0.355146
62356		9.725318	0.625867	-0.735764	-0.001313	0.005938	-0.004846	-0.707275	-0.533203	-0.168213	0.578591	0.421513	-0.601160	0.355198
62357		9.705462	0.624684	-0.765316	-0.002065	0.002390	-0.002078	-0.716064	-0.526855	-0.167480	0.578653	0.421413	-0.601156	0.355222
62358		9.715102	0.586391	-0.737788	0.004806	-0.002081	-0.005264	-0.720703	-0.527344	-0.167725	0.578643	0.421345	-0.601210	0.355229
62359		9.714353	0.627426	-0.743407	0.012408	0.001194	-0.005413	-0.722412	-0.515869	-0.162354	0.578613	0.421306	-0.601221	0.355306
62360		9.733021	0.592046	-0.784151	0.006698	0.001111	-0.003534	-0.715576	-0.522705	-0.167725	0.578561	0.421184	-0.601319	0.355370
62361		9.729500	0.569583	-0.764205	0.006492	0.003619	-0.007842	-0.712402	-0.530029	-0.176514	0.578601	0.421094	-0.601335	0.355383
62362		9.749846	0.556421	-0.719773	0.004903	0.001515	-0.009959	-0.712646	-0.528809	-0.166748	0.578722	0.420980	-0.601359	0.355280
62363		9.731687	0.629890	-0.719160	0.015983	0.000066	-0.007876	-0.707031	-0.527588	-0.166260	0.578676	0.421043	-0.601295	0.355389
62364		9.691670	0.649712	-0.772988	0.005678	-0.002987	-0.005842	-0.716553	-0.522949	-0.166992	0.578657	0.421043	-0.601294	0.355422
62365		9.694673	0.571929	-0.777169	0.008343	-0.007382	-0.007147	-0.715820	-0.528320	-0.170654	0.578590	0.421023	-0.601379	0.355411
62366		9.739868	0.607434	-0.729821	0.013179	-0.006385	-0.008456	-0.719971	-0.526611	-0.167236	0.578546	0.421038	-0.601415	0.355404
62367		9.722129	0.662970	-0.717710	0.012630	-0.006047	-0.004650	-0.716309	-0.532715	-0.166504	0.578455	0.421034	-0.601474	0.355457
62368		9.725466	0.613873	-0.783272	0.012988	-0.002993	0.000270	-0.720947	-0.526367	-0.175781	0.578363	0.421040	-0.601477	0.355594
62369		9.727052	0.636710	-0.790131	0.018365	-0.003426	-0.000310	-0.715576	-0.526855	-0.160156	0.578320	0.420928	-0.601580	0.355622
62370		9.733511	0.603335	-0.805778	0.015384	-0.004849	0.001038	-0.715332	-0.526123	-0.155762	0.578143	0.420995	-0.601577	0.355835
62371		9.729470	0.669376	-0.755779	0.014221	-0.000295	0.002338	-0.714111	-0.521729	-0.163574	0.577964	0.421071	-0.601526	0.356124
62372		9.734152	0.656793	-0.749026	0.006323	-0.001572	0.010039	-0.705322	-0.525635	-0.158691	0.577859	0.420915	-0.601642	0.356281
62373		9.729001	0.556736	-0.761116	0.013225	-0.002956	0.010803	-0.719238	-0.531738	-0.157471	0.577671	0.420926	-0.601641	0.356575
62374		9.749104	0.533832	-0.739256	0.014755	-0.002816	0.007607	-0.710205	-0.521729	-0.167725	0.577458	0.420987	-0.601617	0.356888
62375		9.763674	0.511763	-0.767043	0.012813	-0.004339	0.005456	-0.712891	-0.525146	-0.167236	0.577368	0.420890	-0.601709	0.356993
62376		9.747420	0.507704	-0.735740	0.014204	-0.005026	0.001992	-0.716309	-0.522949	-0.163086	0.577270	0.420858	-0.601761	0.357101
62377		9.727252	0.550307	-0.751249	0.003799	0.001643	-0.000086	-0.719482	-0.527100	-0.160645	0.577248	0.420756	-0.601801	0.357189
62378		9.711940	0.537659	-0.774214	0.007160	0.002460	-0.004593	-0.714600	-0.531494	-0.168457	0.577204	0.420763	-0.601758	0.357325
62379		9.710128	0.537635	-0.760504	0.011596	-0.001212	-0.000822	-0.722656	-0.518555	-0.167480	0.577163	0.420755	-0.601740	0.357433
62380		9.720180	0.579156	-0.758789	0.016303	-0.006336	-0.003664	-0.715820	-0.529785	-0.164062	0.577067	0.420704	-0.601847	0.357467
62381		9.746051	0.521211	-0.773652	0.014763	-0.010117	-0.005347	-0.718262	-0.522461	-0.169922	0.576926	0.420822	-0.601843	0.357561
62382		9.734139	0.508925	-0.736903	0.014562	-0.013459	-0.008648	-0.716064	-0.521240	-0.172363	0.576834	0.420843	-0.601953	0.357498
62383		9.711281	0.548149	-0.763536	0.013753	-0.018973	-0.011174	-0.715576	-0.524658	-0.162109	0.576745	0.420870	-0.602112	0.357345
62384		9.722033	0.609212	-0.793188	0.021381	-0.022618	-0.008997	-0.715088	-0.527344	-0.163818	0.576487	0.421093	-0.602179	0.357386
62385		9.788016	0.688493	-0.826309	0.004428	0.003254	-0.001793	-0.718994	-0.523682	-0.163086	0.576501	0.421018	-0.602168	0.357470
62386		9.758966	0.625391	-0.754492	-0.008112	0.005434	0.009203	-0.715332	-0.531006	-0.162842	0.576538	0.420733	-0.602289	0.357542
62387		9.757177	0.446356	-0.766356	-0.014496	0.005407	0.012375	-0.716797	-0.524414	-0.158203	0.576589	0.420454	-0.602381	0.357633
62388		9.742937	0.442515	-0.746275	-0.004957	0.002907	0.001390	-0.711914	-0.524170	-0.162354	0.576578	0.420344	-0.602406	0.357737
62389		9.728973	0.498383	-0.759942	-0.001891	-0.002117	-0.006259	-0.720947	-0.519287	-0.164307	0.576589	0.420308	-0.602420	0.357738
62390		9.748825	0.554582	-0.783060	-0.010770	0.003592	-0.006983	-0.719482	-0.530762	-0.156006	0.576704	0.420098	-0.602514	0.357642
62391		9.719675	0.523719	-0.772933	-0.000098	0.004966	-0.007669	-0.715576	-0.526367	-0.166504	0.576689	0.420161	-0.602394	0.357794
62392		9.735057	0.516256	-0.757068	0.003838	-0.002588	-0.009083	-0.720947	-0.529541	-0.163818	0.576701	0.420160	-0.602389	0.357784
62393		9.728899	0.534336	-0.730962	0.017955	-0.009005	-0.011490	-0.717285	-0.525146	-0.166504	0.576567	0.420348	-0.602332	0.357875
62394		9.722857	0.559274	-0.775424	0.018685	-0.011275	-0.010066	-0.710938	-0.525879	-0.168701	0.576442	0.420481	-0.602336	0.357913
62395		9.739951	0.529939	-0.783406	0.017471	-0.004510	-0.011472	-0.723389	-0.527100	-0.172119	0.576408	0.420586	-0.602274	0.357948
62396		9.732218	0.525150	-0.750767	0.006180	-0.002229	-0.011021	-0.723389	-0.525146	-0.171143	0.576461	0.420529	-0.602311	0.357869
62397		9.729179	0.539067	-0.771989	0.007276	0.000187	-0.011496	-0.715820	-0.532227	-0.166504	0.576524	0.420465	-0.602332	0.357807
62398		9.760172	0.602870	-0.765931	-0.000935	0.000009	-0.009274	-0.714844	-0.526123	-0.160400	0.576580	0.420456	-0.602292	0.357794
62399		9.741493	0.545442	-0.777976	0.004922	-0.005442	-0.007621	-0.724854	-0.524170	-0.162842	0.576515	0.420519	-0.602279	0.357847
62400		9.729065	0.500348	-0.788681	0.004385	0.001257	-0.010300	-0.714600	-0.520020	-0.172119	0.576526	0.420494	-0.602275	0.357865
62401		9.752106	0.551624	-0.769325	0.004745	0.005946	-0.012205	-0.717285	-0.528564	-0.164551	0.576673	0.420368	-0.602273	0.357780
62402		9.724991	0.549953	-0.744693	0.003998	-0.002323	-0.009748	-0.714600	-0.522461	-0.169922	0.576672	0.420398	-0.602245	0.357793
62403		9.708972	0.533536	-0.790540	0.014574	-0.008151	-0.010615	-0.720703	-0.528809	-0.158447	0.576629	0.420440	-0.602276	0.357761
62404		9.745037	0.518518	-0.801600	0.004952	-0.000732	-0.010492	-0.720215	-0.523438	-0.173340	0.576586	0.420526	-0.602205	0.357848
62405		9.739050	0.587425	-0.737143	0.007795	0.004063	-0.009521	-0.712646	-0.523926	-0.160889	0.576686	0.420412	-0.602218	0.357799
62406		9.698385	0.572352	-0.749937	0.007380	-0.003684	-0.008373	-0.719971	-0.524414	-0.176514	0.576634	0.420474	-0.602189	0.357859
62407		9.732690	0.505684	-0.783829	0.014469	-0.005344	-0.009206	-0.715088	-0.525635	-0.163574	0.576650	0.420425	-0.602252	0.357785
62408		9.759151	0.527710	-0.731997	0.000618	-0.002041	-0.006582	-0.724609	-0.523926	-0.168457	0.576656	0.420395	-0.602264	0.357791
62409		9.712671	0.585728	-0.750624	-0.002686	-0.002914	-0.008453	-0.719727	-0.526855	-0.169922	0.576708	0.420269	-0.602363	0.357688
62410		9.715842	0.610999	-0.770375	-0.011571	0.001684	-0.004621	-0.721191	-0.521240	-0.163818	0.576839	0.420053	-0.602457	0.357571
62411		9.722195	0.550946	-0.813243	-0.007779	-0.001929	-0.002774	-0.711914	-0.529053	-0.160889	0.576866	0.419887	-0.602576	0.357523
62412		9.735380	0.485955	-0.842304	0.003864	-0.004224	-0.005471	-0.711670	-0.521240	-0.162842	0.576807	0.419955	-0.602536	0.357607
62413		9.755056	0.512857	-0.803771	0.009672	0.007816	-0.010090	-0.725586	-0.523193	-0.160889	0.576853	0.419967	-0.602425	0.357706
62414		9.749230	0.451128	-0.749272	0.015749	0.006782	-0.012888	-0.717285	-0.523926	-0.169678	0.576835	0.420041	-0.602306	0.357847
62415		9.717637	0.518170	-0.763615	0.024254	0.008070	-0.015517	-0.721924	-0.526123	-0.166992	0.576873	0.420134	-0.602140	0.357955
62416		9.729177	0.563238	-0.773718	0.023598	0.002841	-0.015496	-0.716064	-0.525146	-0.158936	0.576846	0.420274	-0.602002	0.358066
62417		9.734903	0.601308	-0.764816	0.019317	0.000401	-0.013428	-0.719238	-0.522705	-0.168213	0.576760	0.420465	-0.601854	0.358230
62418		9.709538	0.599795	-0.754187	0.004516	0.001551	-0.007778	-0.719482	-0.526123	-0.164062	0.576808	0.420378	-0.601879	0.358213
62419		9.716898	0.551367	-0.754586	0.012233	0.000974	-0.008043	-0.714355	-0.528320	-0.164795	0.576775	0.420420	-0.601823	0.358312
62420		9.725861	0.554032	-0.733034	0.008393	-0.004289	-0.006417	-0.717285	-0.525879	-0.171875	0.576724	0.420471	-0.601798	0.358373
62421		9.746831	0.524972	-0.766674	0.004733	0.000143	-0.008006	-0.714844	-0.519775	-0.171631	0.576788	0.420392	-0.601819	0.358330
62422		9.729129	0.558188	-0.761175	0.008771	-0.000704	-0.006980	-0.718506	-0.514893	-0.166016	0.576828	0.420299	-0.601868	0.358293
62423		9.750298	0.557136	-0.765633	0.012396	0.000702	-0.006429	-0.724609	-0.519287	-0.169922	0.576813	0.420230	-0.601908	0.358330
62424		9.752337	0.614760	-0.721317	0.010189	0.005353	-0.001625	-0.716309	-0.523193	-0.153809	0.576841	0.420066	-0.601962	0.358386
62425		9.753492	0.574740	-0.713996	-0.002430	0.006598	0.002749	-0.708496	-0.526611	-0.164062	0.576802	0.419993	-0.601931	0.358587
62426		9.767409	0.427963	-0.715771	-0.007520	-0.000809	0.003243	-0.714600	-0.519531	-0.168701	0.576819	0.419861	-0.601984	0.358625
62427		9.745728	0.482329	-0.765297	0.002391	0.003968	-0.003468	-0.712402	-0.518066	-0.165527	0.576886	0.419714	-0.602020	0.358629
62428		9.736798	0.510469	-0.757680	-0.010644	0.003811	-0.004446	-0.714600	-0.519287	-0.169922	0.577002	0.419511	-0.602092	0.358559
62429		9.743971	0.484706	-0.749746	-0.006885	0.002390	-0.008506	-0.716064	-0.526367	-0.167480	0.577133	0.419336	-0.602158	0.358442
62430		9.735282	0.491461	-0.749664	-0.001983	0.005912	-0.010016	-0.719482	-0.524170	-0.167480	0.577241	0.419270	-0.602106	0.358432
62431		9.735641	0.499748	-0.727559	0.002517	0.002223	-0.012639	-0.713379	-0.526611	-0.167236	0.577305	0.419249	-0.602074	0.358408
62432		9.735117	0.497363	-0.747915	0.008128	0.004583	-0.014069	-0.717529	-0.526367	-0.164307	0.577366	0.419307	-0.601951	0.358447
62433		9.747332	0.553647	-0.716346	0.008951	0.000621	-0.015401	-0.714844	-0.520996	-0.161377	0.577370	0.419414	-0.601847	0.358490
62434		9.731505	0.537987	-0.760947	0.007675	-0.001494	-0.013340	-0.718994	-0.523193	-0.170654	0.577343	0.419499	-0.601788	0.358534
62435		9.720115	0.562427	-0.761898	0.003577	0.001020	-0.014805	-0.726807	-0.523193	-0.168701	0.577427	0.419469	-0.601773	0.358459
62436		9.717496	0.525191	-0.728852	0.003042	-0.002825	-0.013583	-0.714844	-0.528320	-0.165039	0.577454	0.419439	-0.601812	0.358385
62437		9.743965	0.555116	-0.745388	0.005100	0.004279	-0.010860	-0.711670	-0.529053	-0.169434	0.577491	0.419482	-0.601705	0.358454
62438		9.735217	0.533521	-0.774084	0.003740	0.004397	-0.008307	-0.715332	-0.526611	-0.172607	0.577560	0.419470	-0.601624	0.358494
62439		9.736398	0.524026	-0.738026	0.002121	0.007567	-0.009171	-0.720703	-0.524902	-0.165039	0.577685	0.419381	-0.601569	0.358488
62440		9.721998	0.524066	-0.717559	-0.004117	0.004669	-0.010591	-0.719727	-0.520508	-0.163330	0.577766	0.419313	-0.601546	0.358476
62441		9.706323	0.535887	-0.732808	0.007977	-0.000934	-0.011460	-0.710938	-0.523438	-0.165283	0.577738	0.419349	-0.601524	0.358516
62442		9.736147	0.531690	-0.735841	0.009460	0.003969	-0.011154	-0.714111	-0.520264	-0.175293	0.577759	0.419403	-0.601418	0.358597
62443		9.734839	0.602141	-0.712504	0.006851	0.001942	-0.009739	-0.715820	-0.529785	-0.173828	0.577846	0.419310	-0.601434	0.358539
62444		9.728498	0.528865	-0.701175	0.005491	0.002059	-0.007185	-0.722168	-0.525391	-0.163818	0.577902	0.419273	-0.601397	0.358554
62445		9.744585	0.533097	-0.733743	0.008091	-0.000618	-0.005712	-0.718018	-0.522461	-0.166504	0.577843	0.419294	-0.601377	0.358659
62446		9.730106	0.531856	-0.715221	0.004637	-0.002311	-0.004641	-0.722168	-0.525635	-0.166016	0.577813	0.419254	-0.601410	0.358698
62447		9.743108	0.512157	-0.727694	0.008832	0.006014	-0.004567	-0.711914	-0.512695	-0.179199	0.577810	0.419227	-0.601352	0.358832
62448		9.734460	0.517619	-0.727586	0.009082	0.004042	-0.005714	-0.721436	-0.525879	-0.172363	0.577922	0.419025	-0.601428	0.358759
62449		9.728327	0.506592	-0.728381	0.012258	-0.000084	-0.006704	-0.721680	-0.530029	-0.162598	0.577911	0.419015	-0.601414	0.358813
62450		9.740789	0.510149	-0.734501	0.002794	-0.006094	-0.007270	-0.717529	-0.526123	-0.171631	0.577830	0.419087	-0.601404	0.358875
62451		9.736584	0.534400	-0.700834	0.003079	-0.003927	-0.012234	-0.717773	-0.526611	-0.160645	0.577861	0.419090	-0.601410	0.358811
62452		9.731276	0.542026	-0.729788	0.006257	-0.000231	-0.008957	-0.709717	-0.524170	-0.173340	0.577810	0.419174	-0.601335	0.358922
62453		9.727238	0.537763	-0.723440	0.003688	0.001340	-0.009072	-0.717285	-0.525635	-0.168457	0.577886	0.419127	-0.601312	0.358894
62454		9.743143	0.508062	-0.715515	0.008692	-0.002626	-0.009107	-0.718750	-0.518799	-0.172852	0.577860	0.419167	-0.601286	0.358932
62455		9.750013	0.539846	-0.742185	0.007950	-0.000898	-0.008268	-0.717773	-0.516846	-0.173584	0.577887	0.419091	-0.601331	0.358901
62456		9.715152	0.558949	-0.746740	0.001830	-0.002957	-0.006209	-0.724365	-0.520996	-0.155273	0.577929	0.418947	-0.601443	0.358814
62457		9.742274	0.536203	-0.709585	0.007620	-0.000880	-0.009234	-0.715088	-0.515625	-0.166504	0.577827	0.419036	-0.601397	0.358953
62458		9.715723	0.482759	-0.721936	0.008663	-0.002056	-0.008188	-0.719238	-0.519043	-0.173340	0.577805	0.419011	-0.601425	0.358969
62459		9.736839	0.545145	-0.739062	0.017679	-0.001575	-0.009172	-0.719727	-0.521973	-0.167725	0.577782	0.419014	-0.601428	0.358999
62460		9.769226	0.551624	-0.714074	0.014862	0.001429	-0.005859	-0.712891	-0.518555	-0.169189	0.577738	0.419028	-0.601391	0.359114
62461		9.733616	0.586581	-0.731496	0.002120	0.001249	0.000557	-0.711670	-0.517090	-0.166992	0.577754	0.418882	-0.601454	0.359152
62462		9.710288	0.519698	-0.721851	0.004212	0.003064	0.002037	-0.714844	-0.524658	-0.162598	0.577752	0.418748	-0.601495	0.359244
62463		9.718668	0.509170	-0.741426	0.002939	0.001481	0.001826	-0.714600	-0.521484	-0.164795	0.577701	0.418704	-0.601485	0.359396
62464		9.736963	0.483162	-0.725000	0.004632	0.005518	-0.000384	-0.720215	-0.524170	-0.158936	0.577700	0.418629	-0.601457	0.359530
62465		9.741434	0.466933	-0.737746	-0.001625	0.003164	-0.000869	-0.720215	-0.525146	-0.165771	0.577665	0.418583	-0.601440	0.359670
62466		9.758716	0.487193	-0.706344	-0.006615	0.002931	-0.003429	-0.714844	-0.515625	-0.167725	0.577710	0.418472	-0.601458	0.359695
62467		9.740059	0.473961	-0.701334	-0.005285	0.003382	-0.005065	-0.717773	-0.527344	-0.166992	0.577794	0.418302	-0.601519	0.359654
62468		9.740501	0.515452	-0.720127	0.010374	0.005074	-0.006444	-0.720215	-0.522461	-0.168457	0.577784	0.418350	-0.601406	0.359806
62469		9.707089	0.494586	-0.717181	0.000764	0.002950	-0.006952	-0.717285	-0.525879	-0.165771	0.577826	0.418281	-0.601401	0.359828
62470		9.727528	0.448603	-0.722252	0.014389	0.001699	-0.011659	-0.723633	-0.530029	-0.167725	0.577785	0.418413	-0.601268	0.359961
62471		9.736311	0.515672	-0.712832	0.015772	-0.003146	-0.014526	-0.718750	-0.523682	-0.167969	0.577711	0.418602	-0.601148	0.360061
62472		9.723785	0.522552	-0.687919	0.009420	-0.007434	-0.013911	-0.717041	-0.520020	-0.172852	0.577658	0.418711	-0.601127	0.360055
62473		9.745294	0.500575	-0.701627	0.010595	-0.007778	-0.012603	-0.722900	-0.516357	-0.177002	0.577632	0.418751	-0.601157	0.359999
62474		9.735951	0.502244	-0.725616	0.005547	-0.006885	-0.013317	-0.727783	-0.521240	-0.174561	0.577673	0.418673	-0.601267	0.359840
62475		9.741205	0.540338	-0.718254	0.004350	-0.002342	-0.012039	-0.717529	-0.524414	-0.166016	0.577717	0.418606	-0.601324	0.359753
62476		9.726779	0.512186	-0.729096	0.002888	-0.007788	-0.010045	-0.714844	-0.516602	-0.171631	0.577667	0.418661	-0.601341	0.359741
62477		9.754168	0.530048	-0.713635	0.011552	-0.011411	-0.008173	-0.724365	-0.528809	-0.170410	0.577591	0.418676	-0.601430	0.359696
62478		9.735227	0.517196	-0.712691	0.011654	-0.014181	-0.006370	-0.714600	-0.521973	-0.161865	0.577447	0.418775	-0.601484	0.359722
62479		9.753751	0.504597	-0.747979	0.008628	-0.005639	-0.006664	-0.709473	-0.523926	-0.170410	0.577353	0.418852	-0.601469	0.359808
62480		9.755778	0.511501	-0.741360	-0.003324	-0.000343	-0.000941	-0.719971	-0.523193	-0.164795	0.577393	0.418739	-0.601506	0.359813
62481		9.721526	0.472496	-0.712490	0.000397	-0.004803	-0.005763	-0.723633	-0.524902	-0.174805	0.577355	0.418720	-0.601547	0.359827
62482		9.745648	0.495149	-0.737436	0.000914	-0.000956	-0.007004	-0.721680	-0.526123	-0.172607	0.577404	0.418628	-0.601592	0.359781
62483		9.745864	0.434079	-0.724780	0.002767	0.002808	-0.007595	-0.718750	-0.525391	-0.161133	0.577460	0.418569	-0.601572	0.359793
62484		9.748247	0.482236	-0.736145	0.005947	0.007027	-0.009827	-0.718506	-0.517090	-0.167236	0.577473	0.418620	-0.601444	0.359927
62485		9.722714	0.475154	-0.744722	-0.000967	0.008850	-0.012855	-0.720703	-0.518555	-0.181152	0.577605	0.418519	-0.601405	0.359897
62486		9.766871	0.468322	-0.696592	0.002479	-0.001398	-0.014369	-0.722412	-0.521240	-0.168457	0.577726	0.418408	-0.601468	0.359727
62487		9.736049	0.501272	-0.686674	0.011973	-0.004266	-0.016734	-0.717041	-0.522949	-0.169678	0.577700	0.418509	-0.601430	0.359715
62488		9.688021	0.520669	-0.777610	0.017465	-0.007421	-0.018761	-0.717773	-0.525146	-0.176025	0.577642	0.418695	-0.601356	0.359715
62489		9.704884	0.544547	-0.748317	0.006664	-0.001409	-0.016305	-0.716553	-0.520020	-0.169678	0.577710	0.418724	-0.601316	0.359639
62490		9.725509	0.534499	-0.704637	0.013009	-0.001264	-0.016319	-0.714355	-0.516113	-0.171875	0.577718	0.418805	-0.601255	0.359635
62491		9.768717	0.550476	-0.740469	0.020118	0.003880	-0.011548	-0.720215	-0.518799	-0.171387	0.577728	0.418834	-0.601181	0.359707
62492		9.761534	0.517169	-0.734642	0.004126	0.002166	-0.007882	-0.718018	-0.520752	-0.163574	0.577780	0.418738	-0.601208	0.359690
62493		9.733354	0.491846	-0.704319	0.004740	-0.004013	-0.010651	-0.718506	-0.523926	-0.170166	0.577744	0.418778	-0.601207	0.359705
62494		9.700426	0.517594	-0.701492	0.001867	0.000617	-0.010989	-0.713135	-0.526123	-0.168945	0.577795	0.418750	-0.601193	0.359679
62495		9.738047	0.526374	-0.717212	0.004342	0.001298	-0.010397	-0.713867	-0.520508	-0.167969	0.577829	0.418773	-0.601128	0.359706
62496		9.721166	0.514546	-0.726161	0.007594	0.003320	-0.009903	-0.712158	-0.530518	-0.165039	0.577861	0.418768	-0.601074	0.359750
62497		9.736437	0.536390	-0.681771	0.007605	-0.000844	-0.009277	-0.718262	-0.521973	-0.166748	0.577826	0.418882	-0.600966	0.359855
62498		9.747055	0.505450	-0.724145	0.013596	-0.008412	-0.004863	-0.716309	-0.532471	-0.167725	0.577702	0.418945	-0.600995	0.359933
62499		9.715125	0.552867	-0.729464	0.010949	-0.008819	-0.007088	-0.719238	-0.527344	-0.170898	0.577587	0.419090	-0.600949	0.360025
62500		9.732966	0.482812	-0.716496	0.006072	-0.004594	-0.004498	-0.714355	-0.522949	-0.169678	0.577543	0.419089	-0.600966	0.360066
62501		9.753459	0.464451	-0.693712	0.001759	0.002344	-0.005004	-0.719238	-0.517578	-0.164062	0.577584	0.419015	-0.600963	0.360094
62502		9.742287	0.492746	-0.672975	0.000049	0.003537	-0.007989	-0.717041	-0.525146	-0.168701	0.577630	0.418925	-0.600977	0.360100
62503		9.719859	0.479856	-0.731410	0.005214	0.000406	-0.010984	-0.722412	-0.517334	-0.172363	0.577650	0.418951	-0.600926	0.360123
62504		9.742052	0.503275	-0.742706	0.002466	-0.005532	-0.010546	-0.716309	-0.522461	-0.168701	0.577670	0.418875	-0.601022	0.360019
62505		9.727471	0.503698	-0.725180	0.000180	-0.006519	-0.012727	-0.718262	-0.524902	-0.162842	0.577679	0.418888	-0.601052	0.359939
62506		9.748890	0.510147	-0.709571	0.008017	-0.002546	-0.011096	-0.725342	-0.523438	-0.166992	0.577629	0.418982	-0.600994	0.360007
62507		9.727359	0.515277	-0.706263	0.007126	-0.004743	-0.014479	-0.716797	-0.526855	-0.166992	0.577602	0.419046	-0.600987	0.359987
62508		9.736514	0.491366	-0.714258	0.011442	-0.008046	-0.012309	-0.718506	-0.527832	-0.167236	0.577519	0.419189	-0.600944	0.360025
62509		9.756803	0.554530	-0.733104	0.005658	-0.005997	-0.009877	-0.720703	-0.521973	-0.170166	0.577470	0.419265	-0.600925	0.360049
62510		9.744791	0.491912	-0.716162	0.002332	-0.002728	-0.009148	-0.710693	-0.521240	-0.171143	0.577487	0.419219	-0.600963	0.360010
62511		9.740457	0.521945	-0.750696	0.000484	0.004889	-0.009064	-0.719971	-0.521729	-0.173096	0.577587	0.419139	-0.600933	0.359994
62512		9.726189	0.481720	-0.710402	-0.000523	0.004955	-0.008746	-0.711670	-0.521729	-0.168457	0.577690	0.419019	-0.600939	0.359958
62513		9.749159	0.482429	-0.727723	0.006529	0.000876	-0.012645	-0.719971	-0.527832	-0.166992	0.577725	0.419049	-0.600881	0.359965
62514		9.736812	0.489226	-0.700925	0.004756	0.003198	-0.013784	-0.720703	-0.519287	-0.177002	0.577761	0.419106	-0.600782	0.360005
62515		9.749153	0.534392	-0.725953	0.004874	0.000429	-0.011968	-0.721924	-0.519287	-0.170654	0.577840	0.419024	-0.600812	0.359923
62516		9.709228	0.524647	-0.717331	0.002214	0.000045	-0.010970	-0.713867	-0.517822	-0.172607	0.577891	0.418953	-0.600845	0.359869
62517		9.741203	0.527196	-0.713290	0.001394	-0.000193	-0.012242	-0.720947	-0.528809	-0.171387	0.577970	0.418884	-0.600870	0.359782
62518		9.764273	0.488189	-0.710662	0.003168	0.004713	-0.010997	-0.717529	-0.525391	-0.176270	0.578033	0.418878	-0.600794	0.359813
62519		9.752428	0.466179	-0.711488	0.000649	0.005126	-0.012961	-0.722900	-0.516846	-0.169434	0.578157	0.418818	-0.600747	0.359763
62520		9.742799	0.496445	-0.704341	0.004136	0.002127	-0.014357	-0.716797	-0.531982	-0.167725	0.578221	0.418767	-0.600753	0.359708
62521		9.727171	0.514565	-0.699280	0.015077	-0.002992	-0.016573	-0.718018	-0.518555	-0.167236	0.578166	0.418984	-0.600603	0.359796
62522		9.720880	0.545701	-0.720883	0.003233	-0.000042	-0.014521	-0.719971	-0.519775	-0.169678	0.578211	0.418973	-0.600597	0.359747
62523		9.725546	0.492582	-0.714033	0.000720	0.003460	-0.012522	-0.717529	-0.524170	-0.171875	0.578294	0.418904	-0.600592	0.359702
62524		9.730789	0.536749	-0.684200	0.006192	0.000904	-0.013631	-0.721924	-0.524658	-0.170654	0.578337	0.418923	-0.600543	0.359690
62525		9.737281	0.529640	-0.690885	0.013725	-0.002876	-0.014006	-0.714600	-0.514893	-0.172363	0.578303	0.419018	-0.600492	0.359721
62526		9.732624	0.514553	-0.727524	0.011396	-0.003276	-0.012038	-0.718750	-0.522949	-0.178467	0.578307	0.419008	-0.600520	0.359680
62527		9.752314	0.520970	-0.697626	0.012246	-0.000000	-0.013257	-0.718750	-0.522217	-0.173340	0.578348	0.419016	-0.600490	0.359655
62528		9.731671	0.503187	-0.700867	0.003608	-0.001152	-0.012189	-0.724609	-0.525146	-0.163086	0.578395	0.418984	-0.600501	0.359599
62529		9.734372	0.535511	-0.700973	0.010226	-0.006562	-0.015024	-0.720947	-0.525391	-0.168945	0.578313	0.419120	-0.600467	0.359629
62530		9.725346	0.542695	-0.703393	0.004740	-0.003982	-0.010689	-0.713623	-0.531250	-0.170410	0.578295	0.419143	-0.600471	0.359622
62531		9.743530	0.514116	-0.709496	0.005022	-0.002889	-0.011096	-0.711182	-0.519287	-0.173828	0.578290	0.419219	-0.600409	0.359646
62532		9.737223	0.544353	-0.730670	0.001559	0.003136	-0.012191	-0.719727	-0.526855	-0.175537	0.578396	0.419142	-0.600401	0.359579
62533		9.731900	0.546236	-0.688958	0.003433	0.002216	-0.009865	-0.715576	-0.524658	-0.168213	0.578460	0.419095	-0.600380	0.359565
62534		9.734712	0.531779	-0.688851	0.006944	-0.001310	-0.008961	-0.719482	-0.516113	-0.178955	0.578445	0.419121	-0.600352	0.359606
62535		9.738913	0.511493	-0.724356	0.006615	-0.004897	-0.008366	-0.722412	-0.520996	-0.163574	0.578470	0.419015	-0.600460	0.359509
62536		9.757391	0.534021	-0.709083	0.007495	-0.005785	-0.008948	-0.714111	-0.527344	-0.160889	0.578393	0.419053	-0.600488	0.359542
62537		9.723309	0.535992	-0.700757	0.002081	-0.004372	-0.009691	-0.710693	-0.521484	-0.171143	0.578342	0.419131	-0.600453	0.359590
62538		9.738609	0.523343	-0.707338	0.004495	-0.006139	-0.005685	-0.710938	-0.525146	-0.171143	0.578316	0.419104	-0.600506	0.359576
62539		9.746026	0.492018	-0.722555	0.002886	-0.007190	-0.009157	-0.719482	-0.519531	-0.173096	0.578298	0.419125	-0.600531	0.359539
62540		9.751943	0.512546	-0.701998	0.008907	-0.003920	-0.009422	-0.717285	-0.528076	-0.168213	0.578287	0.419102	-0.600572	0.359514
62541		9.771402	0.512387	-0.692924	0.003601	0.001946	-0.008238	-0.718506	-0.526367	-0.175781	0.578304	0.419105	-0.600521	0.359569
62542		9.745006	0.526970	-0.695525	0.005407	0.002666	-0.009591	-0.714355	-0.517334	-0.161377	0.578362	0.419069	-0.600488	0.359573
62543		9.734276	0.538229	-0.752287	0.007758	-0.001059	-0.007699	-0.721680	-0.518311	-0.169922	0.578320	0.419077	-0.600485	0.359636
62544		9.729736	0.562241	-0.718416	0.002589	-0.004653	-0.007089	-0.714355	-0.522461	-0.167236	0.578310	0.419000	-0.600575	0.359592
62545		9.729213	0.500867	-0.692853	0.004415	-0.004468	-0.006138	-0.712891	-0.523193	-0.170654	0.578272	0.418994	-0.600602	0.359614
62546		9.748039	0.488504	-0.726353	0.007632	-0.001885	-0.007962	-0.713623	-0.519775	-0.170654	0.578263	0.419002	-0.600588	0.359642
62547		9.761554	0.521574	-0.717496	0.002217	-0.000480	-0.008700	-0.707764	-0.525146	-0.169922	0.578302	0.418942	-0.600610	0.359613
62548		9.748112	0.498466	-0.705766	0.002860	0.000037	-0.009066	-0.718018	-0.518066	-0.173584	0.578334	0.418947	-0.600569	0.359626
62549		9.728705	0.508683	-0.694293	0.007579	-0.000781	-0.009342	-0.716553	-0.525879	-0.173096	0.578358	0.418892	-0.600598	0.359602
62550		9.737780	0.524130	-0.721265	0.006177	-0.002672	-0.012105	-0.718506	-0.531738	-0.174072	0.578372	0.418923	-0.600574	0.359583
62551		9.739171	0.515860	-0.687006	0.006270	-0.001276	-0.010920	-0.716309	-0.522461	-0.170410	0.578382	0.418974	-0.600517	0.359604
62552		9.739433	0.535285	-0.715386	0.009631	-0.005055	-0.009349	-0.723145	-0.514893	-0.170166	0.578340	0.419010	-0.600523	0.359618
62553		9.742225	0.520871	-0.716475	0.010065	-0.003699	-0.010426	-0.718262	-0.521484	-0.167236	0.578318	0.418980	-0.600580	0.359593
62554		9.730596	0.549216	-0.697418	0.013958	-0.001635	-0.004776	-0.716553	-0.524170	-0.174072	0.578244	0.419005	-0.600568	0.359705
62555		9.719566	0.496758	-0.728444	0.012794	-0.004931	-0.007756	-0.709717	-0.518799	-0.170410	0.578196	0.419040	-0.600569	0.359738
62556		9.736917	0.490406	-0.728049	0.011600	-0.007661	-0.009808	-0.719238	-0.532227	-0.167236	0.578141	0.419091	-0.600590	0.359731
62557		9.739302	0.510636	-0.680907	0.009339	-0.009203	-0.009683	-0.721924	-0.526367	-0.173584	0.578038	0.419227	-0.600562	0.359785
62558		9.739721	0.535763	-0.690143	0.010149	-0.012016	-0.009148	-0.716309	-0.523438	-0.172852	0.577947	0.419292	-0.600619	0.359761
62559		9.767217	0.519620	-0.723886	0.012094	-0.004340	-0.008780	-0.710449	-0.524414	-0.168213	0.577911	0.419327	-0.600616	0.359785
62560		9.732587	0.560800	-0.735663	0.008041	-0.003546	-0.006559	-0.722900	-0.517090	-0.166016	0.577873	0.419357	-0.600601	0.359834
62561		9.736489	0.522681	-0.743372	0.001923	-0.001540	-0.005069	-0.717529	-0.531738	-0.173828	0.577866	0.419255	-0.600681	0.359830
