// Start Time: Unknown
// Update Rate: 40.0Hz
// Filter Profile: human (46.1)
// Firmware Version: 4.6.0
PacketCounter	SampleTimeFine	Acc_X	Acc_Y	Acc_Z	Gyr_X	Gyr_Y	Gyr_Z	Mag_X	Mag_Y	Mag_Z	Quat_q0	Quat_q1	Quat_q2	Quat_q3
61647		9.505042	-0.369007	-2.125514	0.006002	-0.021490	-0.007865	-0.612061	-0.012695	0.592041	-0.019593	-0.778402	0.054747	-0.625067
61648		9.525732	-0.393904	-2.223793	0.015235	-0.026950	-0.004922	-0.614014	-0.011230	0.588135	-0.019464	-0.778620	0.054586	-0.624814
61649		9.482701	-0.430491	-2.201110	0.004511	-0.020847	-0.003074	-0.610596	-0.009766	0.579834	-0.019429	-0.778782	0.054527	-0.624618
61650		9.485929	-0.389721	-2.177601	0.018253	-0.025725	-0.006188	-0.617188	-0.013184	0.586914	-0.019280	-0.778994	0.054332	-0.624376
61651		9.541478	-0.394410	-2.146758	0.021950	-0.030945	-0.003311	-0.610840	-0.009277	0.580566	-0.019067	-0.779247	0.054139	-0.624083
61652		9.499586	-0.404980	-2.110637	-0.014342	-0.007703	0.003007	-0.606689	-0.014648	0.579834	-0.019172	-0.779305	0.054287	-0.623995
61653		9.488027	-0.347373	-2.202635	-0.001440	-0.003790	-0.007331	-0.617676	-0.010010	0.577393	-0.019232	-0.779339	0.054235	-0.623955
61654		9.480232	-0.372934	-2.238056	-0.007640	-0.015104	-0.006747	-0.607666	-0.012695	0.584717	-0.019342	-0.779465	0.054238	-0.623794
61655		9.490110	-0.419416	-2.215012	-0.026134	-0.010853	-0.001670	-0.607178	-0.010498	0.583252	-0.019595	-0.779560	0.054435	-0.623650
61656		9.494028	-0.347931	-2.167336	-0.021310	-0.011398	-0.002083	-0.601562	-0.004883	0.581055	-0.019794	-0.779667	0.054597	-0.623495
61657		9.482249	-0.328399	-2.177460	-0.034103	-0.017480	-0.000522	-0.609619	-0.003906	0.571045	-0.020105	-0.779817	0.054874	-0.623273
61658		9.513352	-0.372202	-2.184328	-0.016921	-0.009256	-0.006999	-0.607910	-0.012207	0.577637	-0.020311	-0.779911	0.054947	-0.623143
61659		9.517984	-0.362947	-2.146630	-0.010553	-0.004099	-0.008982	-0.599121	-0.016357	0.566895	-0.020475	-0.779971	0.054949	-0.623063
61660		9.517485	-0.355018	-2.222464	-0.015380	-0.014400	-0.004789	-0.605225	-0.008057	0.580811	-0.020651	-0.780094	0.055030	-0.622895
61661		9.499665	-0.340482	-2.220845	0.006325	-0.012635	-0.009080	-0.607422	-0.011719	0.575928	-0.020641	-0.780228	0.054903	-0.622739
61662		9.488948	-0.358902	-2.187482	0.002124	-0.010736	-0.007428	-0.604980	-0.009277	0.581787	-0.020667	-0.780345	0.054821	-0.622599
61663		9.492129	-0.372883	-2.194978	-0.005162	-0.009398	-0.006417	-0.601318	-0.004883	0.567627	-0.020752	-0.780454	0.054808	-0.622461
61664		9.468934	-0.361712	-2.221854	-0.007930	-0.004046	-0.009667	-0.605469	-0.006104	0.582520	-0.020884	-0.780502	0.054791	-0.622397
61665		9.515295	-0.344654	-2.233445	-0.000062	-0.003370	-0.011361	-0.604004	-0.010498	0.585693	-0.020948	-0.780575	0.054695	-0.622312
61666		9.523298	-0.376631	-2.253966	0.000072	-0.005206	-0.007913	-0.609375	-0.015137	0.577637	-0.020992	-0.780669	0.054625	-0.622199
61667		9.465627	-0.371509	-2.250626	-0.021247	-0.001872	-0.002008	-0.605225	-0.018311	0.584717	-0.021209	-0.780713	0.054778	-0.622123
61668		9.468400	-0.317770	-2.276639	-0.013852	0.002011	-0.007822	-0.610596	-0.002441	0.578857	-0.021405	-0.780755	0.054813	-0.622060
61669		9.464676	-0.299595	-2.272024	-0.011437	-0.005398	-0.007050	-0.604004	-0.016602	0.582275	-0.021521	-0.780844	0.054867	-0.621940
61670		9.471074	-0.390011	-2.244826	-0.021016	-0.009426	-0.006855	-0.609863	-0.010498	0.585449	-0.021783	-0.780982	0.054960	-0.621749
61671		9.520561	-0.418982	-2.243048	-0.010900	-0.006662	-0.011828	-0.599365	-0.014648	0.585205	-0.021949	-0.781109	0.054947	-0.621585
61672		9.517834	-0.407783	-2.217059	0.001051	-0.009154	-0.008200	-0.604492	-0.008545	0.588379	-0.021977	-0.781260	0.054875	-0.621400
61673		9.491131	-0.416746	-2.186957	0.016382	-0.005022	-0.008831	-0.605713	-0.016113	0.583984	-0.021821	-0.781385	0.054702	-0.621264
61674		9.488880	-0.375908	-2.179540	0.008087	-0.003157	-0.009334	-0.611328	-0.014893	0.575928	-0.021782	-0.781466	0.054569	-0.621176
61675		9.518677	-0.380712	-2.175362	0.022355	-0.001392	-0.012912	-0.611572	-0.011475	0.580078	-0.021632	-0.781488	0.054303	-0.621176
61676		9.504304	-0.343839	-2.217716	0.017760	0.002529	-0.013839	-0.602051	-0.005859	0.590332	-0.021510	-0.781486	0.054072	-0.621203
61677		9.479604	-0.351944	-2.277077	0.010136	0.005223	-0.013494	-0.599365	-0.020752	0.579346	-0.021422	-0.781522	0.053904	-0.621176
61678		9.464582	-0.342224	-2.288937	-0.002907	0.010011	-0.012536	-0.612793	-0.009766	0.574219	-0.021584	-0.781476	0.053805	-0.621236
61679		9.477907	-0.331973	-2.319662	-0.007278	0.000352	-0.009302	-0.609619	-0.007080	0.575928	-0.021671	-0.781450	0.053823	-0.621265
61680		9.500285	-0.335052	-2.284641	-0.024640	0.005150	-0.007351	-0.614502	-0.003906	0.581055	-0.021894	-0.781402	0.053997	-0.621301
61681		9.490955	-0.351795	-2.246215	-0.020616	0.016183	-0.011250	-0.611572	-0.005615	0.578857	-0.022064	-0.781288	0.054095	-0.621431
61682		9.446532	-0.363992	-2.283201	-0.014028	0.010977	-0.012243	-0.607178	-0.010986	0.581543	-0.022193	-0.781213	0.054132	-0.621517
61683		9.473770	-0.385346	-2.261340	-0.014095	0.005240	-0.007827	-0.601562	-0.012939	0.576172	-0.022328	-0.781214	0.054190	-0.621506
61684		9.496071	-0.359387	-2.204252	-0.014643	0.002713	-0.007527	-0.613037	-0.016113	0.579590	-0.022506	-0.781224	0.054268	-0.621480
61685		9.513513	-0.310629	-2.163838	-0.013449	0.013217	-0.007950	-0.610352	-0.018799	0.582520	-0.022684	-0.781125	0.054316	-0.621594
61686		9.463844	-0.331635	-2.198773	-0.005387	0.014388	-0.012416	-0.614014	-0.004150	0.577393	-0.022844	-0.781049	0.054237	-0.621691
61687		9.490216	-0.343923	-2.240784	-0.002986	0.003707	-0.015751	-0.611084	-0.014893	0.572754	-0.022835	-0.781005	0.054162	-0.621753
61688		9.511758	-0.343391	-2.196390	-0.016043	0.001710	-0.011147	-0.609131	-0.010742	0.578857	-0.023073	-0.780952	0.054226	-0.621805
61689		9.521315	-0.354060	-2.128556	-0.024656	0.011993	-0.003742	-0.608398	-0.014648	0.580078	-0.023256	-0.780862	0.054407	-0.621895
61690		9.488740	-0.327932	-2.166900	-0.017386	0.010829	-0.007046	-0.610840	-0.013428	0.579834	-0.023438	-0.780794	0.054487	-0.621966
61691		9.475766	-0.357523	-2.188260	-0.015914	-0.003550	-0.009515	-0.605469	-0.016602	0.577881	-0.023590	-0.780824	0.054538	-0.621918
61692		9.540205	-0.392308	-2.120048	-0.006331	0.003923	-0.007885	-0.607666	-0.022461	0.578369	-0.023700	-0.780812	0.054533	-0.621930
61693		9.523770	-0.352461	-2.059088	-0.018147	0.014602	-0.007614	-0.612305	-0.016113	0.581543	-0.024017	-0.780700	0.054614	-0.622052
61694		9.510578	-0.342413	-2.162067	0.002606	0.009840	-0.012453	-0.612793	-0.016113	0.577148	-0.024031	-0.780627	0.054482	-0.622155
61695		9.510111	-0.361635	-2.204684	0.008109	0.006722	-0.013829	-0.612061	-0.012451	0.578369	-0.024017	-0.780541	0.054312	-0.622277
61696		9.477851	-0.339943	-2.211562	-0.005753	0.009359	-0.006751	-0.608154	-0.017578	0.580078	-0.024011	-0.780443	0.054314	-0.622400
61697		9.472963	-0.316453	-2.185450	-0.006334	0.010554	-0.009232	-0.608887	-0.016357	0.582275	-0.024118	-0.780383	0.054284	-0.622474
61698		9.456073	-0.361361	-2.182269	0.004401	-0.005391	-0.013878	-0.617676	-0.008789	0.577637	-0.024107	-0.780470	0.054118	-0.622379
61699		9.522445	-0.399711	-2.174885	-0.005434	-0.002271	-0.011515	-0.604980	-0.020996	0.576172	-0.024043	-0.780421	0.054081	-0.622447
61700		9.532163	-0.348944	-2.146279	-0.008726	0.013722	-0.007592	-0.607422	-0.020020	0.580811	-0.024250	-0.780326	0.054107	-0.622556
61701		9.509614	-0.308632	-2.147059	-0.003055	0.008395	-0.008201	-0.614746	-0.021484	0.576416	-0.024346	-0.780301	0.054059	-0.622588
61702		9.501324	-0.321681	-2.233862	-0.003477	0.003956	-0.011727	-0.610840	-0.019775	0.572754	-0.024518	-0.780215	0.054003	-0.622694
61703		9.443249	-0.343642	-2.199427	-0.010130	0.009307	-0.013021	-0.619629	-0.015381	0.577881	-0.024752	-0.780086	0.054003	-0.622846
61704		9.480901	-0.348393	-2.181795	-0.002483	0.003214	-0.015172	-0.605957	-0.020264	0.583252	-0.024778	-0.779991	0.053888	-0.622974
61705		9.545127	-0.347364	-2.164731	0.000711	-0.000611	-0.009842	-0.605957	-0.024658	0.575195	-0.024818	-0.780090	0.053785	-0.622857
61706		9.507231	-0.364992	-2.151300	0.000619	0.007412	-0.007747	-0.611572	-0.007080	0.575439	-0.024996	-0.780045	0.053749	-0.622910
61707		9.500064	-0.332202	-2.138768	0.012431	0.010377	-0.008023	-0.611572	-0.017578	0.572021	-0.024632	-0.779935	0.053590	-0.623075
61708		9.476443	-0.289446	-2.130791	-0.003662	0.006533	-0.009818	-0.612305	-0.020508	0.584229	-0.024716	-0.779820	0.053574	-0.623217
61709		9.496732	-0.307530	-2.162297	0.006080	0.004611	-0.013703	-0.614258	-0.011719	0.574707	-0.024724	-0.779846	0.053375	-0.623201
61710		9.528075	-0.318343	-2.134160	0.008314	0.000449	-0.012949	-0.612061	-0.020264	0.577148	-0.024543	-0.779790	0.053208	-0.623293
61711		9.523342	-0.328694	-2.100045	-0.001975	0.000196	-0.006099	-0.607178	-0.020752	0.577881	-0.024608	-0.779774	0.053187	-0.623312
61712		9.502540	-0.323754	-2.142682	0.003993	0.010344	-0.009205	-0.610352	-0.023926	0.577637	-0.024656	-0.779734	0.053084	-0.623369
61713		9.503960	-0.293434	-2.169752	0.011409	0.004084	-0.013162	-0.608887	-0.021484	0.580811	-0.024735	-0.779719	0.052892	-0.623401
61714		9.503029	-0.314559	-2.171662	0.001603	0.006669	-0.011191	-0.613525	-0.017578	0.572998	-0.024813	-0.779727	0.052773	-0.623399
61715		9.481737	-0.341466	-2.153239	0.001735	0.004971	-0.010044	-0.609375	-0.020264	0.576172	-0.024818	-0.779623	0.052698	-0.623535
61716		9.519212	-0.316526	-2.155842	-0.000589	0.000626	-0.010119	-0.606201	-0.015137	0.576904	-0.024896	-0.779628	0.052632	-0.623531
61717		9.500391	-0.321577	-2.185841	0.000693	0.003171	-0.005355	-0.612549	-0.017578	0.577393	-0.024786	-0.779648	0.052589	-0.623514
61718		9.478087	-0.315782	-2.178309	-0.001233	0.003058	-0.006871	-0.610596	-0.012695	0.585693	-0.024761	-0.779615	0.052541	-0.623560
61719		9.496917	-0.302351	-2.179305	-0.008672	0.002628	-0.008828	-0.617676	-0.007568	0.578857	-0.024643	-0.779693	0.052474	-0.623472
61720		9.505311	-0.335389	-2.157036	-0.006000	0.002185	-0.009895	-0.614990	-0.019043	0.577393	-0.024422	-0.779634	0.052417	-0.623560
61721		9.502825	-0.355484	-2.109039	-0.006749	0.002741	-0.007312	-0.608398	-0.020996	0.575439	-0.024492	-0.779582	0.052410	-0.623623
61722		9.525395	-0.353389	-2.146450	-0.004888	0.010004	-0.006757	-0.607666	-0.019043	0.563232	-0.024612	-0.779516	0.052413	-0.623700
61723		9.543332	-0.332759	-2.168617	-0.005304	0.008985	-0.008472	-0.618408	-0.023926	0.575684	-0.024799	-0.779334	0.052506	-0.623912
61724		9.498721	-0.291010	-2.172975	-0.004499	0.004700	-0.008283	-0.609131	-0.016113	0.575195	-0.024975	-0.779227	0.052488	-0.624040
61725		9.461117	-0.339540	-2.139010	-0.007455	0.011963	-0.007696	-0.618408	-0.017090	0.575928	-0.024978	-0.779149	0.052485	-0.624138
61726		9.504023	-0.368010	-2.103114	-0.015178	0.005751	-0.009366	-0.618164	-0.021729	0.571533	-0.025071	-0.779041	0.052516	-0.624266
61727		9.520534	-0.370366	-2.129452	-0.014242	0.006245	-0.007079	-0.607422	-0.015869	0.572998	-0.025291	-0.778886	0.052610	-0.624443
61728		9.521431	-0.341856	-2.114685	-0.001247	0.012607	-0.006773	-0.617920	-0.022705	0.584229	-0.025213	-0.778808	0.052577	-0.624546
61729		9.528210	-0.304156	-2.142580	0.006592	0.010798	-0.007198	-0.621094	-0.018311	0.575928	-0.025143	-0.778772	0.052400	-0.624609
61730		9.495952	-0.314123	-2.129372	-0.014183	0.011695	-0.006893	-0.614502	-0.019287	0.565918	-0.025221	-0.778605	0.052442	-0.624811
61731		9.480162	-0.332441	-2.111824	-0.009797	0.010481	-0.013598	-0.610840	-0.025879	0.581787	-0.025423	-0.778412	0.052478	-0.625039
61732		9.509338	-0.358930	-2.108494	0.002898	0.005101	-0.013570	-0.614502	-0.020996	0.578857	-0.025530	-0.778479	0.052299	-0.624967
61733		9.518613	-0.359809	-2.146145	0.001558	0.007409	-0.005830	-0.613525	-0.014893	0.575195	-0.025475	-0.778453	0.052213	-0.625008
61734		9.502021	-0.319991	-2.126616	0.003057	0.009923	-0.004214	-0.623291	-0.017090	0.575439	-0.025267	-0.778379	0.052149	-0.625115
61735		9.479030	-0.285202	-2.097188	0.008907	-0.003770	-0.009590	-0.612549	-0.016357	0.567139	-0.025083	-0.778332	0.051984	-0.625194
61736		9.518790	-0.299557	-2.109896	0.005230	-0.006213	-0.011862	-0.622070	-0.017578	0.572021	-0.025027	-0.778316	0.051913	-0.625222
61737		9.507536	-0.341626	-2.077680	0.005759	0.002647	-0.008906	-0.614258	-0.015381	0.576660	-0.024922	-0.778194	0.051809	-0.625386
61738		9.515883	-0.344768	-2.075185	0.011351	-0.001116	-0.008361	-0.609619	-0.009033	0.575195	-0.024664	-0.778228	0.051618	-0.625370
61739		9.516162	-0.337327	-2.149153	0.011565	-0.003846	-0.007979	-0.613037	-0.020020	0.581299	-0.024258	-0.778309	0.051431	-0.625301
61740		9.530055	-0.310375	-2.104640	0.011320	-0.000958	-0.010651	-0.623779	-0.023682	0.572998	-0.024101	-0.778401	0.051173	-0.625214
61741		9.509498	-0.283354	-2.104624	0.001063	-0.005029	-0.008306	-0.615723	-0.021729	0.576904	-0.024203	-0.778332	0.051127	-0.625300
61742		9.511260	-0.317851	-2.104695	-0.002704	-0.003027	-0.008002	-0.615479	-0.019775	0.575195	-0.024250	-0.778362	0.051062	-0.625266
61743		9.532962	-0.347636	-2.083048	0.005986	-0.000797	-0.013869	-0.615967	-0.017822	0.575928	-0.024228	-0.778364	0.050890	-0.625279
61744		9.528789	-0.355706	-2.090647	0.005312	-0.001273	-0.012052	-0.612549	-0.016602	0.570557	-0.024141	-0.778370	0.050729	-0.625287
61745		9.484224	-0.343713	-2.119114	0.020242	-0.004307	-0.010311	-0.613525	-0.010986	0.574463	-0.023927	-0.778378	0.050536	-0.625301
61746		9.439690	-0.336591	-2.116656	0.008280	-0.011233	-0.009098	-0.613770	-0.019287	0.576416	-0.023641	-0.778467	0.050392	-0.625213
61747		9.502719	-0.331796	-2.134902	0.002389	-0.015803	-0.008107	-0.615234	-0.023438	0.571533	-0.023588	-0.778605	0.050295	-0.625050
61748		9.517939	-0.341217	-2.092399	0.008417	-0.012930	-0.007951	-0.606934	-0.015625	0.579590	-0.023636	-0.778656	0.050226	-0.624991
61749		9.553783	-0.313785	-2.088048	0.002731	-0.002025	-0.009460	-0.619629	-0.023193	0.579102	-0.023485	-0.778772	0.050075	-0.624864
61750		9.546582	-0.309529	-2.099344	-0.004979	0.004184	-0.009616	-0.610596	-0.020996	0.570312	-0.023587	-0.778720	0.049988	-0.624932
61751		9.499963	-0.313614	-2.152147	-0.006742	0.005270	-0.008558	-0.611572	-0.023193	0.576172	-0.023755	-0.778648	0.050043	-0.625011
61752		9.416690	-0.344871	-2.169465	-0.000066	0.005718	-0.011648	-0.619141	-0.017578	0.565674	-0.023859	-0.778630	0.049942	-0.625038
61753		9.481779	-0.345941	-2.161603	-0.001960	-0.003941	-0.013249	-0.614746	-0.018555	0.574463	-0.023955	-0.778519	0.049950	-0.625172
61754		9.542962	-0.336311	-2.117352	-0.013194	-0.000972	-0.004221	-0.610352	-0.025635	0.580811	-0.024020	-0.778504	0.050033	-0.625181
61755		9.568774	-0.320303	-2.138449	-0.000654	0.010179	-0.010025	-0.613281	-0.022705	0.576172	-0.024119	-0.778511	0.049906	-0.625178
61756		9.456453	-0.323501	-2.114517	-0.004003	0.012837	-0.010677	-0.614502	-0.025391	0.583496	-0.024227	-0.778426	0.049840	-0.625285
61757		9.512456	-0.355179	-2.316085	-0.026165	-0.035730	-0.016623	-0.606689	-0.009033	0.577393	-0.024543	-0.778782	0.049821	-0.624831
61758		9.504747	-0.315612	-2.448872	-0.047070	-0.042734	-0.017542	-0.612793	-0.022461	0.579102	-0.024773	-0.779179	0.050039	-0.624310
61759		9.591499	-0.304597	-2.248288	0.059125	0.032705	-0.039874	-0.616211	-0.016357	0.575684	-0.024445	-0.778991	0.049165	-0.624626
61760		9.490520	-0.244331	-2.037557	0.131603	0.061624	-0.056697	-0.613281	-0.021240	0.568848	-0.023467	-0.778554	0.047587	-0.625331
61761		9.399224	-0.280919	-2.103077	0.076434	0.046096	-0.032802	-0.618408	-0.016357	0.579590	-0.023033	-0.778180	0.046756	-0.625874
61762		9.296715	-0.274701	-2.251034	0.040054	0.017549	-0.006416	-0.624756	-0.023438	0.577637	-0.022503	-0.778077	0.046323	-0.626054
61763		9.437801	-0.244907	-2.191582	0.063025	0.006684	-0.006457	-0.616211	-0.020264	0.574707	-0.021908	-0.778003	0.045716	-0.626212
61764		9.592986	-0.255578	-1.972587	0.125936	0.029135	-0.027265	-0.619141	-0.022217	0.577637	-0.020878	-0.777824	0.044462	-0.626559
61765		9.501662	-0.192506	-1.760020	0.129447	0.007582	-0.032072	-0.608643	-0.017822	0.578613	-0.019861	-0.777827	0.043087	-0.626685
61766		9.657712	-0.348259	-1.806739	0.091005	-0.008248	-0.019810	-0.616699	-0.017822	0.572021	-0.019068	-0.778025	0.042152	-0.626527
61767		9.618160	-0.380464	-1.937903	0.085713	-0.024439	-0.006669	-0.608154	-0.016602	0.575928	-0.018290	-0.778210	0.041454	-0.626367
61768		9.565873	-0.376623	-1.992965	0.066100	-0.031881	0.008442	-0.618164	-0.005859	0.577637	-0.017562	-0.778535	0.041040	-0.626011
61769		9.520398	-0.326692	-1.938862	0.048668	-0.023738	0.009749	-0.612793	-0.019775	0.570312	-0.016780	-0.778716	0.040752	-0.625827
61770		9.594517	-0.294749	-1.852460	0.044897	-0.003219	-0.003057	-0.618896	-0.010742	0.578857	-0.016515	-0.778715	0.040441	-0.625855
61771		9.525834	-0.213595	-1.979170	0.050931	-0.002862	-0.014329	-0.608887	-0.003418	0.579102	-0.016017	-0.778744	0.039869	-0.625869
61772		9.523699	-0.309206	-2.085120	0.038484	-0.025711	-0.014000	-0.612549	-0.006592	0.582275	-0.015531	-0.779022	0.039446	-0.625562
61773		9.566815	-0.393788	-2.130716	0.008679	-0.024821	-0.004661	-0.613525	-0.008789	0.579346	-0.015292	-0.779276	0.039293	-0.625261
61774		9.563324	-0.360878	-2.107443	0.011259	-0.035371	-0.000618	-0.613525	-0.001709	0.583984	-0.015062	-0.779571	0.039190	-0.624905
61775		9.478575	-0.349707	-2.090363	0.044819	-0.067412	-0.005079	-0.615967	-0.003418	0.571777	-0.014367	-0.780152	0.038760	-0.624223
61776		9.541061	-0.411429	-2.087606	0.047734	-0.048215	-0.004876	-0.609863	-0.010742	0.581787	-0.013838	-0.780444	0.038464	-0.623889
61777		9.600030	-0.373582	-2.071900	0.055650	-0.026113	-0.006477	-0.613037	-0.005615	0.574951	-0.013289	-0.780689	0.037945	-0.623625
61778		9.419173	-0.370352	-2.087440	0.045000	-0.037001	-0.010820	-0.614502	-0.001465	0.582031	-0.012875	-0.780928	0.037570	-0.623357
61779		9.435918	-0.434141	-2.333085	0.058317	-0.055753	-0.014970	-0.608643	0.002441	0.588623	-0.012217	-0.781358	0.036972	-0.622867
61780		9.506265	-0.469904	-2.304486	0.073364	-0.041515	-0.010717	-0.607666	-0.008057	0.575195	-0.011284	-0.781759	0.036246	-0.622424
61781		9.536863	-0.329335	-2.067050	0.050404	-0.027788	-0.006223	-0.612793	0.005371	0.577637	-0.010899	-0.781938	0.035901	-0.622226
61782		9.440362	-0.263434	-2.134250	0.042442	-0.016178	-0.012769	-0.613037	-0.004395	0.581787	-0.010402	-0.782001	0.035540	-0.622176
61783		9.415253	-0.409677	-2.337925	0.036904	-0.009969	-0.014658	-0.617188	0.000244	0.577637	-0.010097	-0.782049	0.035116	-0.622144
61784		9.434923	-0.483175	-2.395306	0.027585	-0.010177	-0.017732	-0.618896	-0.004883	0.583740	-0.009875	-0.782035	0.034789	-0.622185
61785		9.444222	-0.468286	-2.247638	0.032708	-0.029465	-0.016137	-0.597900	0.003906	0.574951	-0.009594	-0.782211	0.034338	-0.621993
61786		9.469808	-0.410117	-2.158252	0.041563	-0.037042	-0.005551	-0.602783	-0.005371	0.586914	-0.009161	-0.782510	0.034136	-0.621634
61787		9.435629	-0.369208	-2.256196	0.044223	-0.035045	-0.005609	-0.604492	-0.004883	0.585938	-0.008726	-0.782849	0.033729	-0.621235
61788		9.478109	-0.375043	-2.351217	0.026876	-0.032333	-0.006664	-0.604980	-0.001709	0.584961	-0.008483	-0.783137	0.033459	-0.620891
61789		9.527287	-0.323655	-2.277791	0.022718	-0.029317	-0.012033	-0.611328	0.003174	0.583496	-0.008290	-0.783383	0.033189	-0.620597
61790		9.518983	-0.296407	-2.170019	0.009241	-0.032758	-0.010879	-0.597412	0.002441	0.576416	-0.008143	-0.783592	0.033039	-0.620343
61791		9.520944	-0.361058	-2.235624	-0.001176	-0.017164	-0.007417	-0.601318	-0.004883	0.593750	-0.008215	-0.783712	0.033152	-0.620185
61792		9.484490	-0.412352	-2.336717	-0.007659	-0.001609	-0.009045	-0.604736	0.006836	0.588623	-0.008298	-0.783814	0.033065	-0.620059
61793		9.425148	-0.401088	-2.314770	-0.009013	-0.007174	-0.015103	-0.605713	0.002441	0.584961	-0.008291	-0.783895	0.032992	-0.619960
61794		9.464486	-0.414169	-2.329706	0.004058	-0.021436	-0.011282	-0.606934	0.001221	0.585205	-0.008222	-0.784052	0.032891	-0.619768
61795		9.497862	-0.379471	-2.269561	-0.017258	-0.013313	-0.001719	-0.605225	0.000732	0.586670	-0.008306	-0.784130	0.033041	-0.619660
61796		9.443997	-0.337779	-2.289938	-0.032210	-0.001851	-0.003446	-0.613525	0.001953	0.590332	-0.008551	-0.784139	0.033278	-0.619634
61797		9.437121	-0.335900	-2.352866	-0.019329	-0.003061	-0.015277	-0.612549	0.002197	0.596680	-0.008671	-0.784135	0.033218	-0.619640
61798		9.523885	-0.389167	-2.367667	-0.015789	-0.002408	-0.013706	-0.606934	0.001465	0.594482	-0.008667	-0.784180	0.033067	-0.619591
61799		9.483092	-0.420074	-2.329246	-0.026057	-0.002539	-0.005968	-0.593994	-0.000488	0.582764	-0.008750	-0.784241	0.033120	-0.619510
61800		9.440376	-0.391537	-2.291413	-0.033742	-0.006926	-0.003695	-0.605469	0.003174	0.574707	-0.009097	-0.784329	0.033480	-0.619374
61801		9.469981	-0.367183	-2.318605	-0.017484	-0.006475	-0.007783	-0.608154	0.000732	0.591309	-0.009324	-0.784283	0.033755	-0.619414
61802		9.495757	-0.327747	-2.257613	-0.009684	-0.002320	-0.005474	-0.601562	0.001709	0.586914	-0.009277	-0.784310	0.033731	-0.619382
61803		9.483174	-0.331995	-2.267386	-0.027372	-0.001323	-0.006257	-0.598633	0.001221	0.584717	-0.009470	-0.784336	0.033929	-0.619336
61804		9.510839	-0.324304	-2.276493	-0.033902	0.004838	-0.010028	-0.612793	0.002197	0.588135	-0.009797	-0.784317	0.034184	-0.619341
61805		9.548283	-0.350692	-2.219952	-0.019186	0.009735	-0.014477	-0.599609	-0.005615	0.582275	-0.009911	-0.784200	0.034172	-0.619487
61806		9.451333	-0.382367	-2.225004	-0.022984	0.006762	-0.013900	-0.601074	0.001465	0.586670	-0.010270	-0.784150	0.034322	-0.619536
61807		9.421672	-0.399542	-2.281422	-0.013728	0.004595	-0.011858	-0.598389	0.000977	0.590332	-0.010358	-0.784138	0.034363	-0.619547
61808		9.447716	-0.385691	-2.313055	-0.003003	0.001151	-0.012668	-0.604004	-0.010742	0.585938	-0.010316	-0.784198	0.034272	-0.619478
61809		9.484629	-0.359954	-2.234739	-0.012747	-0.000428	-0.007387	-0.604004	-0.002686	0.593018	-0.010518	-0.784203	0.034326	-0.619465
61810		9.515561	-0.338619	-2.268780	-0.012775	0.005136	-0.009589	-0.604004	-0.006592	0.584717	-0.010546	-0.784213	0.034276	-0.619455
61811		9.509236	-0.337222	-2.288342	-0.014239	0.005500	-0.009770	-0.601074	-0.006104	0.580322	-0.010737	-0.784163	0.034345	-0.619510
61812		9.486152	-0.326982	-2.271447	-0.022456	0.001607	-0.008085	-0.603760	0.000488	0.580811	-0.011047	-0.784130	0.034575	-0.619535
61813		9.423989	-0.357521	-2.234448	-0.021627	0.002398	-0.010395	-0.608887	0.003906	0.586182	-0.011258	-0.784078	0.034763	-0.619586
61814		9.466987	-0.378947	-2.231744	-0.016472	0.004751	-0.015733	-0.608643	-0.005859	0.577881	-0.011330	-0.784017	0.034761	-0.619661
61815		9.501442	-0.369019	-2.260924	-0.012360	0.002756	-0.009640	-0.598389	-0.006104	0.580078	-0.011536	-0.783919	0.034890	-0.619774
61816		9.491524	-0.355723	-2.285702	-0.010970	0.001813	-0.004396	-0.608398	-0.003906	0.585205	-0.011696	-0.783903	0.035078	-0.619781
61817		9.451406	-0.311018	-2.261990	-0.014763	0.001358	-0.005110	-0.607910	-0.016113	0.587402	-0.011769	-0.783867	0.035167	-0.619821
61818		9.463198	-0.298863	-2.243255	-0.022948	0.001993	-0.006368	-0.605225	-0.002686	0.580566	-0.012077	-0.783845	0.035282	-0.619835
61819		9.487721	-0.305467	-2.267886	-0.015362	0.006144	-0.013571	-0.600830	0.005127	0.583252	-0.012259	-0.783764	0.035365	-0.619930
61820		9.492451	-0.344354	-2.283593	-0.022524	0.002132	-0.007709	-0.603760	-0.004150	0.589355	-0.012340	-0.783753	0.035545	-0.619931
61821		9.495248	-0.378065	-2.281836	-0.029489	-0.001554	-0.002332	-0.602295	-0.010498	0.573730	-0.012497	-0.783793	0.035747	-0.619867
61822		9.481851	-0.352274	-2.270110	-0.039491	0.003715	-0.003071	-0.609619	-0.005371	0.583984	-0.013018	-0.783696	0.036229	-0.619950
61823		9.504351	-0.300136	-2.211490	-0.031141	0.003028	-0.004957	-0.609375	-0.009033	0.586670	-0.013249	-0.783634	0.036448	-0.620011
61824		9.503977	-0.320925	-2.213195	-0.017656	0.006122	-0.008768	-0.606445	-0.010742	0.582764	-0.013398	-0.783573	0.036498	-0.620082
61825		9.503879	-0.341971	-2.172559	-0.021396	0.010595	-0.009747	-0.609863	-0.017334	0.582031	-0.013665	-0.783469	0.036632	-0.620200
61826		9.508692	-0.353907	-2.175641	-0.022461	0.005661	-0.011377	-0.610596	-0.009033	0.585205	-0.014030	-0.783383	0.036756	-0.620293
61827		9.494921	-0.350429	-2.206559	-0.008200	0.006430	-0.011156	-0.609619	-0.013428	0.579590	-0.014095	-0.783311	0.036715	-0.620385
61828		9.499664	-0.363252	-2.209890	0.003732	0.006384	-0.011469	-0.605713	-0.011230	0.585205	-0.014162	-0.783213	0.036656	-0.620510
61829		9.478168	-0.333217	-2.157594	0.002171	0.003972	-0.015324	-0.609375	-0.008789	0.581299	-0.014205	-0.783193	0.036530	-0.620542
61830		9.496678	-0.316803	-2.241916	0.010007	0.001268	-0.016509	-0.603516	-0.011475	0.586182	-0.014162	-0.783153	0.036344	-0.620605
61831		9.517909	-0.311624	-2.229144	0.010185	0.008453	-0.013470	-0.605225	-0.013184	0.587402	-0.014117	-0.783117	0.036179	-0.620660
61832		9.482901	-0.336244	-2.190358	-0.002356	0.010933	-0.009950	-0.607178	-0.010986	0.578369	-0.014175	-0.783058	0.036126	-0.620736
61833		9.493392	-0.316426	-2.233948	0.003519	0.007691	-0.015295	-0.604004	-0.011719	0.579834	-0.014253	-0.782964	0.036051	-0.620858
61834		9.482188	-0.296209	-2.238344	0.003270	0.011307	-0.012678	-0.613281	-0.003906	0.583740	-0.014326	-0.782867	0.036010	-0.620981
61835		9.465439	-0.307745	-2.284785	0.008951	0.006106	-0.013228	-0.606934	-0.000977	0.579590	-0.014153	-0.782790	0.035794	-0.621095
61836		9.453253	-0.312302	-2.251837	-0.003663	0.000740	-0.010836	-0.611084	-0.010986	0.583252	-0.014110	-0.782760	0.035777	-0.621134
61837		9.496166	-0.335247	-2.208290	-0.014163	0.000924	-0.009975	-0.609619	-0.009277	0.577637	-0.014252	-0.782729	0.035815	-0.621168
61838		9.525436	-0.307707	-2.181474	0.002036	0.008956	-0.012438	-0.620605	-0.009033	0.574463	-0.014289	-0.782613	0.035765	-0.621316
61839		9.503009	-0.324287	-2.257674	0.001525	0.010744	-0.007315	-0.608398	-0.016113	0.580811	-0.014260	-0.782410	0.035724	-0.621575
61840		9.484495	-0.330695	-2.285762	0.003812	0.005743	-0.009550	-0.603027	-0.009521	0.580566	-0.014330	-0.782349	0.035691	-0.621651
61841		9.482168	-0.319408	-2.215351	-0.008615	0.004863	-0.013231	-0.604736	-0.011719	0.581787	-0.014480	-0.782322	0.035728	-0.621680
61842		9.444325	-0.333533	-2.191577	-0.006217	0.004653	-0.013440	-0.609375	-0.013428	0.583740	-0.014618	-0.782297	0.035730	-0.621709
61843		9.513694	-0.371326	-2.232424	0.009082	0.004058	-0.014715	-0.608398	-0.009277	0.583496	-0.014598	-0.782268	0.035557	-0.621755
61844		9.513258	-0.365425	-2.263388	-0.001862	0.005882	-0.006450	-0.606201	-0.006104	0.580322	-0.014568	-0.782223	0.035541	-0.621813
61845		9.478791	-0.316728	-2.208156	-0.003777	0.008630	-0.006567	-0.607666	-0.013916	0.577393	-0.014550	-0.782151	0.035569	-0.621903
61846		9.493536	-0.263970	-2.159503	0.009597	0.006981	-0.012377	-0.602783	-0.017090	0.581055	-0.014575	-0.782073	0.035491	-0.622005
61847		9.505576	-0.301882	-2.194712	-0.001893	0.010945	-0.009000	-0.605957	-0.006592	0.585449	-0.014732	-0.782007	0.035553	-0.622081
61848		9.480114	-0.333170	-2.245817	-0.002718	0.009247	-0.009729	-0.607422	-0.005127	0.582764	-0.014697	-0.781966	0.035502	-0.622136
61849		9.477611	-0.294648	-2.245842	0.000967	0.005818	-0.007997	-0.611816	-0.017090	0.580322	-0.014601	-0.781930	0.035445	-0.622187
61850		9.492659	-0.296170	-2.222733	0.002033	-0.005192	-0.004038	-0.606934	-0.002197	0.580078	-0.014625	-0.781943	0.035465	-0.622168
61851		9.504943	-0.288563	-2.213977	-0.004634	0.000367	-0.002727	-0.608154	-0.015625	0.583984	-0.014523	-0.781934	0.035516	-0.622179
61852		9.508396	-0.273169	-2.196229	-0.018809	0.012316	-0.002111	-0.604736	-0.013672	0.578613	-0.014716	-0.781845	0.035703	-0.622276
61853		9.498361	-0.284679	-2.179963	-0.011404	0.011129	-0.006251	-0.617188	-0.011963	0.584961	-0.014896	-0.781756	0.035855	-0.622375
61854		9.476858	-0.305090	-2.224380	-0.011477	0.006718	-0.005617	-0.605713	-0.015381	0.580078	-0.014928	-0.781680	0.035857	-0.622469
61855		9.471842	-0.335450	-2.223556	-0.021278	0.005582	0.000004	-0.613281	-0.015381	0.579590	-0.015156	-0.781636	0.036135	-0.622503
61856		9.495048	-0.314503	-2.185390	-0.021436	0.003844	-0.002923	-0.615479	-0.016846	0.580078	-0.015364	-0.781570	0.036331	-0.622569
61857		9.522524	-0.308939	-2.152685	-0.018946	0.000072	-0.002607	-0.607178	-0.012207	0.580078	-0.015542	-0.781527	0.036496	-0.622609
61858		9.524579	-0.313664	-2.128333	-0.013498	0.013040	-0.006248	-0.609619	-0.013428	0.569580	-0.015683	-0.781425	0.036624	-0.622726
61859		9.467375	-0.334444	-2.123122	-0.014904	0.017813	-0.007059	-0.614258	-0.013184	0.573486	-0.015917	-0.781220	0.036822	-0.622966
61860		9.501135	-0.345416	-2.184923	-0.010285	0.006179	-0.007234	-0.611816	-0.014160	0.575195	-0.016037	-0.781110	0.036910	-0.623096
61861		9.479912	-0.369812	-2.157364	-0.010365	-0.001143	-0.007998	-0.618408	-0.019287	0.579590	-0.016175	-0.781079	0.037006	-0.623124
61862		9.532770	-0.353620	-2.116281	-0.000588	-0.005681	-0.006019	-0.609863	-0.010742	0.578369	-0.016205	-0.781079	0.036992	-0.623125
61863		9.549199	-0.334198	-2.099581	-0.005828	0.007496	-0.005664	-0.611816	-0.015625	0.585205	-0.016224	-0.781008	0.037046	-0.623211
61864		9.503595	-0.294252	-2.144794	0.001622	0.015044	-0.005625	-0.608154	-0.010742	0.578613	-0.016191	-0.780906	0.037009	-0.623341
61865		9.473169	-0.306605	-2.223336	0.004271	0.005410	-0.011240	-0.603271	-0.014160	0.575684	-0.016164	-0.780867	0.036946	-0.623394
61866		9.461594	-0.337638	-2.243841	-0.003982	0.001981	-0.009230	-0.608887	-0.013184	0.579102	-0.016298	-0.780859	0.037050	-0.623395
61867		9.469597	-0.341344	-2.158884	-0.001104	-0.003150	-0.008237	-0.614258	-0.015381	0.576172	-0.016322	-0.780884	0.037065	-0.623362
61868		9.507442	-0.322575	-2.140872	-0.002565	-0.004438	-0.004116	-0.611816	-0.013672	0.579346	-0.016341	-0.780878	0.037120	-0.623366
61869		9.552514	-0.351808	-2.198785	0.004542	0.003955	-0.005130	-0.608398	-0.012451	0.584473	-0.016277	-0.780836	0.037098	-0.623422
61870		9.527084	-0.310965	-2.192435	0.004428	0.005502	-0.004005	-0.608643	-0.012451	0.579102	-0.016183	-0.780822	0.037079	-0.623442
61871		9.504333	-0.279419	-2.172033	-0.001564	0.007593	-0.006651	-0.614746	-0.018799	0.577148	-0.016199	-0.780764	0.037114	-0.623512
61872		9.432491	-0.301198	-2.159855	-0.000273	0.005126	-0.012058	-0.607422	-0.014648	0.576904	-0.016304	-0.780693	0.037085	-0.623600
61873		9.497632	-0.374074	-2.211384	0.004216	-0.004444	-0.010735	-0.604004	-0.010986	0.578125	-0.016338	-0.780728	0.037076	-0.623556
61874		9.529168	-0.383837	-2.185061	0.005435	-0.006638	-0.008051	-0.610352	-0.015137	0.575195	-0.016304	-0.780800	0.037083	-0.623467
61875		9.536241	-0.334088	-2.117760	0.006479	0.003233	-0.006658	-0.611328	-0.007568	0.574463	-0.016284	-0.780751	0.037082	-0.623529
61876		9.493719	-0.307271	-2.160371	0.012880	0.003830	-0.006618	-0.603027	-0.026855	0.586426	-0.016091	-0.780693	0.036976	-0.623613
61877		9.474615	-0.337852	-2.192813	0.014624	-0.001025	-0.012091	-0.614990	-0.010498	0.579102	-0.016200	-0.780767	0.036948	-0.623519
61878		9.487548	-0.355368	-2.195618	0.007956	-0.001812	-0.013935	-0.609375	-0.010742	0.572021	-0.016110	-0.780763	0.036776	-0.623537
61879		9.529730	-0.351815	-2.140676	0.007470	-0.003463	-0.010577	-0.614990	-0.013916	0.582520	-0.016068	-0.780758	0.036727	-0.623546
61880		9.550838	-0.323766	-2.126674	0.007436	-0.000037	-0.008813	-0.612061	-0.014160	0.575439	-0.015980	-0.780754	0.036618	-0.623560
61881		9.523743	-0.326151	-2.158544	0.003489	0.004463	-0.006653	-0.606201	-0.014404	0.580566	-0.015969	-0.780690	0.036623	-0.623640
61882		9.469966	-0.336396	-2.148898	0.000630	0.003253	-0.010805	-0.617920	-0.002686	0.581543	-0.016041	-0.780687	0.036643	-0.623641
61883		9.499168	-0.358839	-2.178802	0.006243	-0.001269	-0.013261	-0.617676	-0.009033	0.574951	-0.015832	-0.780680	0.036409	-0.623668
61884		9.517387	-0.344272	-2.180845	0.009226	0.000416	-0.011876	-0.611328	-0.022705	0.581787	-0.015703	-0.780629	0.036245	-0.623745
61885		9.514052	-0.329618	-2.184581	0.002444	0.004967	-0.008175	-0.616943	-0.015137	0.579590	-0.015810	-0.780596	0.036277	-0.623782
61886		9.484890	-0.275170	-2.182942	-0.003376	0.003336	-0.008016	-0.609863	-0.010010	0.576660	-0.015842	-0.780544	0.036271	-0.623847
61887		9.525489	-0.288383	-2.194054	-0.002144	0.000256	-0.008365	-0.607178	-0.012695	0.578369	-0.015853	-0.780531	0.036297	-0.623860
61888		9.511772	-0.337110	-2.199059	-0.006892	0.004181	-0.011619	-0.613525	-0.018799	0.577148	-0.015985	-0.780508	0.036361	-0.623883
61889		9.496033	-0.328911	-2.170190	-0.008324	0.006930	-0.010788	-0.612061	-0.004150	0.571777	-0.016167	-0.780430	0.036433	-0.623971
61890		9.516790	-0.347754	-2.160148	-0.001134	0.002291	-0.008112	-0.615967	-0.013672	0.577881	-0.016088	-0.780374	0.036415	-0.624044
61891		9.482584	-0.324686	-2.200871	0.001230	0.002608	-0.007943	-0.613281	-0.011963	0.573730	-0.016063	-0.780328	0.036383	-0.624104
61892		9.492275	-0.306788	-2.162896	-0.006866	0.004556	-0.008959	-0.614746	-0.010010	0.580811	-0.016140	-0.780258	0.036439	-0.624187
61893		9.507445	-0.307146	-2.139119	-0.006602	0.001836	-0.008544	-0.619873	-0.012939	0.578125	-0.016141	-0.780238	0.036432	-0.624212
61894		9.508678	-0.358775	-2.121337	-0.001287	0.000557	-0.011039	-0.610840	-0.003906	0.587158	-0.016127	-0.780198	0.036353	-0.624268
61895		9.512902	-0.367785	-2.157201	0.003113	0.008985	-0.013652	-0.611084	-0.009277	0.572266	-0.015984	-0.780172	0.036168	-0.624314
61896		9.522703	-0.321582	-2.188900	0.010269	0.007774	-0.009211	-0.613525	-0.010986	0.579590	-0.015891	-0.780085	0.036109	-0.624429
61897		9.493756	-0.295225	-2.157998	-0.006390	-0.001503	-0.003078	-0.609863	-0.010254	0.572266	-0.015873	-0.780090	0.036181	-0.624418
61898		9.470302	-0.310009	-2.185599	-0.004853	0.005713	-0.009844	-0.612793	-0.012207	0.583496	-0.015954	-0.780022	0.036253	-0.624497
61899		9.472084	-0.313979	-2.119952	-0.007864	0.005675	-0.015533	-0.612061	-0.012939	0.583496	-0.016048	-0.779998	0.036198	-0.624528
61900		9.543728	-0.356967	-2.137962	-0.017111	0.001064	-0.010750	-0.615234	-0.014648	0.579590	-0.016202	-0.780009	0.036271	-0.624506
61901		9.520384	-0.371052	-2.165351	-0.007120	0.005626	-0.005067	-0.615479	-0.009521	0.576904	-0.016240	-0.779954	0.036337	-0.624570
61902		9.506975	-0.322828	-2.149551	-0.007121	0.005627	-0.005067	-0.617676	-0.010010	0.577393	-0.016229	-0.779887	0.036392	-0.624651
61903		9.480291	-0.301232	-2.178394	-0.005953	0.002692	-0.007703	-0.617920	-0.009033	0.573730	-0.016217	-0.779839	0.036396	-0.624711
61904		9.520075	-0.287820	-2.135429	-0.011883	0.006642	-0.009711	-0.618408	-0.016113	0.581787	-0.016292	-0.779743	0.036452	-0.624825
61905		9.515830	-0.292851	-2.131178	-0.014599	0.012098	-0.011187	-0.620850	-0.010010	0.570312	-0.016433	-0.779641	0.036479	-0.624947
61906		9.503229	-0.316622	-2.173516	-0.007232	0.005404	-0.010010	-0.620605	-0.014648	0.581787	-0.016482	-0.779533	0.036515	-0.625079
61907		9.506003	-0.347174	-2.161491	-0.003815	0.004336	-0.011351	-0.615479	-0.018555	0.569824	-0.016478	-0.779489	0.036429	-0.625139
61908		9.503362	-0.312151	-2.130822	-0.003745	-0.002765	-0.007176	-0.610107	-0.021484	0.579590	-0.016607	-0.779462	0.036567	-0.625160
61909		9.538275	-0.283795	-2.083829	-0.007554	0.004592	-0.006763	-0.617188	-0.023438	0.579590	-0.016762	-0.779441	0.036694	-0.625175
61910		9.518089	-0.306987	-2.138353	-0.000486	0.007209	-0.010547	-0.610596	-0.010986	0.568359	-0.016859	-0.779378	0.036689	-0.625252
61911		9.515197	-0.291020	-2.182787	-0.000716	0.004483	-0.011085	-0.607422	-0.014893	0.575928	-0.016925	-0.779312	0.036753	-0.625329
61912		9.529336	-0.312003	-2.151691	-0.012993	0.008544	-0.007823	-0.616455	-0.008545	0.572510	-0.017102	-0.779255	0.036924	-0.625384
61913		9.488717	-0.319179	-2.099782	-0.011173	0.007351	-0.006583	-0.614014	-0.006836	0.569336	-0.017136	-0.779163	0.037010	-0.625494
61914		9.515747	-0.331914	-2.142415	-0.001765	0.002967	-0.010964	-0.620117	-0.009766	0.574219	-0.017124	-0.779104	0.037013	-0.625566
61915		9.524229	-0.329223	-2.212736	-0.002901	0.005383	-0.008701	-0.610352	-0.019287	0.572754	-0.017075	-0.779027	0.036981	-0.625666
61916		9.492298	-0.293632	-2.153268	-0.004037	0.007799	-0.006438	-0.613770	-0.019287	0.577148	-0.017209	-0.778956	0.037131	-0.625742
61917		9.493416	-0.271570	-2.117119	-0.004798	0.002675	-0.008945	-0.609375	-0.017334	0.567627	-0.017315	-0.778935	0.037200	-0.625761
61918		9.533904	-0.331397	-2.133601	-0.008366	0.002010	-0.010535	-0.616211	-0.017334	0.574951	-0.017530	-0.778893	0.037380	-0.625796
61919		9.536310	-0.334661	-2.150789	-0.014064	0.009930	-0.006308	-0.616211	-0.005371	0.573975	-0.017680	-0.778795	0.037529	-0.625905
61920		9.514978	-0.309333	-2.106648	-0.001021	0.011004	-0.007057	-0.613281	-0.017822	0.574951	-0.017560	-0.778691	0.037485	-0.626040
61921		9.502294	-0.311064	-2.104656	-0.000306	0.007556	-0.011019	-0.609131	-0.015625	0.577637	-0.017634	-0.778630	0.037508	-0.626113
61922		9.524835	-0.284535	-2.139694	-0.002044	0.001642	-0.008093	-0.619141	-0.012695	0.578369	-0.017681	-0.778641	0.037566	-0.626095
61923		9.509328	-0.305169	-2.081668	-0.007891	0.007830	-0.006796	-0.611084	-0.016357	0.582275	-0.017675	-0.778570	0.037581	-0.626182
61924		9.520729	-0.317095	-2.064580	-0.009507	0.002399	-0.006635	-0.621338	-0.018555	0.579590	-0.017749	-0.778586	0.037662	-0.626155
61925		9.545749	-0.324377	-2.088892	-0.006026	0.006122	-0.005931	-0.614746	-0.021973	0.582275	-0.017766	-0.778527	0.037683	-0.626227
61926		9.510747	-0.322333	-2.121735	0.000833	0.011327	-0.007827	-0.613525	-0.011719	0.581787	-0.017792	-0.778463	0.037675	-0.626306
61927		9.494336	-0.311860	-2.124430	0.007462	0.004451	-0.009405	-0.614014	-0.018066	0.579346	-0.017656	-0.778460	0.037554	-0.626321
61928		9.503883	-0.317569	-2.131300	0.000260	-0.003966	-0.005287	-0.618652	-0.012939	0.578369	-0.017637	-0.778507	0.037583	-0.626262
61929		9.499615	-0.304358	-2.095209	-0.002417	-0.003960	-0.006890	-0.614258	-0.013184	0.578369	-0.017582	-0.778533	0.037569	-0.626231
61930		9.493804	-0.307827	-2.084144	0.004634	0.001583	-0.009266	-0.611084	-0.014160	0.574707	-0.017507	-0.778534	0.037506	-0.626236
61931		9.530282	-0.333209	-2.061411	0.002779	-0.002792	-0.005216	-0.613281	-0.020264	0.571533	-0.017471	-0.778561	0.037561	-0.626200
61932		9.530862	-0.331034	-2.102390	-0.000324	0.006413	-0.006344	-0.619385	-0.014160	0.574219	-0.017555	-0.778494	0.037673	-0.626275
61933		9.510073	-0.280749	-2.139624	0.007654	0.002763	-0.008247	-0.619873	-0.014648	0.575684	-0.017454	-0.778451	0.037608	-0.626335
61934		9.522278	-0.296279	-2.132777	0.003863	-0.001783	-0.005707	-0.615723	-0.016357	0.572754	-0.017363	-0.778447	0.037584	-0.626344
61935		9.500983	-0.322014	-2.106707	-0.000898	-0.004825	-0.007078	-0.616699	-0.022949	0.583740	-0.017390	-0.778467	0.037650	-0.626314
61936		9.534262	-0.314357	-2.054373	-0.006026	-0.004117	-0.008106	-0.611816	-0.020264	0.572998	-0.017462	-0.778523	0.037666	-0.626241
61937		9.549573	-0.314261	-2.072878	0.003613	0.002455	-0.008128	-0.611084	-0.010498	0.576660	-0.017516	-0.778500	0.037728	-0.626265
61938		9.473482	-0.345163	-2.101329	0.008388	0.002592	-0.008153	-0.612549	-0.019043	0.579102	-0.017406	-0.778496	0.037683	-0.626276
61939		9.489831	-0.324324	-2.126509	0.007308	-0.006622	-0.011473	-0.616699	-0.019043	0.583496	-0.017391	-0.778570	0.037620	-0.626188
61940		9.553122	-0.321538	-2.069943	-0.000541	-0.007697	-0.004384	-0.620605	-0.022217	0.575928	-0.017343	-0.778651	0.037620	-0.626089
61941		9.523891	-0.318646	-2.084718	0.002056	0.001805	-0.005927	-0.613770	-0.020264	0.579834	-0.017340	-0.778614	0.037633	-0.626134
61942		9.506502	-0.304560	-2.121115	0.013247	0.000827	-0.011964	-0.613770	-0.017334	0.580566	-0.017272	-0.778628	0.037507	-0.626125
61943		9.495200	-0.336390	-2.143342	0.013478	-0.007826	-0.008921	-0.612793	-0.015625	0.572998	-0.017144	-0.778712	0.037397	-0.626031
61944		9.508670	-0.334732	-2.112834	0.006647	-0.008623	-0.007640	-0.615723	-0.010010	0.573975	-0.017114	-0.778771	0.037424	-0.625957
61945		9.525888	-0.298071	-2.072495	-0.000072	-0.008057	-0.006090	-0.615234	-0.014893	0.582275	-0.017063	-0.778817	0.037472	-0.625898
61946		9.535154	-0.327283	-2.083431	-0.001693	-0.002112	-0.008431	-0.610107	-0.012451	0.573730	-0.017044	-0.778852	0.037454	-0.625856
61947		9.525982	-0.317331	-2.118528	0.013722	-0.003581	-0.010398	-0.611572	-0.001465	0.576416	-0.016954	-0.778884	0.037403	-0.625822
61948		9.529590	-0.328365	-2.114840	0.003005	-0.002968	-0.006068	-0.617432	-0.021484	0.572021	-0.016815	-0.778913	0.037414	-0.625790
61949		9.486371	-0.325651	-2.162473	0.002484	-0.007393	-0.006395	-0.613281	-0.011719	0.576904	-0.016850	-0.778939	0.037480	-0.625751
61950		9.503553	-0.312480	-2.125014	0.002924	-0.010144	-0.009123	-0.615234	-0.013916	0.568359	-0.016809	-0.779021	0.037476	-0.625651
61951		9.542445	-0.323228	-2.087823	0.003646	-0.007410	-0.007637	-0.609131	-0.018799	0.572510	-0.016813	-0.779040	0.037548	-0.625623
61952		9.519898	-0.317671	-2.123602	0.005054	-0.002309	-0.007324	-0.617188	-0.011963	0.574463	-0.016857	-0.779053	0.037634	-0.625600
61953		9.503858	-0.334223	-2.140993	0.003358	-0.004689	-0.008047	-0.620605	-0.018066	0.569092	-0.016798	-0.779069	0.037628	-0.625583
61954		9.477201	-0.316747	-2.139807	0.004875	-0.005549	-0.008235	-0.620117	-0.015869	0.579590	-0.016791	-0.779059	0.037648	-0.625593
61955		9.505978	-0.316510	-2.127704	0.004437	-0.011002	-0.009309	-0.617432	-0.012451	0.582764	-0.016719	-0.779136	0.037575	-0.625505
61956		9.537449	-0.325832	-2.102111	-0.006217	-0.006495	-0.005971	-0.614990	-0.010254	0.577637	-0.016694	-0.779193	0.037598	-0.625433
61957		9.535242	-0.318089	-2.084654	-0.006942	-0.001903	-0.006687	-0.615967	-0.016113	0.577637	-0.016709	-0.779201	0.037672	-0.625418
61958		9.511255	-0.329111	-2.144943	-0.003360	0.002315	-0.008755	-0.616699	-0.008545	0.570312	-0.016752	-0.779174	0.037709	-0.625448
61959		9.501928	-0.343448	-2.140460	0.003791	-0.000111	-0.010005	-0.617676	-0.021484	0.574463	-0.016709	-0.779139	0.037714	-0.625493
61960		9.515107	-0.337415	-2.140749	0.006142	-0.004197	-0.009210	-0.619385	-0.011230	0.578125	-0.016717	-0.779148	0.037710	-0.625481
61961		9.474004	-0.340307	-2.206252	-0.002214	-0.001242	-0.006342	-0.613281	-0.019043	0.573486	-0.016662	-0.779141	0.037717	-0.625491
61962		9.491628	-0.327172	-2.166955	0.002940	-0.000421	-0.007334	-0.612549	-0.012207	0.572998	-0.016701	-0.779129	0.037789	-0.625501
61963		9.516767	-0.315163	-2.115902	-0.004827	0.000632	-0.007299	-0.616943	-0.007812	0.576416	-0.016761	-0.779108	0.037905	-0.625518
61964		9.566606	-0.307457	-2.162389	-0.007338	0.011193	-0.007219	-0.615723	-0.009766	0.575928	-0.016763	-0.779004	0.037960	-0.625644
61965		9.587882	-0.345848	-2.183603	-0.000672	0.028468	-0.013545	-0.619385	-0.020264	0.572510	-0.016786	-0.778773	0.037918	-0.625934
61966		9.635096	-0.335742	-2.364451	0.021268	0.070864	-0.022427	-0.621582	-0.012695	0.570801	-0.016777	-0.778197	0.037655	-0.626666
61967		9.637277	-0.284583	-2.162362	0.000805	0.108327	-0.013823	-0.620605	-0.023682	0.575684	-0.016845	-0.777313	0.037594	-0.627764
61968		9.632814	-0.235426	-1.934021	-0.086296	0.120863	-0.003100	-0.619141	-0.023682	0.568848	-0.017755	-0.776337	0.038323	-0.628901
61969		9.515347	-0.130917	-1.929628	-0.177116	0.132141	0.007856	-0.621094	-0.020020	0.572021	-0.019505	-0.775233	0.039929	-0.630110
61970		9.532841	-0.172100	-2.087369	-0.288138	0.048527	0.012691	-0.613770	-0.021729	0.565674	-0.022165	-0.774771	0.042407	-0.630428
61971		9.701921	-0.418250	-2.134830	-0.361639	0.038841	0.036911	-0.620850	-0.026855	0.570068	-0.025406	-0.774340	0.045796	-0.630599
61972		9.645186	-0.431055	-1.693030	-0.228755	0.094513	0.029413	-0.618164	-0.032959	0.570068	-0.027387	-0.773507	0.047961	-0.631377
61973		9.686133	-0.396296	-1.746504	-0.178235	0.109534	0.013687	-0.626465	-0.033691	0.562500	-0.029059	-0.772591	0.049599	-0.632296
61974		10.010530	-0.403969	-1.611652	-0.053251	0.217436	-0.015971	-0.630615	-0.031250	0.558105	-0.029800	-0.770841	0.049913	-0.634370
61975		9.861219	-0.377415	-1.193103	0.178348	0.305679	-0.092751	-0.639404	-0.029053	0.554443	-0.028943	-0.768507	0.047608	-0.637411
61976		9.955624	0.152265	-0.554634	0.237596	0.298607	-0.091973	-0.641602	-0.029053	0.546875	-0.027461	-0.766224	0.044795	-0.640421
61977		10.072042	0.548125	0.462689	0.154241	0.445113	-0.074966	-0.639893	-0.022949	0.546631	-0.026768	-0.762700	0.042801	-0.644779
61978		9.854400	0.324542	0.804029	-0.025709	0.680599	-0.048736	-0.654785	-0.020264	0.535645	-0.027675	-0.757210	0.042407	-0.651205
61979		9.037697	0.101769	0.772423	-0.248815	1.203495	-0.035236	-0.671143	-0.029541	0.499268	-0.030787	-0.747246	0.043720	-0.662392
61980		8.076047	0.528123	1.511986	0.068916	1.622121	-0.361774	-0.692383	-0.034912	0.480713	-0.033993	-0.733794	0.039315	-0.677381
61981		7.814696	0.318859	1.658204	0.324950	1.746555	-0.637598	-0.712646	-0.039551	0.457031	-0.037166	-0.719204	0.030049	-0.693154
61982		7.284693	0.057710	1.060679	0.457837	1.780266	-0.710130	-0.730469	-0.045898	0.420654	-0.039700	-0.704019	0.018896	-0.708819
61983		6.839564	0.602658	-1.023199	0.458190	2.201464	-0.763590	-0.755127	-0.053467	0.383301	-0.042805	-0.684569	0.007106	-0.727656
61984		6.399570	0.456082	-0.439314	0.163335	1.240479	-0.533671	-0.745605	-0.058105	0.365967	-0.046175	-0.673284	0.000448	-0.737941
61985		11.540981	-3.077177	1.752080	0.834265	0.704598	-0.206980	-0.757812	-0.057617	0.357422	-0.040982	-0.667257	-0.009232	-0.743642
61986		11.342912	-2.199293	0.222310	0.950280	1.085853	-0.070672	-0.760498	-0.050537	0.329346	-0.033462	-0.657593	-0.019088	-0.752388
61987		11.837978	2.005990	-0.866076	0.916183	0.963945	-0.091110	-0.772217	-0.040039	0.319824	-0.026565	-0.648829	-0.028581	-0.759933
61988		16.215056	3.216968	-1.524934	0.904029	0.087694	0.096472	-0.771484	-0.027100	0.312988	-0.018185	-0.648362	-0.036179	-0.760255
61989		21.277962	2.965970	-1.248471	0.162786	-0.706250	0.169860	-0.773193	-0.016113	0.333496	-0.015506	-0.655206	-0.035844	-0.754440
61990		21.357461	0.643262	-2.110233	-0.444338	-1.611684	0.426500	-0.762451	-0.018066	0.353760	-0.015660	-0.670429	-0.027500	-0.741298
61991		21.339188	-0.413085	-2.267911	-0.400530	-2.146163	0.601365	-0.746338	-0.008301	0.403320	-0.014070	-0.690167	-0.017964	-0.723290
61992		16.472160	0.047907	-0.495487	-0.210315	-1.946709	0.504144	-0.728760	0.002197	0.433838	-0.011571	-0.707660	-0.011062	-0.706372
61993		9.771493	2.400606	1.508127	-0.824159	-1.547063	0.417514	-0.716797	0.008057	0.453125	-0.015211	-0.721075	0.000538	-0.692690
61994		3.296619	1.447792	1.406090	-1.769931	-1.266833	0.408996	-0.715576	0.000244	0.483154	-0.027434	-0.731359	0.020331	-0.681137
61995		-0.494387	-1.345455	-0.713657	-1.272704	-0.913707	0.360365	-0.701904	-0.014160	0.500000	-0.035551	-0.738415	0.035096	-0.672494
61996		1.335383	-4.792259	0.696931	0.102908	-0.581875	0.146444	-0.709717	-0.004883	0.512207	-0.033019	-0.743251	0.035971	-0.667228
61997		2.456365	-1.788520	2.188762	0.250614	-0.275542	0.212100	-0.710449	-0.007812	0.509277	-0.028741	-0.745534	0.036090	-0.664869
61998		0.677158	2.701841	2.929332	0.279643	0.250180	0.016460	-0.707764	0.005859	0.498291	-0.026064	-0.743528	0.033960	-0.667333
61999		-0.239442	2.654931	1.339997	0.252542	0.321917	-0.209807	-0.714844	0.004395	0.506592	-0.025551	-0.740989	0.029908	-0.670364
62000		0.174444	0.628511	-1.302197	-0.237698	0.237866	-0.250368	-0.703369	0.008057	0.496582	-0.029882	-0.738991	0.029591	-0.672401
62001		0.344273	-0.631318	-0.917461	-0.440499	0.364660	-0.264582	-0.708496	-0.019531	0.488770	-0.036251	-0.735826	0.030795	-0.675499
62002		0.046177	-0.345452	1.345410	-0.201454	0.557183	-0.337693	-0.701416	-0.022949	0.482422	-0.041111	-0.731122	0.029223	-0.680380
62003		5.688888	-1.403221	0.301698	0.780072	0.872358	-0.558034	-0.704102	-0.027344	0.467529	-0.038985	-0.724201	0.017125	-0.688273
62004		20.314103	-4.456749	2.164088	2.675993	2.383031	-1.047925	-0.730225	-0.020020	0.434570	-0.024195	-0.704436	-0.016455	-0.709164
62005		28.512260	6.829928	2.064966	2.020467	2.558399	-1.017649	-0.738770	-0.022217	0.382568	-0.014836	-0.681521	-0.043948	-0.730327
62006		30.896167	4.821593	-2.590876	-0.645999	0.965018	-0.247672	-0.754150	-0.038086	0.368408	-0.022014	-0.672378	-0.040249	-0.738785
62007		28.847204	0.385787	-6.765310	-1.760441	-0.882497	0.255528	-0.754639	-0.046143	0.389404	-0.034823	-0.679961	-0.021534	-0.732104
62008		25.112820	-6.241419	-4.299450	-0.516964	-2.041626	0.768603	-0.733398	-0.032715	0.422607	-0.032662	-0.698359	-0.009289	-0.714942
62009		17.679975	-1.147953	-1.125919	1.026714	-2.051883	0.756747	-0.718262	-0.009521	0.458984	-0.017121	-0.716884	-0.010854	-0.696897
62010		7.988737	5.984287	3.503597	-0.031009	-1.878682	0.738833	-0.710938	0.001953	0.490967	-0.011175	-0.733111	-0.003385	-0.680008
62011		-0.883937	2.307277	6.169335	-2.416954	-1.098046	0.715287	-0.709229	-0.004883	0.507324	-0.027231	-0.741689	0.023988	-0.669761
62012		1.971010	-2.927025	0.729121	-0.496776	-0.656160	0.343883	-0.707520	-0.000488	0.516846	-0.028703	-0.746840	0.031693	-0.663628
62013		2.855216	-2.888288	2.308397	1.128028	0.191773	0.035297	-0.719727	0.010742	0.511719	-0.017905	-0.745549	0.022735	-0.665823
62014		-1.183759	2.482614	3.966406	0.927589	0.412291	0.008576	-0.719727	0.020508	0.500977	-0.009261	-0.742251	0.015152	-0.669887
62015		0.027242	2.261217	-0.891697	-0.005469	-0.409325	0.232469	-0.723877	0.026123	0.516602	-0.007238	-0.745608	0.017533	-0.666115
62016		0.162219	1.053561	-1.723072	-0.661399	0.111906	0.139606	-0.709229	0.022461	0.510986	-0.012212	-0.744546	0.024444	-0.667011
62017		-0.529027	0.709553	-0.678635	-0.373449	0.407731	-0.120439	-0.706299	0.009277	0.502197	-0.016763	-0.741097	0.026480	-0.670667
62018		0.136062	0.204948	0.271944	-0.354926	0.360734	-0.234816	-0.717285	0.001465	0.494629	-0.022083	-0.738047	0.027304	-0.673835
62019		0.296376	-0.051371	-0.825965	-0.499333	0.628145	-0.230309	-0.712158	-0.011719	0.483643	-0.028788	-0.732646	0.029308	-0.679369
62020		-0.058001	-0.730400	-2.854022	0.512432	0.847799	-0.449501	-0.706787	-0.019775	0.475098	-0.028165	-0.725717	0.020628	-0.687107
62021		5.447134	-0.170655	-5.675818	1.129273	0.683782	-0.754159	-0.709717	-0.017578	0.464844	-0.024514	-0.720299	0.003942	-0.693219
62022		24.827675	0.314423	5.281544	2.029100	1.244559	-0.901567	-0.710449	-0.018311	0.441895	-0.014054	-0.709818	-0.022034	-0.703900
62023		32.654707	-0.433562	4.877123	0.397310	1.165938	-0.416295	-0.726074	-0.023926	0.424072	-0.013813	-0.699423	-0.029332	-0.713972
62024		37.960162	1.291301	-0.469646	0.241328	0.673879	-0.014400	-0.728760	-0.025635	0.411377	-0.011532	-0.693416	-0.031622	-0.719751
62025		30.952138	6.983554	-4.164913	-0.164707	-0.796147	0.306986	-0.725098	-0.018311	0.430908	-0.010458	-0.700634	-0.027257	-0.712923
62026		26.064862	2.630718	-1.814555	-2.056526	-1.866081	0.679559	-0.703369	-0.022949	0.460693	-0.022979	-0.716775	-0.002642	-0.696921
62027		15.291411	-3.282701	-0.261660	-1.080060	-1.901181	0.579501	-0.696045	-0.022705	0.482666	-0.027601	-0.732755	0.012594	-0.679816
62028		6.983241	-1.169363	0.918313	-0.265210	-1.296923	0.387360	-0.699707	-0.005859	0.512451	-0.026478	-0.743500	0.018968	-0.667942
62029		2.020643	-3.803187	2.134517	-0.715158	-0.269261	0.528097	-0.695557	-0.007812	0.518066	-0.028600	-0.745318	0.030100	-0.665415
62030		2.714325	-1.819968	0.425787	0.756721	0.731618	0.026948	-0.717773	0.001709	0.505615	-0.021555	-0.739412	0.023968	-0.672481
62031		-0.600235	5.163434	-0.279110	1.922073	0.656192	-0.530256	-0.737305	0.013672	0.497070	-0.008396	-0.734303	0.002902	-0.678763
62032		-1.764922	2.628471	-1.169389	-0.152895	-0.055216	-0.138008	-0.747803	0.012939	0.497314	-0.010916	-0.734749	0.003059	-0.678245
62033		-0.432070	0.299035	-2.093999	-1.314346	-0.232801	0.077068	-0.737793	-0.000977	0.496826	-0.022268	-0.736430	0.015042	-0.675980
62034		0.088971	0.184690	1.715352	-0.353813	-0.276619	-0.094899	-0.733398	-0.003174	0.504150	-0.026218	-0.738667	0.017334	-0.673337
62035		0.625195	-0.301192	1.416834	-0.118760	-0.210344	-0.223191	-0.736816	-0.014404	0.503906	-0.029092	-0.740433	0.016438	-0.671300
62036		0.550476	-0.616088	1.048006	-0.472285	0.046072	-0.107409	-0.730713	-0.027344	0.506348	-0.034317	-0.739874	0.019488	-0.671587
62037		1.045649	-0.707409	1.072032	-0.309179	0.174209	0.026616	-0.722900	-0.027588	0.494873	-0.036940	-0.738254	0.022356	-0.673139
62038		0.865519	-1.241444	-0.147919	-0.167329	0.461112	-0.053802	-0.715820	-0.026611	0.485107	-0.039011	-0.734287	0.023161	-0.677321
62039		3.263924	0.324536	1.045864	0.584554	0.914391	-0.406927	-0.721680	-0.040039	0.470703	-0.037299	-0.726861	0.014144	-0.685625
62040		14.944337	1.445005	0.447622	1.461352	1.884785	-0.962839	-0.723389	-0.032227	0.446777	-0.032534	-0.711176	-0.007905	-0.702216
62041		14.840444	3.792063	-3.170046	-0.889491	1.182150	-0.381321	-0.725342	-0.057617	0.419678	-0.043609	-0.700267	-0.003864	-0.712537
62042		21.823021	-4.825380	-2.170308	-1.195684	0.613656	0.178268	-0.732666	-0.076172	0.408447	-0.052387	-0.694053	0.008078	-0.717970
62043		37.079510	-10.335876	7.657840	3.740133	1.788109	-0.509365	-0.754883	-0.052246	0.387207	-0.024579	-0.679562	-0.030968	-0.732552
62044		11.033659	16.460767	-2.808399	1.829404	1.265187	-0.659301	-0.760254	-0.043701	0.362549	-0.014558	-0.668004	-0.053495	-0.742090
62045		11.681199	6.420172	-5.593376	-4.038250	-1.125063	0.777493	-0.756836	-0.068848	0.378906	-0.041727	-0.677270	-0.009187	-0.734493
62046		12.891638	-16.522056	-3.435291	-0.269548	-1.135902	0.672402	-0.748291	-0.057129	0.392578	-0.037894	-0.687535	-0.000371	-0.725162
62047		10.295753	-1.317559	2.183915	1.879810	-0.660294	0.381271	-0.738037	-0.036377	0.415039	-0.018246	-0.694186	-0.013624	-0.719436
62048		7.258668	9.131019	-0.457310	0.232209	-1.455765	0.594008	-0.720215	-0.019531	0.439453	-0.011104	-0.707293	-0.010026	-0.706762
62049		7.249627	2.270026	-2.111908	-0.756759	-1.222834	0.427307	-0.713867	-0.026367	0.452881	-0.014123	-0.717918	0.000750	-0.695984
62050		8.390625	-0.852874	0.656158	-0.614180	-0.789686	0.058510	-0.701172	-0.021484	0.470703	-0.019066	-0.724617	0.006875	-0.688853
62051		9.593716	-0.477320	4.001381	-0.271810	-0.533476	0.056154	-0.699463	-0.031494	0.478760	-0.020950	-0.729117	0.009995	-0.683996
62052		10.428813	-0.831590	2.471770	-0.165683	-0.295919	0.049589	-0.687744	-0.038330	0.484375	-0.021950	-0.731583	0.012074	-0.681292
62053		10.607054	-0.354394	-1.586930	0.712131	0.470828	-0.071082	-0.705078	-0.027344	0.470947	-0.016064	-0.727729	0.005363	-0.685656
62054		9.748941	2.295631	0.308741	0.571173	0.488177	-0.035898	-0.705322	-0.023926	0.470703	-0.011162	-0.723621	0.000189	-0.690107
62055		9.391380	2.281862	0.245638	-0.270408	-0.054015	0.241063	-0.711670	-0.020996	0.467773	-0.011476	-0.724033	0.004834	-0.689653
62056		8.606708	1.307312	-1.699609	-0.049559	-0.320118	0.276621	-0.704834	-0.017578	0.472412	-0.009466	-0.726749	0.007922	-0.686792
62057		7.902744	-0.390420	-2.457508	0.277262	-0.619407	0.180972	-0.698242	-0.009277	0.487305	-0.005275	-0.732045	0.007360	-0.681196
62058		8.857235	1.028462	-1.436293	-0.172278	-0.754233	0.201193	-0.691162	-0.010010	0.496094	-0.005013	-0.738393	0.010824	-0.674265
62059		8.968271	2.693722	0.112441	-0.482444	-0.745439	0.251842	-0.677979	-0.015137	0.509033	-0.007185	-0.744555	0.017356	-0.667297
62060		8.962717	0.788098	-1.466435	-0.652998	-0.941763	0.229532	-0.662109	-0.017578	0.532715	-0.011081	-0.752214	0.025092	-0.658347
62061		10.155792	-1.133461	-1.616405	-0.512341	-0.829860	0.119074	-0.653076	-0.022461	0.541748	-0.014596	-0.758872	0.030608	-0.650357
62062		10.487036	-1.599644	0.468117	-0.096292	-0.501446	0.157965	-0.638672	-0.020752	0.545166	-0.013974	-0.762845	0.033057	-0.645585
62063		9.986399	-0.839842	0.798893	0.129162	-0.542652	0.296443	-0.633301	-0.010010	0.554443	-0.010068	-0.767090	0.035023	-0.640504
62064		9.413672	-0.409970	-0.334387	0.034710	-0.511630	0.250597	-0.623779	-0.006104	0.567627	-0.007448	-0.771049	0.037306	-0.635639
62065		9.717789	0.431506	-1.616079	-0.328548	-0.304821	0.034070	-0.621826	-0.008301	0.568359	-0.010144	-0.773400	0.040364	-0.632551
62066		9.548199	0.344692	-2.471099	-0.212512	-0.046840	-0.098478	-0.621826	-0.007812	0.568115	-0.012897	-0.773776	0.041186	-0.631987
62067		9.244305	-0.339930	-2.802157	0.319081	-0.072548	-0.092524	-0.620117	-0.018066	0.569336	-0.010445	-0.774428	0.037865	-0.631441
62068		10.306774	-1.940928	-2.885343	0.052886	-0.488728	0.067490	-0.614502	-0.004883	0.578125	-0.009113	-0.778234	0.038244	-0.626743
62069		10.091114	-2.076741	-1.448308	-0.568722	-0.432957	0.213150	-0.607422	-0.016602	0.583252	-0.012712	-0.781413	0.044917	-0.622266
62070		10.203644	-0.647542	-0.523894	-0.096254	-0.213240	0.139749	-0.603271	-0.007324	0.579346	-0.012393	-0.782959	0.047172	-0.620158
62071		9.811169	-0.119099	-1.456421	0.236560	-0.001803	0.101560	-0.601562	-0.007324	0.596191	-0.009235	-0.782929	0.046442	-0.620306
62072		9.560175	-0.439316	-2.436638	0.184885	-0.006749	0.023245	-0.605225	-0.009521	0.583008	-0.007186	-0.782974	0.045339	-0.620358
62073		9.419048	-0.357853	-2.625517	0.026279	0.058542	-0.060386	-0.601318	-0.004639	0.592041	-0.007380	-0.782540	0.044647	-0.620954
62074		9.328352	-0.487757	-2.533028	-0.046353	-0.028862	-0.043480	-0.604248	-0.002686	0.586670	-0.008099	-0.782771	0.044687	-0.620651
62075		9.368247	-0.914584	-2.361561	-0.114637	-0.086781	0.037468	-0.603516	-0.006104	0.595947	-0.008826	-0.783395	0.046055	-0.619752
62076		9.241130	-1.221943	-2.478882	-0.178592	-0.032420	0.074598	-0.600098	-0.009277	0.592773	-0.009924	-0.783568	0.048280	-0.619348
62077		9.309861	-0.838987	-2.649934	-0.063648	-0.054374	0.033056	-0.594971	-0.002441	0.592529	-0.010206	-0.783946	0.049217	-0.618791
62078		9.559336	-0.331172	-2.544556	0.046809	-0.060992	-0.009421	-0.590820	-0.004883	0.593262	-0.009726	-0.784416	0.048883	-0.618230
62079		9.571766	-0.281843	-2.252654	0.094084	-0.049369	-0.023351	-0.592773	-0.003662	0.598145	-0.008899	-0.784809	0.048047	-0.617808
62080		9.513195	-0.539479	-2.316571	-0.031668	-0.017348	-0.002347	-0.602539	-0.005859	0.596924	-0.009162	-0.784929	0.048382	-0.617626
62081		9.413368	-0.659448	-2.523603	-0.196244	0.019878	0.010749	-0.600098	-0.007080	0.591064	-0.010965	-0.784728	0.050116	-0.617714
62082		9.369570	-0.666302	-2.418980	-0.137256	0.009849	-0.005856	-0.603027	-0.008545	0.594971	-0.012310	-0.784619	0.051233	-0.617735
62083		9.465651	-0.707128	-2.273735	0.004881	-0.016788	-0.030981	-0.600586	-0.007568	0.595215	-0.012438	-0.784754	0.051011	-0.617580
62084		9.398011	-0.608012	-2.457661	-0.002640	-0.027572	-0.018382	-0.602539	-0.000977	0.598145	-0.012534	-0.784962	0.050972	-0.617316
62085		9.305674	-0.686302	-2.581652	-0.025758	-0.040444	-0.015744	-0.599121	-0.008789	0.599121	-0.012823	-0.785265	0.051133	-0.616911
62086		9.492753	-0.613861	-2.554962	-0.007987	-0.051369	-0.033908	-0.590820	-0.012207	0.602295	-0.013077	-0.785668	0.050991	-0.616405
62087		9.633155	-0.452915	-2.291574	-0.025264	-0.028441	-0.025454	-0.594971	-0.009033	0.593994	-0.013452	-0.785887	0.051063	-0.616111
62088		9.581601	-0.373628	-2.207622	-0.016425	0.015862	-0.014762	-0.596924	-0.012939	0.588623	-0.013684	-0.785756	0.051163	-0.616265
62089		9.359464	-0.355983	-2.452108	-0.033444	0.025157	-0.019659	-0.600586	-0.014648	0.595703	-0.014133	-0.785551	0.051351	-0.616500
62090		9.357795	-0.415162	-2.716729	-0.038634	-0.005228	-0.030672	-0.593994	-0.020752	0.595459	-0.014698	-0.785588	0.051475	-0.616430
62091		9.400167	-0.375990	-2.560926	-0.041842	-0.018458	-0.034479	-0.602539	-0.028809	0.588867	-0.015320	-0.785730	0.051597	-0.616224
62092		9.458651	-0.405433	-2.239944	-0.063216	-0.009991	-0.030144	-0.597900	-0.013428	0.593506	-0.016135	-0.785793	0.051938	-0.616094
62093		9.474324	-0.448446	-2.278324	-0.052320	-0.020958	-0.015635	-0.594727	-0.020752	0.597412	-0.016700	-0.785938	0.052307	-0.615862
62094		9.459114	-0.468951	-2.419911	-0.063083	-0.016552	-0.008988	-0.598633	-0.022461	0.598877	-0.017331	-0.786044	0.052834	-0.615665
62095		9.517741	-0.400491	-2.459030	-0.020417	-0.025789	-0.027733	-0.600830	-0.025391	0.592041	-0.017683	-0.786241	0.052853	-0.615401
62096		9.503083	-0.277404	-2.265501	-0.005457	-0.026932	-0.039426	-0.594482	-0.014160	0.589355	-0.017980	-0.786454	0.052649	-0.615138
62097		9.471337	-0.462382	-2.204727	0.005475	-0.012664	-0.037362	-0.599365	-0.024902	0.597656	-0.018145	-0.786560	0.052350	-0.615023
62098		9.424162	-0.495552	-2.424218	0.006021	-0.009445	-0.029224	-0.593994	-0.025879	0.593750	-0.018260	-0.786637	0.052150	-0.614939
62099		9.398866	-0.480500	-2.492338	-0.025257	-0.007515	-0.023829	-0.596680	-0.028564	0.585449	-0.018644	-0.786688	0.052245	-0.614853
62100		9.388886	-0.377294	-2.493990	0.035216	-0.016768	-0.038533	-0.593506	-0.013428	0.595947	-0.018544	-0.786829	0.051741	-0.614719
62101		9.429729	-0.319223	-2.428832	0.055373	-0.027179	-0.036894	-0.597412	-0.019043	0.596924	-0.018200	-0.787062	0.051058	-0.614488
62102		9.471490	-0.337769	-2.525665	0.014604	-0.020081	-0.023053	-0.597168	-0.016846	0.593750	-0.018166	-0.787218	0.050840	-0.614307
62103		9.437240	-0.297711	-2.552886	-0.007131	-0.011716	-0.025870	-0.593750	-0.027344	0.597412	-0.018370	-0.787306	0.050755	-0.614195
62104		9.423671	-0.357847	-2.445121	0.002953	-0.016061	-0.030330	-0.593018	-0.023926	0.600342	-0.018523	-0.787435	0.050574	-0.614040
62105		9.432016	-0.379196	-2.450345	0.036665	-0.020600	-0.034740	-0.596924	-0.019287	0.590820	-0.018368	-0.787611	0.050080	-0.613860
62106		9.408918	-0.326060	-2.447914	0.007135	0.003103	-0.027242	-0.602051	-0.022461	0.591309	-0.018455	-0.787587	0.049874	-0.613905
62107		9.489349	-0.256932	-2.519716	0.008284	0.012260	-0.023922	-0.593994	-0.036133	0.599121	-0.018517	-0.787488	0.049700	-0.614044
62108		9.450488	-0.239467	-2.462708	-0.004435	0.010648	-0.021539	-0.593750	-0.023926	0.599854	-0.018710	-0.787404	0.049682	-0.614147
62109		9.386994	-0.283879	-2.522582	-0.018674	0.009868	-0.018940	-0.603760	-0.025879	0.594971	-0.018997	-0.787323	0.049757	-0.614235
62110		9.390597	-0.329289	-2.494941	-0.015581	0.005323	-0.023907	-0.605957	-0.018066	0.596924	-0.019293	-0.787273	0.049771	-0.614289
62111		9.443414	-0.303977	-2.444554	-0.017362	-0.001468	-0.020873	-0.587158	-0.024414	0.591797	-0.019561	-0.787275	0.049803	-0.614277
62112		9.519600	-0.285032	-2.410849	-0.010658	0.006205	-0.015570	-0.597412	-0.023438	0.596924	-0.019738	-0.787222	0.049846	-0.614334
62113		9.497358	-0.253594	-2.346579	-0.020154	0.019675	-0.008721	-0.604980	-0.024414	0.597900	-0.019962	-0.787057	0.050024	-0.614524
62114		9.429016	-0.239715	-2.402263	-0.039621	0.021048	-0.009068	-0.596436	-0.030518	0.591553	-0.020384	-0.786873	0.050354	-0.614719
62115		9.425551	-0.265931	-2.440370	-0.046903	0.017604	-0.007368	-0.594482	-0.031982	0.592529	-0.020875	-0.786713	0.050774	-0.614873
62116		9.428164	-0.307639	-2.391491	-0.044991	0.022709	-0.006106	-0.604004	-0.022949	0.596436	-0.021342	-0.786515	0.051191	-0.615076
62117		9.446671	-0.331533	-2.325767	-0.031398	0.021134	-0.007519	-0.598389	-0.027588	0.599365	-0.021662	-0.786332	0.051456	-0.615276
62118		9.445959	-0.324332	-2.354288	-0.025254	0.010832	-0.003419	-0.598145	-0.027100	0.588379	-0.021892	-0.786233	0.051726	-0.615372
62119		9.474520	-0.299915	-2.428336	-0.019200	0.004921	0.003222	-0.600830	-0.035400	0.590088	-0.022008	-0.786170	0.052021	-0.615424
62120		9.453567	-0.234025	-2.346112	-0.029520	0.005194	0.000588	-0.602783	-0.036133	0.588623	-0.022267	-0.786101	0.052404	-0.615470
62121		9.477031	-0.255721	-2.254466	-0.032697	0.003665	-0.003040	-0.601807	-0.035889	0.586914	-0.022586	-0.786043	0.052778	-0.615501
62122		9.547723	-0.310533	-2.290084	-0.025724	0.019487	-0.003238	-0.599121	-0.031494	0.594482	-0.022846	-0.785864	0.053089	-0.615692
62123		9.482922	-0.350056	-2.318563	-0.008211	0.035900	-0.004024	-0.596191	-0.035156	0.590576	-0.022936	-0.785574	0.053223	-0.616047
62124		9.435048	-0.354808	-2.396962	0.013610	0.016079	-0.006868	-0.592529	-0.027100	0.587891	-0.022830	-0.785444	0.053182	-0.616221
62125		9.410883	-0.325145	-2.466708	0.008020	0.003292	-0.001592	-0.606934	-0.032227	0.592529	-0.022705	-0.785410	0.053202	-0.616267
62126		9.440406	-0.345756	-2.395430	-0.000839	0.006618	-0.002282	-0.604980	-0.034424	0.599365	-0.022695	-0.785340	0.053318	-0.616346
62127		9.474180	-0.290505	-2.283308	0.000030	0.012746	-0.005261	-0.605957	-0.035889	0.588867	-0.022710	-0.785232	0.053399	-0.616477
62128		9.473070	-0.328202	-2.351129	0.005863	0.010583	-0.004513	-0.605957	-0.036133	0.602051	-0.022665	-0.785132	0.053458	-0.616601
62129		9.467521	-0.374756	-2.417089	0.008994	0.010777	-0.004289	-0.596680	-0.039062	0.588623	-0.022589	-0.785041	0.053488	-0.616716
62130		9.454398	-0.353678	-2.359828	0.006900	0.016025	-0.005595	-0.600586	-0.021729	0.584717	-0.022554	-0.784907	0.053532	-0.616884
62131		9.437837	-0.343343	-2.309364	0.017441	0.014778	-0.009965	-0.603760	-0.035156	0.593018	-0.022391	-0.784788	0.053373	-0.617056
62132		9.429948	-0.360595	-2.353145	0.015996	0.008130	-0.005169	-0.608643	-0.032227	0.594971	-0.022249	-0.784716	0.053341	-0.617155
62133		9.478597	-0.373316	-2.393158	0.004671	0.013954	-0.001468	-0.599121	-0.030029	0.580811	-0.022187	-0.784593	0.053422	-0.617307
62134		9.485899	-0.305152	-2.326618	0.010436	0.020620	-0.001884	-0.604736	-0.031738	0.587158	-0.022063	-0.784417	0.053438	-0.617533
62135		9.459741	-0.311329	-2.313497	0.020152	0.009864	-0.005054	-0.599854	-0.028320	0.583496	-0.021871	-0.784330	0.053364	-0.617658
62136		9.422942	-0.329565	-2.329553	0.012969	0.010323	-0.007488	-0.595703	-0.025391	0.586426	-0.021755	-0.784241	0.053300	-0.617780
62137		9.456639	-0.404644	-2.291728	0.015142	0.005092	-0.009307	-0.596924	-0.031982	0.591309	-0.021618	-0.784201	0.053182	-0.617845
62138		9.453189	-0.392844	-2.253766	0.022245	-0.001130	-0.006558	-0.600586	-0.036133	0.589355	-0.021411	-0.784211	0.053073	-0.617849
62139		9.484276	-0.397531	-2.298952	0.032333	0.011524	-0.008314	-0.601562	-0.024658	0.584473	-0.021145	-0.784121	0.052895	-0.617988
62140		9.506343	-0.352077	-2.296361	0.031187	0.016445	-0.010405	-0.601074	-0.024902	0.584961	-0.020869	-0.783991	0.052648	-0.618183
62141		9.496381	-0.342411	-2.277560	0.028225	-0.000053	-0.004853	-0.610352	-0.030273	0.588379	-0.020570	-0.783986	0.052486	-0.618213
62142		9.462090	-0.369206	-2.322713	0.018206	0.009705	-0.009670	-0.601074	-0.022461	0.589111	-0.020440	-0.783899	0.052393	-0.618337
62143		9.450841	-0.331631	-2.290108	0.009345	0.019800	-0.009958	-0.602783	-0.023682	0.588623	-0.020372	-0.783743	0.052308	-0.618543
62144		9.481545	-0.374522	-2.310321	0.016894	0.018512	-0.006471	-0.614502	-0.026123	0.592773	-0.020208	-0.783595	0.052208	-0.618744
62145		9.441737	-0.383071	-2.338916	0.009980	0.009448	-0.005824	-0.598145	-0.030762	0.585938	-0.020117	-0.783508	0.052198	-0.618859
62146		9.452960	-0.370097	-2.359839	0.004786	0.005845	-0.011597	-0.598633	-0.034180	0.592773	-0.020130	-0.783459	0.052183	-0.618922
62147		9.491497	-0.372363	-2.251217	0.005713	0.002121	-0.011019	-0.601807	-0.026611	0.590576	-0.020141	-0.783444	0.052180	-0.618940
62148		9.528969	-0.372767	-2.133580	0.001172	0.003412	-0.002603	-0.608887	-0.024658	0.592773	-0.020104	-0.783410	0.052258	-0.618979
62149		9.516133	-0.375380	-2.171831	-0.009609	0.023316	0.000098	-0.614014	-0.023438	0.592529	-0.020160	-0.783212	0.052438	-0.619211
62150		9.488563	-0.331660	-2.283362	-0.004004	0.032220	-0.007353	-0.606445	-0.024170	0.592773	-0.020222	-0.782947	0.052500	-0.619539
62151		9.466860	-0.367585	-2.298231	-0.000784	0.025647	-0.010681	-0.607178	-0.026855	0.586426	-0.020273	-0.782745	0.052495	-0.619793
62152		9.447683	-0.390510	-2.256904	-0.004423	0.017630	-0.009910	-0.604736	-0.023438	0.591064	-0.020359	-0.782597	0.052551	-0.619973
62153		9.459389	-0.397300	-2.269257	-0.011498	0.018402	-0.009712	-0.606689	-0.033447	0.590088	-0.020497	-0.782450	0.052633	-0.620147
62154		9.495374	-0.346816	-2.316109	-0.005610	0.023382	-0.005845	-0.604004	-0.030518	0.587646	-0.020592	-0.782257	0.052767	-0.620375
62155		9.524397	-0.319510	-2.284571	-0.004202	0.024077	-0.004920	-0.610107	-0.019043	0.580078	-0.020652	-0.782061	0.052878	-0.620611
62156		9.511157	-0.274904	-2.272448	-0.023487	0.027084	-0.002478	-0.604492	-0.022949	0.586914	-0.020840	-0.781824	0.053110	-0.620884
62157		9.464646	-0.323548	-2.255734	-0.048285	0.030555	-0.002811	-0.608398	-0.019775	0.586182	-0.021285	-0.781567	0.053533	-0.621155
62158		9.486528	-0.377805	-2.259738	-0.043046	0.034890	-0.008306	-0.602051	-0.038818	0.575684	-0.021711	-0.781279	0.053844	-0.621476
62159		9.468728	-0.424910	-2.178610	-0.023108	0.025431	-0.007579	-0.608154	-0.022461	0.583252	-0.022010	-0.781059	0.054124	-0.621718
62160		9.459808	-0.435085	-2.202333	-0.007573	0.012519	-0.006781	-0.608398	-0.027100	0.584229	-0.022069	-0.780951	0.054191	-0.621846
62161		9.441616	-0.419465	-2.278161	-0.001510	0.003923	-0.006921	-0.604004	-0.025391	0.585693	-0.022084	-0.780911	0.054239	-0.621890
62162		9.499848	-0.354020	-2.259939	0.003327	-0.003676	-0.005056	-0.607422	-0.029053	0.589600	-0.022020	-0.780939	0.054248	-0.621857
62163		9.498508	-0.328854	-2.164279	0.002338	0.006534	-0.010964	-0.605225	-0.018799	0.584473	-0.022036	-0.780891	0.054226	-0.621919
62164		9.495829	-0.359731	-2.121546	0.002516	0.014195	-0.013747	-0.602051	-0.033936	0.583740	-0.022032	-0.780784	0.054116	-0.622063
62165		9.520962	-0.383858	-2.180062	-0.008054	0.006754	-0.010549	-0.608643	-0.030273	0.584717	-0.022165	-0.780729	0.054206	-0.622119
62166		9.522290	-0.380891	-2.269893	-0.005337	0.013064	-0.008899	-0.607666	-0.035645	0.582275	-0.022252	-0.780619	0.054278	-0.622248
62167		9.485504	-0.355755	-2.206165	-0.002793	0.011403	-0.010252	-0.606201	-0.021240	0.583984	-0.022348	-0.780521	0.054352	-0.622362
62168		9.445594	-0.385204	-2.189670	-0.005010	0.000658	-0.007245	-0.615234	-0.035400	0.583252	-0.022366	-0.780512	0.054379	-0.622369
62169		9.494132	-0.437396	-2.219029	0.002184	0.003316	-0.011895	-0.609619	-0.028809	0.583740	-0.022425	-0.780471	0.054413	-0.622416
62170		9.462119	-0.404868	-2.210105	0.004603	0.003177	-0.012113	-0.610596	-0.025146	0.586914	-0.022426	-0.780442	0.054372	-0.622455
62171		9.510388	-0.352514	-2.178555	0.030011	-0.004987	-0.015995	-0.606445	-0.025879	0.589355	-0.022186	-0.780491	0.054070	-0.622429
62172		9.545177	-0.345306	-2.176420	0.018057	0.001309	-0.012934	-0.616211	-0.035889	0.583740	-0.022040	-0.780494	0.053879	-0.622447
62173		9.515647	-0.276931	-2.197201	0.000598	0.015683	-0.009179	-0.608154	-0.029541	0.580078	-0.022108	-0.780353	0.053957	-0.622615
62174		9.428458	-0.295194	-2.187588	-0.004133	0.011033	-0.008534	-0.606934	-0.023682	0.580566	-0.022178	-0.780255	0.054026	-0.622729
62175		9.456204	-0.392161	-2.216300	0.005429	-0.009034	-0.014916	-0.612061	-0.039062	0.579346	-0.022160	-0.780326	0.053921	-0.622650
62176		9.514600	-0.390591	-2.190602	0.007373	-0.005963	-0.012012	-0.606934	-0.026367	0.582764	-0.022185	-0.780356	0.053943	-0.622609
62177		9.524657	-0.314791	-2.140950	0.001169	-0.005234	-0.003690	-0.609619	-0.034912	0.578857	-0.022135	-0.780390	0.053992	-0.622564
62178		9.512537	-0.279475	-2.164003	0.005083	-0.005692	-0.003735	-0.616699	-0.030762	0.584473	-0.022095	-0.780416	0.054081	-0.622526
62179		9.473109	-0.310914	-2.200181	-0.006600	0.000639	-0.010070	-0.610596	-0.031738	0.584473	-0.022207	-0.780393	0.054177	-0.622542
62180		9.465331	-0.369380	-2.193379	-0.000894	-0.002658	-0.014961	-0.609863	-0.030762	0.585205	-0.022296	-0.780409	0.054172	-0.622520
62181		9.537868	-0.365918	-2.176698	0.007221	-0.010214	-0.010569	-0.603516	-0.025391	0.581299	-0.022260	-0.780485	0.054138	-0.622428
62182		9.515784	-0.345046	-2.187052	0.002885	-0.006435	0.003787	-0.612793	-0.030518	0.585449	-0.022126	-0.780527	0.054233	-0.622372
62183		9.459050	-0.287127	-2.252592	0.006283	-0.002457	-0.000920	-0.615479	-0.030273	0.580078	-0.022033	-0.780531	0.054306	-0.622363
62184		9.460820	-0.291354	-2.272640	-0.002990	-0.009676	-0.010634	-0.607422	-0.021240	0.580322	-0.022107	-0.780584	0.054375	-0.622288
62185		9.496005	-0.350316	-2.222833	-0.008473	-0.016545	-0.011103	-0.608398	-0.027832	0.581543	-0.022176	-0.780705	0.054400	-0.622132
62186		9.522498	-0.428809	-2.128515	-0.001648	-0.017342	-0.001892	-0.606689	-0.026855	0.584229	-0.022142	-0.780825	0.054508	-0.621974
62187		9.498778	-0.445628	-2.159999	0.000925	-0.010846	-0.002523	-0.612549	-0.025635	0.587402	-0.022083	-0.780901	0.054573	-0.621874
62188		9.517914	-0.332867	-2.213483	0.021523	-0.007136	-0.006601	-0.602783	-0.029541	0.577881	-0.021857	-0.780953	0.054440	-0.621828
62189		9.519468	-0.275197	-2.253120	0.016213	-0.014691	-0.005166	-0.614258	-0.029541	0.584717	-0.021685	-0.781060	0.054389	-0.621705
62190		9.443764	-0.353049	-2.231158	-0.002974	-0.014617	-0.007283	-0.605469	-0.027832	0.578613	-0.021728	-0.781154	0.054484	-0.621577
62191		9.428954	-0.415307	-2.206818	-0.003426	-0.014604	-0.011354	-0.611084	-0.028564	0.576660	-0.021791	-0.781255	0.054521	-0.621444
62192		9.513272	-0.448110	-2.129659	0.000829	-0.018799	-0.008640	-0.605469	-0.031738	0.587646	-0.021802	-0.781375	0.054579	-0.621288
62193		9.548378	-0.403071	-2.152177	0.025164	-0.007935	-0.003058	-0.607422	-0.028076	0.573730	-0.021541	-0.781438	0.054484	-0.621226
62194		9.527428	-0.323398	-2.189335	0.013366	-0.000820	-0.000087	-0.605225	-0.021484	0.580322	-0.021372	-0.781416	0.054520	-0.621257
62195		9.454992	-0.304309	-2.265432	0.004512	-0.010433	-0.006737	-0.603271	-0.031006	0.597412	-0.021289	-0.781487	0.054492	-0.621172
62196		9.461979	-0.364583	-2.278828	0.013281	-0.007539	-0.017117	-0.598877	-0.030762	0.582764	-0.021244	-0.781573	0.054323	-0.621081
62197		9.434635	-0.430900	-2.252879	0.016134	-0.010053	-0.014297	-0.606201	-0.024658	0.578369	-0.021152	-0.781659	0.054181	-0.620988
62198		9.491102	-0.425375	-2.302218	0.021814	-0.016627	-0.003528	-0.603271	-0.020996	0.581299	-0.020896	-0.781773	0.054089	-0.620861
62199		9.498946	-0.326811	-2.294075	0.011886	-0.019858	0.002326	-0.609863	-0.027832	0.588135	-0.020664	-0.781916	0.054092	-0.620689
62200		9.448994	-0.271759	-2.310007	0.006077	-0.017218	-0.001209	-0.604248	-0.024170	0.580078	-0.020564	-0.782036	0.054166	-0.620535
62201		9.471814	-0.317371	-2.318120	0.001330	-0.017770	-0.010048	-0.607178	-0.027832	0.585693	-0.020558	-0.782161	0.054167	-0.620377
62202		9.497876	-0.391991	-2.214884	-0.014628	-0.020574	-0.007892	-0.604492	-0.020752	0.586182	-0.020712	-0.782304	0.054338	-0.620176
62203		9.514999	-0.420168	-2.166722	0.002568	-0.009785	-0.005191	-0.608154	-0.035645	0.590820	-0.020633	-0.782375	0.054333	-0.620090
62204		9.500177	-0.377816	-2.212602	0.015246	-0.001766	-0.007430	-0.607666	-0.026123	0.589600	-0.020549	-0.782382	0.054325	-0.620084
62205		9.451246	-0.384342	-2.298731	0.015522	-0.009742	-0.006337	-0.602051	-0.018066	0.587158	-0.020390	-0.782454	0.054256	-0.620005
62206		9.461097	-0.372110	-2.324711	0.011437	-0.018292	-0.006877	-0.607910	-0.024902	0.587402	-0.020214	-0.782600	0.054140	-0.619837
62207		9.494412	-0.363790	-2.276008	-0.003063	-0.016487	-0.007893	-0.605957	-0.027832	0.587891	-0.020243	-0.782714	0.054204	-0.619686
62208		9.495820	-0.409089	-2.193332	0.018938	-0.012548	-0.011495	-0.609619	-0.020752	0.586426	-0.020103	-0.782808	0.054078	-0.619583
62209		9.478032	-0.380449	-2.257908	0.034481	-0.018559	-0.013406	-0.607422	-0.025391	0.579102	-0.019786	-0.782947	0.053776	-0.619444
62210		9.473347	-0.368687	-2.315964	0.018872	-0.010181	-0.007338	-0.603027	-0.021729	0.585938	-0.019621	-0.783000	0.053711	-0.619388
62211		9.464963	-0.346001	-2.335933	0.012204	-0.010297	-0.006089	-0.608887	-0.025879	0.594238	-0.019472	-0.783074	0.053645	-0.619305
62212		9.453870	-0.377340	-2.309653	0.005462	-0.014653	-0.006511	-0.603760	-0.026123	0.582520	-0.019417	-0.783182	0.053661	-0.619169
62213		9.459432	-0.414903	-2.321636	0.012792	-0.018929	-0.009346	-0.602051	-0.019043	0.601807	-0.019321	-0.783313	0.053617	-0.619009
62214		9.468332	-0.400558	-2.299082	0.013810	-0.027055	-0.008155	-0.603760	-0.026123	0.591797	-0.019124	-0.783549	0.053455	-0.618731
62215		9.496365	-0.399440	-2.292014	0.015355	-0.027357	-0.011116	-0.601318	-0.020752	0.596924	-0.019001	-0.783762	0.053354	-0.618474
62216		9.530725	-0.374176	-2.310967	0.020904	-0.018091	-0.012812	-0.604004	-0.023438	0.587158	-0.018797	-0.783921	0.053124	-0.618298
62217		9.473966	-0.359368	-2.283227	0.015809	-0.012426	-0.005948	-0.598389	-0.015625	0.589844	-0.018635	-0.784004	0.053069	-0.618202
62218		9.423651	-0.384334	-2.354105	0.006138	-0.004626	-0.007366	-0.602051	-0.020996	0.585938	-0.018518	-0.784044	0.052977	-0.618163
62219		9.417114	-0.446445	-2.356827	0.013406	-0.005834	-0.017344	-0.600586	-0.024170	0.596924	-0.018459	-0.784084	0.052810	-0.618128
62220		9.449402	-0.451923	-2.281782	0.021936	-0.017043	-0.013309	-0.603516	-0.016602	0.584717	-0.018274	-0.784234	0.052598	-0.617962
62221		9.463533	-0.411995	-2.366681	0.020866	-0.008081	-0.005226	-0.602051	-0.017334	0.593018	-0.018026	-0.784280	0.052471	-0.617922
62222		9.484086	-0.327527	-2.392063	0.012758	-0.008403	-0.004506	-0.598633	-0.017090	0.595703	-0.017837	-0.784345	0.052383	-0.617852
62223		9.489261	-0.301152	-2.370867	0.001764	-0.012002	-0.006258	-0.603516	-0.020264	0.590332	-0.017754	-0.784449	0.052338	-0.617726
62224		9.463244	-0.368805	-2.302695	-0.001313	-0.004422	-0.014718	-0.604004	-0.020996	0.605469	-0.017819	-0.784476	0.052307	-0.617692
62225		9.441311	-0.425691	-2.276259	0.006007	0.003354	-0.017874	-0.600830	-0.010986	0.586670	-0.017805	-0.784477	0.052120	-0.617707
62226		9.466877	-0.475937	-2.390536	0.014682	-0.001738	-0.011533	-0.601562	-0.023438	0.597412	-0.017631	-0.784486	0.051922	-0.617717
62227		9.452432	-0.435233	-2.394393	0.016865	-0.003735	-0.003019	-0.606201	-0.027588	0.597900	-0.017423	-0.784522	0.051846	-0.617684
62228		9.443557	-0.348753	-2.380699	0.010254	0.002411	-0.004861	-0.601562	-0.025879	0.586182	-0.017337	-0.784500	0.051860	-0.617714
62229		9.442418	-0.323666	-2.377943	0.001325	-0.003870	-0.009650	-0.600586	-0.021729	0.592041	-0.017389	-0.784511	0.051929	-0.617692
62230		9.457001	-0.402689	-2.363121	-0.007428	-0.007944	-0.011150	-0.600830	-0.022461	0.583984	-0.017487	-0.784570	0.051978	-0.617610
62231		9.478867	-0.438984	-2.298766	-0.001429	-0.001040	-0.009821	-0.598877	-0.018555	0.592041	-0.017549	-0.784557	0.052042	-0.617619
62232		9.474277	-0.404095	-2.309146	-0.003482	0.003493	-0.003007	-0.603271	-0.020752	0.592529	-0.017525	-0.784528	0.052100	-0.617652
62233		9.422817	-0.423934	-2.358177	0.000740	0.006631	-0.002646	-0.600342	-0.022217	0.587158	-0.017482	-0.784467	0.052165	-0.617726
62234		9.442519	-0.376608	-2.400820	0.002723	-0.003671	-0.005982	-0.602051	-0.019043	0.587402	-0.017460	-0.784482	0.052214	-0.617703
62235		9.495197	-0.378286	-2.354838	-0.011640	-0.007357	-0.003969	-0.600098	-0.018799	0.595215	-0.017542	-0.784518	0.052371	-0.617641
62236		9.464418	-0.371624	-2.308877	-0.011627	0.001803	-0.005681	-0.604248	-0.023193	0.593506	-0.017610	-0.784508	0.052456	-0.617646
62237		9.459781	-0.396169	-2.290124	-0.011000	0.006564	-0.005838	-0.605713	-0.022705	0.593262	-0.017723	-0.784445	0.052601	-0.617709
62238		9.457017	-0.407234	-2.346889	-0.009493	0.003375	-0.007064	-0.601074	-0.024902	0.590088	-0.017829	-0.784406	0.052723	-0.617746
62239		9.486873	-0.405160	-2.332703	-0.015169	0.005293	-0.005557	-0.598877	-0.022217	0.588135	-0.017993	-0.784351	0.052919	-0.617793
62240		9.459929	-0.386917	-2.277421	-0.014982	0.008010	-0.005020	-0.600830	-0.022705	0.586670	-0.018131	-0.784278	0.053091	-0.617868
62241		9.448411	-0.413176	-2.279499	-0.004965	-0.000936	-0.008335	-0.599365	-0.023193	0.593994	-0.018203	-0.784271	0.053173	-0.617868
62242		9.499534	-0.450841	-2.293126	-0.002216	-0.000368	-0.009529	-0.602539	-0.021973	0.593994	-0.018232	-0.784281	0.053179	-0.617854
62243		9.498615	-0.384053	-2.261547	-0.001338	0.000329	-0.009552	-0.604980	-0.022461	0.590088	-0.018252	-0.784279	0.053180	-0.617855
62244		9.517272	-0.330544	-2.243529	0.004710	0.007243	-0.011343	-0.594238	-0.020752	0.584229	-0.018253	-0.784212	0.053153	-0.617943
62245		9.456248	-0.382861	-2.313316	0.007211	0.008484	-0.011306	-0.610596	-0.017578	0.594482	-0.018208	-0.784147	0.053071	-0.618034
62246		9.425753	-0.397448	-2.351047	0.001504	0.002256	-0.010476	-0.602051	-0.020020	0.588135	-0.018193	-0.784118	0.053028	-0.618075
62247		9.413675	-0.402502	-2.360854	-0.001195	-0.007468	-0.010707	-0.608154	-0.025635	0.598877	-0.018217	-0.784167	0.053027	-0.618012
62248		9.494592	-0.398617	-2.242122	-0.004287	-0.008725	-0.008552	-0.603760	-0.017822	0.590576	-0.018275	-0.784232	0.053091	-0.617922
62249		9.509367	-0.397342	-2.261657	0.006145	0.001680	-0.010460	-0.592529	-0.017090	0.593750	-0.018210	-0.784214	0.053006	-0.617954
62250		9.507356	-0.349707	-2.305697	-0.001310	0.005074	-0.007515	-0.594971	-0.024658	0.588623	-0.018147	-0.784201	0.052924	-0.617980
62251		9.465699	-0.373020	-2.310628	-0.005535	0.011093	-0.009584	-0.597900	-0.018311	0.586914	-0.018231	-0.784120	0.052971	-0.618076
62252		9.440157	-0.420237	-2.337563	0.006780	0.001709	-0.015777	-0.599365	-0.022949	0.597412	-0.018201	-0.784111	0.052825	-0.618101
62253		9.441921	-0.421237	-2.305584	0.008349	-0.003521	-0.012245	-0.603760	-0.021484	0.593506	-0.018118	-0.784161	0.052683	-0.618051
62254		9.468496	-0.391619	-2.321840	0.013847	-0.000517	-0.010859	-0.592773	-0.020020	0.592773	-0.017993	-0.784169	0.052548	-0.618057
62255		9.473497	-0.363432	-2.339291	0.018059	0.002632	-0.010494	-0.609131	-0.018066	0.589600	-0.017784	-0.784178	0.052317	-0.618071
62256		9.449710	-0.376713	-2.357013	0.002237	0.002104	-0.010392	-0.599365	-0.022461	0.590576	-0.017785	-0.784140	0.052306	-0.618120
62257		9.447533	-0.388464	-2.373386	0.001213	-0.001819	-0.011279	-0.600586	-0.023438	0.588867	-0.017795	-0.784158	0.052274	-0.618100
62258		9.464821	-0.410645	-2.262268	-0.001718	-0.005109	-0.010622	-0.605225	-0.025146	0.586914	-0.017847	-0.784192	0.052302	-0.618053
62259		9.491002	-0.419790	-2.256941	0.015275	-0.002679	-0.011334	-0.600098	-0.024170	0.593506	-0.017777	-0.784194	0.052249	-0.618057
62260		9.480314	-0.389370	-2.297382	0.012902	0.002695	-0.011823	-0.603516	-0.020996	0.584473	-0.017683	-0.784184	0.052122	-0.618082
62261		9.462421	-0.378696	-2.341826	0.011798	0.005554	-0.012309	-0.594482	-0.023193	0.590332	-0.017636	-0.784122	0.052054	-0.618168
62262		9.473785	-0.365695	-2.322424	0.004510	0.001652	-0.013271	-0.602051	-0.020752	0.587891	-0.017625	-0.784126	0.051962	-0.618171
62263		9.473384	-0.380995	-2.306391	-0.002678	0.000968	-0.010196	-0.599121	-0.023682	0.593750	-0.017676	-0.784108	0.051990	-0.618190
62264		9.457531	-0.394486	-2.312487	0.002504	0.006694	-0.012343	-0.597900	-0.027588	0.590576	-0.017682	-0.784071	0.051923	-0.618243
62265		9.458497	-0.374080	-2.327014	0.000278	0.003242	-0.008474	-0.599121	-0.020752	0.593018	-0.017717	-0.784050	0.051968	-0.618265
62266		9.467501	-0.375794	-2.324324	-0.000559	0.002035	-0.008825	-0.603760	-0.024658	0.588623	-0.017701	-0.784045	0.051934	-0.618274
62267		9.501021	-0.343779	-2.319137	-0.002175	0.002001	-0.011638	-0.599609	-0.025391	0.590088	-0.017790	-0.784017	0.051983	-0.618303
62268		9.462910	-0.375942	-2.311446	-0.003730	0.006206	-0.012795	-0.608398	-0.028809	0.588379	-0.017889	-0.783972	0.052002	-0.618356
62269		9.457687	-0.437298	-2.311879	0.000604	0.002073	-0.013204	-0.604980	-0.028320	0.591309	-0.018009	-0.783931	0.052078	-0.618398
62270		9.475283	-0.401568	-2.278828	-0.004388	0.000921	-0.006755	-0.601807	-0.019775	0.590088	-0.018097	-0.783911	0.052210	-0.618409
62271		9.455630	-0.365608	-2.270015	-0.003616	0.006031	-0.007394	-0.604004	-0.020996	0.580566	-0.018112	-0.783862	0.052231	-0.618469
62272		9.500766	-0.365836	-2.324734	0.010742	0.005046	-0.014550	-0.603271	-0.021484	0.589111	-0.018099	-0.783796	0.052161	-0.618559
62273		9.487352	-0.386026	-2.309003	0.001307	-0.006224	-0.010659	-0.604492	-0.023682	0.595459	-0.018104	-0.783839	0.052144	-0.618507
62274		9.420131	-0.380965	-2.297138	-0.006096	-0.000476	-0.009835	-0.598877	-0.031250	0.587891	-0.018173	-0.783847	0.052178	-0.618491
62275		9.429628	-0.402885	-2.287959	0.001569	0.006510	-0.011943	-0.598145	-0.019287	0.590088	-0.018265	-0.783795	0.052231	-0.618550
62276		9.475351	-0.422733	-2.245259	0.002516	-0.004832	-0.011642	-0.612305	-0.025635	0.589111	-0.018225	-0.783844	0.052136	-0.618496
62277		9.491351	-0.385043	-2.295691	0.007230	0.001736	-0.011704	-0.600342	-0.023438	0.590332	-0.018247	-0.783802	0.052151	-0.618549
62278		9.498860	-0.343955	-2.346878	0.002267	0.006353	-0.008732	-0.605225	-0.028076	0.587646	-0.018236	-0.783756	0.052138	-0.618608
62279		9.465706	-0.369142	-2.299806	-0.000942	0.002885	-0.012995	-0.606689	-0.026855	0.583496	-0.018352	-0.783717	0.052201	-0.618649
62280		9.438510	-0.390657	-2.274383	0.001574	-0.001116	-0.015361	-0.602539	-0.020508	0.584473	-0.018469	-0.783697	0.052239	-0.618667
62281		9.470210	-0.392813	-2.279327	-0.000072	0.003587	-0.013017	-0.606201	-0.026855	0.590820	-0.018512	-0.783656	0.052212	-0.618720
62282		9.464578	-0.376171	-2.365406	0.012002	0.004413	-0.010773	-0.604004	-0.024170	0.590820	-0.018462	-0.783615	0.052164	-0.618778
62283		9.446183	-0.364238	-2.359860	0.009078	-0.001777	-0.008377	-0.602051	-0.028076	0.587402	-0.018389	-0.783626	0.052122	-0.618769
62284		9.468273	-0.320962	-2.288186	-0.004776	-0.000615	-0.011940	-0.602539	-0.011230	0.592773	-0.018522	-0.783622	0.052209	-0.618763
62285		9.461675	-0.338687	-2.252059	-0.008930	-0.001914	-0.011664	-0.614502	-0.023926	0.588135	-0.018524	-0.783649	0.052109	-0.618737
62286		9.476587	-0.395383	-2.283441	0.004357	0.003198	-0.012142	-0.607910	-0.020264	0.587158	-0.018569	-0.783589	0.052131	-0.618810
62287		9.485688	-0.396925	-2.280444	0.004236	0.004205	-0.008267	-0.602539	-0.027344	0.598877	-0.018534	-0.783535	0.052120	-0.618880
62288		9.481917	-0.345104	-2.264667	0.006968	0.001904	-0.007719	-0.604980	-0.027588	0.585449	-0.018470	-0.783543	0.052078	-0.618875
62289		9.483161	-0.307189	-2.295204	0.005106	0.005423	-0.011043	-0.607178	-0.024170	0.589600	-0.018513	-0.783482	0.052112	-0.618949
62290		9.450352	-0.354206	-2.333477	0.000999	0.006501	-0.012880	-0.605713	-0.027344	0.597900	-0.018571	-0.783420	0.052106	-0.619025
62291		9.466679	-0.374039	-2.303839	-0.004865	-0.002492	-0.009454	-0.609619	-0.029297	0.589355	-0.018648	-0.783451	0.052161	-0.618980
62292		9.484471	-0.359137	-2.264719	-0.013773	0.003022	-0.006051	-0.605469	-0.020020	0.584717	-0.018848	-0.783399	0.052405	-0.619019
62293		9.484208	-0.336281	-2.270312	-0.003193	0.004677	-0.006724	-0.609131	-0.026855	0.597412	-0.018866	-0.783341	0.052454	-0.619087
62294		9.461663	-0.352443	-2.297147	-0.004319	0.002786	-0.009240	-0.596924	-0.029785	0.585449	-0.018945	-0.783322	0.052517	-0.619104
62295		9.466074	-0.380085	-2.276759	-0.012330	0.001373	-0.009278	-0.603027	-0.025391	0.592773	-0.019130	-0.783309	0.052678	-0.619101
62296		9.474647	-0.399532	-2.258365	-0.003362	0.004334	-0.006243	-0.602783	-0.018555	0.594482	-0.019158	-0.783281	0.052737	-0.619131
62297		9.484212	-0.383452	-2.270991	0.000162	0.004268	-0.007722	-0.605469	-0.019043	0.587646	-0.019093	-0.783264	0.052664	-0.619161
62298		9.460063	-0.376160	-2.295220	0.001527	0.000745	-0.008463	-0.611816	-0.035400	0.589355	-0.019054	-0.783249	0.052628	-0.619184
62299		9.486149	-0.364216	-2.294688	0.005136	0.004929	-0.011412	-0.604492	-0.017090	0.596680	-0.019165	-0.783183	0.052742	-0.619253
62300		9.472117	-0.401828	-2.303301	0.004347	0.005585	-0.011121	-0.600830	-0.031494	0.592041	-0.019071	-0.783163	0.052583	-0.619296
62301		9.455848	-0.394684	-2.315928	0.000981	0.001249	-0.012153	-0.601318	-0.025391	0.585938	-0.019147	-0.783166	0.052607	-0.619288
62302		9.454504	-0.368598	-2.312452	-0.000549	0.003910	-0.008180	-0.603271	-0.021240	0.593262	-0.019176	-0.783130	0.052648	-0.619329
62303		9.438284	-0.381079	-2.268363	0.004758	-0.000514	-0.009354	-0.607178	-0.024414	0.588623	-0.019102	-0.783148	0.052560	-0.619315
62304		9.478611	-0.388037	-2.271820	-0.006193	-0.002367	-0.007352	-0.606689	-0.018799	0.582031	-0.019175	-0.783151	0.052656	-0.619301
62305		9.519592	-0.356929	-2.255225	-0.005904	0.006468	-0.007645	-0.602783	-0.019287	0.591309	-0.019225	-0.783072	0.052716	-0.619395
62306		9.491011	-0.337532	-2.282579	0.009280	0.008102	-0.007915	-0.603760	-0.019775	0.585693	-0.019086	-0.783021	0.052586	-0.619474
62307		9.452953	-0.352980	-2.332200	0.001072	-0.001313	-0.004643	-0.602051	-0.027588	0.588623	-0.019025	-0.783021	0.052598	-0.619475
62308		9.424087	-0.352732	-2.304361	-0.015070	0.000249	-0.005342	-0.600830	-0.029297	0.587891	-0.019182	-0.783014	0.052790	-0.619462
62309		9.488253	-0.343835	-2.289125	-0.007069	-0.000181	-0.009067	-0.599854	-0.021240	0.591797	-0.019303	-0.783016	0.052899	-0.619447
62310		9.528857	-0.389414	-2.270130	-0.004370	0.000402	-0.007129	-0.597168	-0.025879	0.589355	-0.019289	-0.783031	0.052885	-0.619430
62311		9.469643	-0.386901	-2.245711	-0.006731	0.004221	-0.002492	-0.603027	-0.017334	0.581787	-0.019307	-0.783010	0.052984	-0.619447
62312		9.440721	-0.368046	-2.274387	-0.010839	0.000030	-0.003610	-0.608887	-0.032959	0.589844	-0.019345	-0.782988	0.053089	-0.619465
62313		9.462952	-0.385916	-2.266617	0.001773	-0.005177	-0.008969	-0.598145	-0.023682	0.591553	-0.019422	-0.783013	0.053196	-0.619422
62314		9.498717	-0.399675	-2.217482	0.011228	-0.000647	-0.010121	-0.606934	-0.023438	0.583008	-0.019293	-0.783045	0.053049	-0.619399
62315		9.500631	-0.364991	-2.258087	-0.001130	0.000999	-0.004253	-0.604980	-0.025879	0.591553	-0.019305	-0.783007	0.053154	-0.619437
62316		9.462349	-0.321959	-2.294849	-0.000967	0.006090	-0.002702	-0.616943	-0.016113	0.585205	-0.019286	-0.782959	0.053233	-0.619492
62317		9.456372	-0.323867	-2.273553	-0.003536	-0.001277	-0.005041	-0.610596	-0.015137	0.581787	-0.019284	-0.782921	0.053305	-0.619533
62318		9.483681	-0.335914	-2.277432	-0.008185	-0.005483	-0.007097	-0.595215	-0.019287	0.587891	-0.019324	-0.782925	0.053369	-0.619521
62319		9.484091	-0.354500	-2.272294	-0.015285	-0.004341	-0.006518	-0.602051	-0.014160	0.583740	-0.019387	-0.782978	0.053416	-0.619449
62320		9.474985	-0.425180	-2.272742	-0.002509	-0.004448	-0.010327	-0.606201	-0.033936	0.586426	-0.019349	-0.783007	0.053335	-0.619420
62321		9.498609	-0.426877	-2.199057	0.003281	-0.011250	-0.005333	-0.597412	-0.030029	0.588867	-0.019398	-0.783073	0.053491	-0.619322
62322		9.481599	-0.421739	-2.214400	0.007970	-0.005178	-0.002635	-0.603760	-0.023193	0.588867	-0.019306	-0.783124	0.053526	-0.619256
62323		9.477675	-0.354319	-2.267231	0.017908	-0.008571	-0.012045	-0.602783	-0.030518	0.583984	-0.019148	-0.783196	0.053353	-0.619186
62324		9.483626	-0.388315	-2.268118	0.017780	-0.011794	-0.012953	-0.599609	-0.026367	0.592285	-0.019087	-0.783276	0.053290	-0.619092
62325		9.510085	-0.379487	-2.279324	0.026271	-0.004573	-0.012326	-0.602051	-0.018799	0.583496	-0.018858	-0.783337	0.053047	-0.619042
62326		9.448271	-0.352709	-2.294475	0.012754	-0.001953	-0.007580	-0.601074	-0.026611	0.582031	-0.018707	-0.783341	0.052945	-0.619050
62327		9.437269	-0.381612	-2.348846	0.004452	-0.006445	-0.010794	-0.604980	-0.019287	0.583984	-0.018738	-0.783375	0.052974	-0.619005
62328		9.506098	-0.366617	-2.346934	0.005238	-0.009470	-0.012097	-0.606689	-0.025146	0.586670	-0.018704	-0.783431	0.052907	-0.618940
62329		9.508518	-0.351618	-2.290575	0.003765	-0.003093	-0.003721	-0.603027	-0.007080	0.587402	-0.018676	-0.783431	0.052994	-0.618933
62330		9.412899	-0.352246	-2.300581	0.002830	0.002486	-0.006801	-0.607422	-0.023193	0.585938	-0.018496	-0.783412	0.052818	-0.618977
62331		9.417899	-0.420929	-2.310091	-0.010728	-0.010486	-0.011524	-0.616455	-0.029541	0.584717	-0.018656	-0.783468	0.052934	-0.618892
62332		9.474107	-0.449325	-2.286592	-0.002675	-0.010067	-0.009113	-0.599854	-0.022461	0.582031	-0.018818	-0.783488	0.053144	-0.618844
62333		9.524034	-0.423150	-2.228494	0.003886	-0.002239	-0.003829	-0.605957	-0.025146	0.592773	-0.018760	-0.783488	0.053190	-0.618842
62334		9.495024	-0.367075	-2.238830	0.012051	-0.002820	-0.005290	-0.603271	-0.025879	0.586182	-0.018637	-0.783509	0.053158	-0.618822
62335		9.437565	-0.353677	-2.341564	0.006425	-0.000950	-0.010042	-0.609131	-0.018799	0.594971	-0.018634	-0.783504	0.053162	-0.618828
62336		9.446797	-0.393690	-2.317785	0.003883	-0.003566	-0.013469	-0.604004	-0.027832	0.588623	-0.018595	-0.783534	0.053042	-0.618801
62337		9.489467	-0.424002	-2.283620	-0.000668	-0.006940	-0.012495	-0.601807	-0.021240	0.584717	-0.018690	-0.783580	0.053092	-0.618737
62338		9.487832	-0.360249	-2.262572	0.002008	-0.001614	-0.005412	-0.600342	-0.021484	0.586426	-0.018649	-0.783578	0.053119	-0.618738
62339		9.430233	-0.364811	-2.348835	0.005833	0.004289	-0.008581	-0.601074	-0.029785	0.586914	-0.018590	-0.783542	0.053069	-0.618789
62340		9.425201	-0.388370	-2.372625	-0.007704	-0.006841	-0.009531	-0.600342	-0.022461	0.586426	-0.018747	-0.783585	0.053222	-0.618717
62341		9.481255	-0.394705	-2.263148	-0.015365	-0.010487	-0.008782	-0.592529	-0.028076	0.596680	-0.018896	-0.783658	0.053349	-0.618609
62342		9.518166	-0.372426	-2.205737	0.000634	-0.007584	-0.008724	-0.601562	-0.031250	0.593506	-0.018877	-0.783761	0.053318	-0.618481
62343		9.504375	-0.394577	-2.283106	0.010191	-0.002173	-0.010002	-0.605225	-0.035156	0.589111	-0.018851	-0.783788	0.053304	-0.618450
62344		9.453105	-0.394264	-2.298887	0.003829	-0.003052	-0.013096	-0.604004	-0.020996	0.589844	-0.018981	-0.783796	0.053402	-0.618427
62345		9.479589	-0.363929	-2.275026	0.005323	-0.010456	-0.015966	-0.609619	-0.019531	0.593018	-0.018967	-0.783877	0.053280	-0.618335
62346		9.512612	-0.389135	-2.285092	0.013338	-0.006615	-0.018052	-0.609375	-0.022949	0.585449	-0.018888	-0.783925	0.053070	-0.618295
62347		9.484421	-0.445801	-2.270491	0.016826	-0.001398	-0.020262	-0.600098	-0.022461	0.591309	-0.018856	-0.783911	0.052893	-0.618329
62348		9.437411	-0.435689	-2.287724	0.024935	0.000918	-0.020343	-0.605225	-0.015625	0.592773	-0.018690	-0.783925	0.052567	-0.618344
62349		9.437950	-0.396925	-2.319184	0.027371	-0.002568	-0.016081	-0.605713	-0.025146	0.595215	-0.018411	-0.783957	0.052202	-0.618343
62350		9.443463	-0.373246	-2.397253	0.022195	-0.000209	-0.013273	-0.604492	-0.020264	0.597412	-0.018250	-0.783967	0.052012	-0.618350
62351		9.442882	-0.350277	-2.403096	0.014294	0.004438	-0.014139	-0.602539	-0.023438	0.586914	-0.018119	-0.783953	0.051799	-0.618390
62352		9.457512	-0.364131	-2.355072	0.017123	-0.003599	-0.016350	-0.600342	-0.024170	0.588623	-0.018040	-0.783976	0.051634	-0.618377
62353		9.461017	-0.370428	-2.343283	0.015617	-0.012809	-0.017423	-0.601562	-0.018799	0.588623	-0.017970	-0.784082	0.051461	-0.618260
62354		9.486110	-0.393021	-2.313664	0.016684	-0.002760	-0.017396	-0.603271	-0.030762	0.592529	-0.017851	-0.784108	0.051223	-0.618250
62355		9.524896	-0.336870	-2.294853	0.018405	0.003408	-0.015433	-0.605225	-0.014648	0.595459	-0.017811	-0.784085	0.051120	-0.618288
62356		9.446390	-0.323398	-2.306011	0.002681	0.004014	-0.008815	-0.593262	-0.027100	0.589600	-0.017715	-0.784062	0.051005	-0.618329
62357		9.418461	-0.364715	-2.397071	0.005508	0.005995	-0.015994	-0.605957	-0.018311	0.590088	-0.017749	-0.784039	0.050916	-0.618365
62358		9.452658	-0.370234	-2.329245	0.005662	-0.010282	-0.017270	-0.608398	-0.022217	0.589355	-0.017739	-0.784114	0.050777	-0.618282
62359		9.498255	-0.368322	-2.254025	0.007520	-0.008525	-0.011556	-0.612305	-0.009766	0.593994	-0.017717	-0.784160	0.050743	-0.618227
62360		9.470741	-0.352160	-2.251036	0.012568	0.007277	-0.015575	-0.603760	-0.017578	0.589600	-0.017563	-0.784096	0.050475	-0.618335
62361		9.479432	-0.354606	-2.339838	0.010549	0.002279	-0.012812	-0.603271	-0.024170	0.581055	-0.017468	-0.784076	0.050324	-0.618375
62362		9.497440	-0.359277	-2.334897	0.002323	0.003834	-0.010605	-0.599609	-0.021729	0.590820	-0.017541	-0.784014	0.050392	-0.618446
62363		9.462134	-0.340544	-2.291307	0.012468	0.005917	-0.012712	-0.593994	-0.023926	0.588867	-0.017446	-0.783980	0.050244	-0.618504
62364		9.442959	-0.345060	-2.310282	0.014529	0.005664	-0.017855	-0.604004	-0.018555	0.587158	-0.017381	-0.783961	0.050037	-0.618546
62365		9.456611	-0.377249	-2.378557	0.014829	0.006354	-0.015694	-0.603027	-0.021729	0.583008	-0.017290	-0.783906	0.049852	-0.618634
62366		9.484844	-0.350096	-2.360255	0.004739	0.012748	-0.010316	-0.608887	-0.019775	0.588379	-0.017307	-0.783785	0.049857	-0.618786
62367		9.447968	-0.307512	-2.312156	-0.003590	0.013446	-0.011127	-0.604736	-0.024658	0.589600	-0.017388	-0.783659	0.049887	-0.618941
62368		9.433155	-0.341251	-2.351341	0.006455	0.007564	-0.016129	-0.608398	-0.021729	0.581787	-0.017429	-0.783598	0.049816	-0.619023
62369		9.454369	-0.389186	-2.341678	0.003159	0.005061	-0.016505	-0.605957	-0.021240	0.594482	-0.017522	-0.783525	0.049799	-0.619113
62370		9.470565	-0.387710	-2.317156	0.005510	0.009728	-0.008482	-0.602051	-0.024902	0.599365	-0.017461	-0.783457	0.049740	-0.619207
62371		9.447177	-0.362262	-2.263263	0.003361	0.010996	-0.002598	-0.605957	-0.016602	0.592041	-0.017377	-0.783398	0.049747	-0.619283
62372		9.427110	-0.347892	-2.288495	-0.003484	0.004790	-0.005884	-0.596680	-0.021729	0.593994	-0.017346	-0.783361	0.049743	-0.619331
62373		9.451443	-0.352621	-2.355249	-0.001971	-0.000240	-0.007722	-0.605957	-0.028076	0.592285	-0.017316	-0.783393	0.049706	-0.619294
62374		9.505159	-0.334596	-2.282568	-0.007369	-0.001986	-0.002588	-0.598877	-0.017578	0.589111	-0.017399	-0.783401	0.049894	-0.619266
62375		9.542297	-0.330595	-2.206656	-0.010847	0.007043	-0.003713	-0.600098	-0.021973	0.588867	-0.017421	-0.783354	0.049960	-0.619320
62376		9.521453	-0.294555	-2.237681	-0.015622	0.016193	-0.005857	-0.607910	-0.022705	0.590088	-0.017557	-0.783231	0.050095	-0.619461
62377		9.486133	-0.313358	-2.251866	-0.014291	0.017947	-0.007325	-0.609863	-0.024658	0.594971	-0.017718	-0.783078	0.050242	-0.619637
62378		9.456136	-0.381871	-2.280227	-0.013937	0.020515	-0.010775	-0.602295	-0.028320	0.585693	-0.017900	-0.782918	0.050343	-0.619827
62379		9.463805	-0.394564	-2.239930	-0.013141	0.012735	-0.007832	-0.609619	-0.017822	0.589600	-0.018094	-0.782810	0.050528	-0.619943
62380		9.487325	-0.393749	-2.244333	-0.004467	0.012226	-0.005219	-0.606445	-0.028076	0.592773	-0.018090	-0.782703	0.050561	-0.620075
62381		9.510952	-0.319799	-2.260451	0.004107	0.019868	-0.005091	-0.606934	-0.020264	0.581299	-0.018069	-0.782554	0.050599	-0.620260
62382		9.501199	-0.291253	-2.255096	-0.009933	0.020498	-0.005069	-0.602783	-0.018555	0.579346	-0.018173	-0.782366	0.050740	-0.620482
62383		9.441439	-0.285067	-2.258125	-0.023548	0.025059	-0.008236	-0.604248	-0.024902	0.586670	-0.018411	-0.782151	0.050920	-0.620732
62384		9.436503	-0.339754	-2.276105	-0.019420	0.026426	-0.011628	-0.606201	-0.028564	0.581543	-0.018657	-0.781945	0.051053	-0.620974
62385		9.459913	-0.409498	-2.215969	-0.021770	0.009846	-0.005965	-0.608643	-0.024902	0.585205	-0.018932	-0.781843	0.051343	-0.621069
62386		9.467799	-0.445874	-2.264153	-0.016923	-0.000342	0.001673	-0.605469	-0.028320	0.587891	-0.019045	-0.781824	0.051612	-0.621067
62387		9.513033	-0.336192	-2.232267	-0.014404	-0.012800	-0.000843	-0.605469	-0.024170	0.590332	-0.019152	-0.781919	0.051843	-0.620925
62388		9.545117	-0.284784	-2.153042	-0.012705	-0.001843	-0.006219	-0.601562	-0.024658	0.590332	-0.019241	-0.781941	0.051943	-0.620887
62389		9.533720	-0.288902	-2.068863	-0.005993	0.013049	-0.011247	-0.612549	-0.022461	0.584961	-0.019302	-0.781862	0.051921	-0.620986
62390		9.479066	-0.370113	-2.108242	-0.015157	0.012518	-0.012429	-0.608643	-0.033691	0.595215	-0.019505	-0.781742	0.052025	-0.621122
62391		9.449906	-0.459736	-2.225082	-0.012356	0.005505	-0.013891	-0.608643	-0.025391	0.584473	-0.019718	-0.781715	0.052119	-0.621141
62392		9.490790	-0.429501	-2.259403	0.020500	-0.004404	-0.008284	-0.613037	-0.031738	0.587646	-0.019535	-0.781743	0.051995	-0.621123
62393		9.474846	-0.352640	-2.203051	0.023766	-0.001906	-0.004769	-0.606934	-0.023926	0.583740	-0.019355	-0.781743	0.051953	-0.621131
62394		9.467148	-0.278570	-2.186502	0.014875	-0.007865	-0.006072	-0.603760	-0.027344	0.583008	-0.019197	-0.781797	0.051883	-0.621074
62395		9.495189	-0.292611	-2.241452	0.007793	-0.004399	-0.010744	-0.611572	-0.025391	0.580078	-0.019173	-0.781830	0.051850	-0.621037
62396		9.508098	-0.341466	-2.246040	0.005552	-0.006365	-0.008887	-0.612793	-0.029297	0.579590	-0.019179	-0.781847	0.051890	-0.621012
62397		9.495114	-0.363120	-2.230859	0.003882	0.000180	-0.005925	-0.603516	-0.028076	0.584717	-0.019223	-0.781804	0.052021	-0.621053
62398		9.463053	-0.338491	-2.283032	0.000822	-0.000623	-0.006531	-0.604004	-0.026855	0.591797	-0.019238	-0.781808	0.052082	-0.621043
62399		9.473366	-0.344094	-2.249795	-0.000943	-0.008171	-0.005643	-0.613525	-0.023438	0.584473	-0.019223	-0.781888	0.052119	-0.620939
62400		9.489479	-0.346789	-2.238738	-0.005562	-0.012441	-0.004569	-0.604248	-0.020996	0.582031	-0.019269	-0.781954	0.052250	-0.620843
62401		9.538967	-0.375208	-2.184397	-0.011236	-0.004006	-0.006681	-0.607910	-0.030273	0.588135	-0.019350	-0.781974	0.052345	-0.620808
62402		9.478926	-0.372512	-2.202553	0.006337	-0.000381	-0.009645	-0.606201	-0.021729	0.585693	-0.019358	-0.781974	0.052361	-0.620806
62403		9.448206	-0.388263	-2.283844	0.012995	-0.007232	-0.010786	-0.609863	-0.028320	0.592285	-0.019230	-0.782031	0.052226	-0.620749
62404		9.476313	-0.346662	-2.294367	0.003578	-0.007126	-0.007617	-0.612305	-0.023926	0.581787	-0.019220	-0.782088	0.052253	-0.620675
62405		9.504775	-0.342252	-2.232321	0.006264	-0.010761	-0.004202	-0.602783	-0.023438	0.590820	-0.019162	-0.782138	0.052313	-0.620610
62406		9.453719	-0.326837	-2.224617	0.006430	-0.010401	-0.007804	-0.611084	-0.025879	0.575684	-0.019066	-0.782237	0.052244	-0.620494
62407		9.504359	-0.341378	-2.287399	0.002949	-0.006121	-0.010932	-0.603271	-0.024902	0.590088	-0.019136	-0.782238	0.052315	-0.620485
62408		9.514135	-0.363466	-2.279867	0.005127	-0.003657	-0.009298	-0.612061	-0.026367	0.584229	-0.019088	-0.782280	0.052265	-0.620437
62409		9.453272	-0.341119	-2.264294	-0.005295	-0.011242	-0.005148	-0.608398	-0.026123	0.582031	-0.019167	-0.782335	0.052424	-0.620352
62410		9.417293	-0.324601	-2.274937	-0.013761	-0.006647	-0.013214	-0.608154	-0.024902	0.586914	-0.019388	-0.782361	0.052559	-0.620301
62411		9.469605	-0.429050	-2.227374	-0.023913	-0.014848	-0.022774	-0.600342	-0.032471	0.591797	-0.019746	-0.782469	0.052641	-0.620146
62412		9.500560	-0.537328	-2.233772	-0.000552	-0.016931	-0.016878	-0.599609	-0.022949	0.590332	-0.019856	-0.782624	0.052624	-0.619948
62413		9.558983	-0.550724	-2.194165	0.017696	-0.008727	-0.005276	-0.613525	-0.026855	0.590332	-0.019617	-0.782714	0.052476	-0.619855
62414		9.513897	-0.385861	-2.188790	0.020956	0.002798	-0.007477	-0.606689	-0.027588	0.583984	-0.019453	-0.782677	0.052387	-0.619915
62415		9.454980	-0.279615	-2.309304	0.031287	0.004797	-0.013537	-0.611572	-0.023926	0.587158	-0.019243	-0.782631	0.052167	-0.619998
62416		9.487614	-0.320072	-2.331980	0.031353	0.006183	-0.019516	-0.604248	-0.026367	0.592285	-0.019054	-0.782576	0.051858	-0.620098
62417		9.461450	-0.342135	-2.305421	0.004211	0.002790	-0.018742	-0.611572	-0.025635	0.588867	-0.019111	-0.782573	0.051743	-0.620110
62418		9.454437	-0.320475	-2.290928	-0.010281	-0.000074	-0.012034	-0.608643	-0.026367	0.590576	-0.019279	-0.782557	0.051843	-0.620117
62419		9.464016	-0.340323	-2.323545	-0.003610	0.001592	-0.016138	-0.604004	-0.028564	0.587158	-0.019405	-0.782544	0.051837	-0.620130
62420		9.468733	-0.328826	-2.283996	0.001731	0.001478	-0.012534	-0.604736	-0.029541	0.579834	-0.019465	-0.782533	0.051840	-0.620142
62421		9.489109	-0.300998	-2.236833	-0.014091	0.007726	-0.009441	-0.599854	-0.024170	0.581543	-0.019688	-0.782446	0.052034	-0.620228
62422		9.476795	-0.284947	-2.250766	-0.016535	0.008307	-0.011964	-0.610352	-0.020996	0.588623	-0.019883	-0.782377	0.052130	-0.620301
62423		9.470153	-0.319268	-2.279459	-0.012955	0.007264	-0.007939	-0.610840	-0.020508	0.583496	-0.019992	-0.782307	0.052218	-0.620378
62424		9.461208	-0.348672	-2.289995	-0.012035	0.005092	-0.006219	-0.603271	-0.028564	0.597900	-0.020085	-0.782240	0.052328	-0.620451
62425		9.456705	-0.317401	-2.268943	-0.021222	-0.005864	-0.001946	-0.596191	-0.030762	0.588135	-0.020241	-0.782307	0.052555	-0.620342
62426		9.530025	-0.294924	-2.278945	-0.025452	-0.012314	-0.006327	-0.602051	-0.029053	0.586426	-0.020489	-0.782417	0.052801	-0.620174
62427		9.533807	-0.299698	-2.175020	-0.020523	-0.001210	-0.009205	-0.601807	-0.020508	0.588135	-0.020723	-0.782424	0.052988	-0.620141
62428		9.520273	-0.334860	-2.133964	-0.016870	0.003371	-0.009514	-0.606201	-0.023193	0.584229	-0.020842	-0.782406	0.053039	-0.620156
62429		9.476301	-0.369952	-2.187972	-0.019014	0.008873	-0.008228	-0.605957	-0.033936	0.585205	-0.021021	-0.782321	0.053179	-0.620245
62430		9.461174	-0.403318	-2.270080	-0.010377	0.002805	-0.007530	-0.607422	-0.028809	0.586670	-0.021194	-0.782284	0.053365	-0.620270
62431		9.486215	-0.388566	-2.219835	0.007457	-0.005043	-0.009794	-0.602295	-0.030273	0.588379	-0.021159	-0.782317	0.053336	-0.620232
62432		9.479305	-0.351455	-2.180876	0.005670	-0.003584	-0.011486	-0.607910	-0.031250	0.586670	-0.021148	-0.782356	0.053292	-0.620187
62433		9.504367	-0.337136	-2.222127	0.007777	0.006048	-0.016184	-0.605225	-0.030029	0.591797	-0.021190	-0.782304	0.053225	-0.620257
62434		9.479188	-0.363628	-2.297426	0.010467	0.000570	-0.016533	-0.605957	-0.026123	0.584229	-0.021172	-0.782317	0.053090	-0.620252
62435		9.468145	-0.351676	-2.281024	0.006787	-0.001660	-0.012095	-0.614258	-0.032715	0.585938	-0.021142	-0.782324	0.053017	-0.620251
62436		9.459424	-0.363937	-2.267475	0.003303	0.000207	-0.009984	-0.601318	-0.031006	0.585205	-0.021208	-0.782294	0.053091	-0.620281
62437		9.471450	-0.335830	-2.233448	-0.010282	-0.006691	-0.011566	-0.599365	-0.033936	0.583984	-0.021364	-0.782347	0.053186	-0.620200
62438		9.508122	-0.348578	-2.235308	-0.004875	-0.001154	-0.015414	-0.600586	-0.032959	0.581055	-0.021522	-0.782361	0.053226	-0.620174
62439		9.494922	-0.349847	-2.276420	0.008227	0.002834	-0.013028	-0.610107	-0.029297	0.590576	-0.021536	-0.782336	0.053188	-0.620208
62440		9.482654	-0.317665	-2.266145	-0.006063	-0.000240	-0.007180	-0.604736	-0.027100	0.586914	-0.021615	-0.782329	0.053288	-0.620205
62441		9.465055	-0.308010	-2.269762	-0.016018	0.005950	-0.012020	-0.602539	-0.029297	0.590332	-0.021806	-0.782280	0.053382	-0.620252
62442		9.501262	-0.317670	-2.259651	-0.004683	0.009048	-0.015455	-0.606201	-0.028809	0.578613	-0.021918	-0.782226	0.053354	-0.620319
62443		9.480947	-0.354359	-2.279255	-0.000770	0.004448	-0.010918	-0.603271	-0.034424	0.578857	-0.021981	-0.782168	0.053382	-0.620387
62444		9.451967	-0.299968	-2.297375	-0.013070	0.005893	-0.008190	-0.612549	-0.035645	0.591797	-0.022184	-0.782099	0.053578	-0.620450
62445		9.481710	-0.295239	-2.283163	-0.008812	0.001548	-0.014347	-0.609131	-0.027588	0.583984	-0.022398	-0.782079	0.053690	-0.620458
62446		9.497569	-0.310846	-2.244720	-0.000933	-0.001997	-0.012723	-0.612061	-0.032959	0.586182	-0.022450	-0.782081	0.053677	-0.620455
62447		9.512398	-0.342427	-2.181560	-0.001726	-0.001378	-0.009315	-0.599854	-0.019775	0.578613	-0.022536	-0.782071	0.053764	-0.620457
62448		9.495706	-0.318087	-2.210236	-0.003164	0.006372	-0.010052	-0.610840	-0.033936	0.580322	-0.022506	-0.782019	0.053683	-0.620531
62449		9.492950	-0.291024	-2.247922	0.007253	0.001282	-0.012893	-0.610107	-0.035156	0.590576	-0.022548	-0.781981	0.053685	-0.620576
62450		9.498322	-0.300672	-2.242917	0.004576	0.004365	-0.010432	-0.607178	-0.040039	0.580078	-0.022591	-0.781945	0.053716	-0.620618
62451		9.476156	-0.315244	-2.218509	-0.007517	0.007529	-0.011040	-0.607666	-0.034424	0.595215	-0.022811	-0.781860	0.053898	-0.620701
62452		9.483951	-0.329978	-2.231549	-0.006399	0.003335	-0.010815	-0.598145	-0.034912	0.579346	-0.022947	-0.781848	0.053986	-0.620704
62453		9.472043	-0.334617	-2.281495	0.006408	0.002432	-0.012230	-0.608154	-0.030029	0.584717	-0.022961	-0.781832	0.053955	-0.620726
62454		9.480448	-0.315832	-2.243726	0.007268	0.003132	-0.009132	-0.611084	-0.025146	0.579834	-0.022919	-0.781799	0.053921	-0.620772
62455		9.517429	-0.311897	-2.259188	-0.002425	0.006237	-0.009968	-0.607666	-0.026367	0.577637	-0.022946	-0.781724	0.053917	-0.620866
62456		9.468709	-0.281357	-2.230863	-0.004511	0.008855	-0.010064	-0.615723	-0.030273	0.598145	-0.023000	-0.781631	0.053932	-0.620979
62457		9.484067	-0.314426	-2.257659	-0.004627	0.006114	-0.007475	-0.605469	-0.025635	0.587646	-0.023069	-0.781587	0.054010	-0.621026
62458		9.487227	-0.318762	-2.233806	-0.012259	0.002847	-0.006373	-0.609863	-0.028076	0.583008	-0.023144	-0.781567	0.054090	-0.621041
62459		9.490241	-0.304922	-2.225394	-0.012272	0.008969	-0.007205	-0.608643	-0.030029	0.586426	-0.023266	-0.781477	0.054207	-0.621139
62460		9.509624	-0.328972	-2.253535	-0.009745	0.013527	-0.009378	-0.605225	-0.028809	0.582031	-0.023391	-0.781366	0.054290	-0.621267
62461		9.468049	-0.333496	-2.264989	-0.007351	0.003602	-0.006930	-0.601562	-0.029297	0.583252	-0.023452	-0.781330	0.054362	-0.621304
62462		9.445182	-0.312651	-2.273188	-0.010131	-0.000274	-0.006653	-0.604248	-0.033691	0.589355	-0.023527	-0.781335	0.054447	-0.621287
62463		9.481797	-0.325345	-2.182968	-0.011987	-0.008165	-0.008422	-0.604980	-0.031982	0.586426	-0.023664	-0.781408	0.054573	-0.621179
62464		9.514126	-0.345884	-2.132024	-0.012539	-0.000222	-0.006427	-0.612549	-0.035645	0.593750	-0.023787	-0.781409	0.054710	-0.621161
62465		9.528019	-0.323295	-2.156209	-0.004824	0.008138	-0.005978	-0.609619	-0.033691	0.586670	-0.023875	-0.781345	0.054836	-0.621227
62466		9.536701	-0.305739	-2.209276	-0.001722	0.008485	-0.008863	-0.603027	-0.026367	0.586426	-0.023939	-0.781273	0.054892	-0.621311
62467		9.488882	-0.313713	-2.200624	-0.005659	0.003184	-0.007610	-0.605469	-0.038574	0.585205	-0.023950	-0.781258	0.054896	-0.621328
62468		9.476477	-0.335060	-2.184917	0.006975	-0.003645	-0.010458	-0.608643	-0.034180	0.585938	-0.023964	-0.781289	0.054906	-0.621288
62469		9.497400	-0.364268	-2.142588	0.011898	-0.001023	-0.010371	-0.605469	-0.037842	0.586670	-0.023901	-0.781296	0.054845	-0.621286
62470		9.504594	-0.308731	-2.177960	0.001102	0.003871	-0.009324	-0.614014	-0.042480	0.586914	-0.023962	-0.781269	0.054901	-0.621313
62471		9.491224	-0.275489	-2.249529	0.021198	0.006070	-0.010495	-0.608643	-0.034912	0.587158	-0.023894	-0.781211	0.054861	-0.621393
62472		9.461361	-0.273598	-2.211685	0.011038	-0.001743	-0.010348	-0.604492	-0.029053	0.582275	-0.023846	-0.781227	0.054814	-0.621379
62473		9.495493	-0.280568	-2.235398	-0.005285	0.001030	-0.013073	-0.614258	-0.025635	0.577148	-0.023927	-0.781218	0.054804	-0.621387
62474		9.498367	-0.301376	-2.237416	-0.002799	0.006047	-0.008633	-0.619141	-0.031006	0.578125	-0.023949	-0.781136	0.054819	-0.621488
62475		9.478524	-0.322301	-2.231820	0.006607	0.004148	-0.009313	-0.609619	-0.038086	0.588379	-0.023937	-0.781062	0.054821	-0.621582
62476		9.468342	-0.331686	-2.249875	0.002435	-0.000501	-0.006834	-0.607910	-0.028809	0.581787	-0.023974	-0.781063	0.054908	-0.621571
62477		9.503859	-0.290228	-2.247132	-0.001565	0.000820	-0.006036	-0.613281	-0.037598	0.583740	-0.023967	-0.781046	0.054943	-0.621590
62478		9.473782	-0.288622	-2.210137	0.000978	-0.002629	-0.004897	-0.605225	-0.033691	0.592285	-0.024008	-0.781044	0.055071	-0.621580
62479		9.492579	-0.313617	-2.241179	-0.002776	-0.000077	-0.007803	-0.601807	-0.035400	0.581055	-0.024058	-0.781062	0.055130	-0.621550
62480		9.518264	-0.354003	-2.235837	0.000819	-0.002955	-0.007537	-0.611328	-0.034424	0.587891	-0.024078	-0.781085	0.055178	-0.621516
62481		9.507285	-0.345087	-2.178993	0.011087	-0.006041	-0.002639	-0.610107	-0.032471	0.578613	-0.023967	-0.781125	0.055210	-0.621467
62482		9.503922	-0.318965	-2.125901	0.007200	0.001778	-0.006270	-0.609131	-0.036133	0.579102	-0.023913	-0.781089	0.055219	-0.621514
62483		9.495745	-0.280826	-2.168250	0.010089	0.002307	-0.011421	-0.609619	-0.036621	0.589600	-0.023900	-0.781055	0.055187	-0.621559
62484		9.534177	-0.351219	-2.172965	0.023575	-0.007552	-0.009320	-0.611328	-0.028809	0.584473	-0.023737	-0.781122	0.055077	-0.621491
62485		9.494034	-0.378866	-2.138903	0.017448	0.002501	-0.009453	-0.609131	-0.031006	0.572510	-0.023583	-0.781097	0.054944	-0.621541
62486		9.535536	-0.351559	-2.181826	0.027545	0.002875	-0.012155	-0.612305	-0.030518	0.585693	-0.023365	-0.781052	0.054725	-0.621624
62487		9.508587	-0.322406	-2.203325	0.019784	0.001099	-0.009939	-0.608398	-0.033936	0.583496	-0.023211	-0.781039	0.054594	-0.621658
62488		9.434160	-0.288340	-2.243338	0.026456	-0.003286	-0.013189	-0.607178	-0.035156	0.577148	-0.023037	-0.781067	0.054405	-0.621646
62489		9.431169	-0.330731	-2.209445	0.025895	0.002332	-0.018455	-0.606445	-0.030029	0.583496	-0.022922	-0.781042	0.054179	-0.621701
62490		9.468808	-0.379788	-2.178979	-0.001959	-0.006833	-0.010365	-0.604736	-0.023926	0.580322	-0.022968	-0.781093	0.054200	-0.621633
62491		9.518550	-0.372482	-2.247623	0.007610	-0.004649	-0.007131	-0.607910	-0.029785	0.581299	-0.022841	-0.781127	0.054112	-0.621603
62492		9.516427	-0.297689	-2.260827	0.024462	-0.001713	-0.007795	-0.608398	-0.027588	0.590332	-0.022614	-0.781135	0.053955	-0.621615
62493		9.484241	-0.258147	-2.247205	0.014548	-0.009730	-0.005360	-0.612061	-0.027344	0.581543	-0.022447	-0.781220	0.053883	-0.621521
62494		9.472975	-0.265481	-2.216488	-0.020385	-0.002909	-0.007220	-0.606934	-0.036133	0.584473	-0.022646	-0.781216	0.054075	-0.621502
62495		9.464606	-0.312198	-2.212695	-0.014143	0.002889	-0.011459	-0.604980	-0.028809	0.585205	-0.022881	-0.781186	0.054242	-0.621517
62496		9.493374	-0.374960	-2.209181	0.003599	0.000436	-0.011304	-0.602051	-0.039307	0.583984	-0.022874	-0.781188	0.054193	-0.621518
62497		9.478648	-0.357614	-2.257217	0.008479	-0.002073	-0.003401	-0.608643	-0.030273	0.585693	-0.022835	-0.781205	0.054277	-0.621491
62498		9.486725	-0.272212	-2.251992	0.001634	-0.003641	-0.001577	-0.608887	-0.038818	0.586182	-0.022789	-0.781225	0.054366	-0.621460
62499		9.474962	-0.262592	-2.237584	0.003293	-0.013382	-0.005429	-0.609619	-0.031250	0.582764	-0.022821	-0.781319	0.054491	-0.621329
62500		9.502165	-0.289571	-2.176737	-0.004952	-0.010084	-0.005733	-0.607178	-0.032227	0.585693	-0.022876	-0.781380	0.054604	-0.621241
62501		9.539070	-0.338738	-2.188852	-0.009541	-0.002677	-0.006717	-0.610596	-0.026123	0.589355	-0.022993	-0.781393	0.054745	-0.621208
62502		9.509549	-0.338889	-2.203022	-0.001384	-0.003099	-0.005037	-0.606934	-0.034668	0.582520	-0.022976	-0.781412	0.054791	-0.621180
62503		9.491528	-0.331071	-2.207893	0.004608	-0.002255	-0.006840	-0.611084	-0.030273	0.580078	-0.022973	-0.781419	0.054841	-0.621168
62504		9.488867	-0.305899	-2.205080	0.003012	0.002765	-0.008118	-0.606934	-0.029053	0.583496	-0.022969	-0.781375	0.054856	-0.621221
62505		9.499444	-0.328290	-2.196436	-0.006931	-0.002892	-0.004673	-0.607666	-0.029541	0.590576	-0.023016	-0.781386	0.054964	-0.621196
62506		9.481953	-0.390359	-2.220565	-0.002498	0.000604	-0.008759	-0.616699	-0.032227	0.584229	-0.023065	-0.781387	0.055007	-0.621190
62507		9.494305	-0.364930	-2.236393	0.001058	0.000108	-0.007483	-0.609131	-0.032471	0.585693	-0.023101	-0.781358	0.055079	-0.621218
62508		9.489185	-0.334111	-2.215463	0.009498	-0.003338	-0.008032	-0.610352	-0.036865	0.583740	-0.023046	-0.781378	0.055066	-0.621196
62509		9.497255	-0.300000	-2.245506	0.004901	-0.001550	-0.007800	-0.613770	-0.029785	0.583984	-0.023072	-0.781374	0.055133	-0.621194
62510		9.467019	-0.314952	-2.234394	-0.009154	-0.002991	-0.008417	-0.603760	-0.026123	0.581299	-0.023188	-0.781375	0.055246	-0.621179
62511		9.505544	-0.332155	-2.204514	-0.003202	-0.009138	-0.006150	-0.610352	-0.032471	0.578125	-0.023173	-0.781440	0.055272	-0.621095
62512		9.498713	-0.383982	-2.170068	-0.005339	-0.004163	-0.005244	-0.605469	-0.028320	0.581299	-0.023236	-0.781443	0.055397	-0.621078
62513		9.511494	-0.343505	-2.212156	0.004476	-0.004948	-0.010486	-0.612305	-0.037354	0.583984	-0.023203	-0.781476	0.055345	-0.621043
62514		9.515138	-0.332341	-2.214896	0.006920	0.000126	-0.012297	-0.612061	-0.029297	0.575195	-0.023253	-0.781458	0.055362	-0.621061
62515		9.488454	-0.303176	-2.195710	0.001144	-0.000899	-0.008225	-0.611328	-0.025879	0.583008	-0.023250	-0.781432	0.055375	-0.621094
62516		9.454741	-0.311214	-2.248639	0.000487	-0.001779	-0.009052	-0.603271	-0.028320	0.580078	-0.023238	-0.781431	0.055359	-0.621097
62517		9.464272	-0.347988	-2.216691	-0.004282	-0.013421	-0.009659	-0.610840	-0.035156	0.581787	-0.023273	-0.781529	0.055378	-0.620971
62518		9.530790	-0.377187	-2.190530	-0.000280	-0.005378	-0.010405	-0.607910	-0.035156	0.577637	-0.023353	-0.781550	0.055446	-0.620935
62519		9.535833	-0.319025	-2.218465	0.008490	-0.004402	-0.007533	-0.614746	-0.024658	0.583984	-0.023316	-0.781562	0.055461	-0.620920
62520		9.513698	-0.284951	-2.211750	0.009843	-0.005011	-0.006883	-0.606689	-0.041260	0.584961	-0.023188	-0.781582	0.055390	-0.620906
62521		9.466139	-0.295866	-2.255295	-0.004325	0.002041	-0.010450	-0.608887	-0.024902	0.586182	-0.023363	-0.781555	0.055543	-0.620919
62522		9.469018	-0.316505	-2.258166	0.004835	-0.003364	-0.014671	-0.612305	-0.029541	0.586914	-0.023340	-0.781582	0.055424	-0.620897
62523		9.482758	-0.379192	-2.237723	0.010144	-0.008517	-0.012599	-0.607910	-0.034180	0.581543	-0.023292	-0.781641	0.055341	-0.620832
62524		9.495801	-0.356647	-2.264356	0.009381	-0.004174	-0.007928	-0.610840	-0.034180	0.588379	-0.023246	-0.781659	0.055340	-0.620811
62525		9.469812	-0.295992	-2.244889	0.008283	0.001371	-0.007899	-0.604004	-0.020508	0.580322	-0.023227	-0.781641	0.055363	-0.620833
62526		9.475024	-0.306220	-2.241277	0.009002	-0.008081	-0.010980	-0.608398	-0.026855	0.576660	-0.023080	-0.781703	0.055186	-0.620775
62527		9.502164	-0.331586	-2.220775	0.005906	-0.006559	-0.010575	-0.607910	-0.026123	0.582764	-0.023023	-0.781734	0.055113	-0.620745
62528		9.496799	-0.317225	-2.225591	0.003000	0.002287	-0.011610	-0.615479	-0.033203	0.589111	-0.023008	-0.781708	0.055048	-0.620784
62529		9.486053	-0.308514	-2.259826	0.011411	-0.002515	-0.009308	-0.610352	-0.032471	0.588623	-0.022969	-0.781713	0.055038	-0.620780
62530		9.487200	-0.309655	-2.269415	0.004419	-0.000708	-0.008846	-0.605469	-0.036865	0.586426	-0.022981	-0.781712	0.055066	-0.620778
62531		9.477646	-0.319301	-2.246444	-0.002141	0.000286	-0.010457	-0.601318	-0.026367	0.578857	-0.023097	-0.781706	0.055160	-0.620773
62532		9.481881	-0.325949	-2.232945	-0.000886	-0.001175	-0.009699	-0.612793	-0.034668	0.584229	-0.023088	-0.781711	0.055124	-0.620770
62533		9.487680	-0.371189	-2.238489	0.001636	-0.000369	-0.006917	-0.606201	-0.032715	0.587158	-0.023130	-0.781691	0.055215	-0.620786
62534		9.489610	-0.339886	-2.247529	-0.000474	-0.001501	-0.008283	-0.609863	-0.026367	0.575439	-0.023178	-0.781700	0.055277	-0.620767
62535		9.488101	-0.299710	-2.228457	-0.007316	0.002518	-0.007669	-0.612305	-0.029297	0.592529	-0.023228	-0.781650	0.055326	-0.620824
62536		9.478656	-0.293760	-2.271360	0.000912	0.003004	-0.009225	-0.607178	-0.035645	0.593750	-0.023258	-0.781624	0.055350	-0.620853
62537		9.482217	-0.332975	-2.258103	-0.005029	-0.002097	-0.009051	-0.601074	-0.030762	0.585938	-0.023387	-0.781646	0.055477	-0.620809
62538		9.480427	-0.342947	-2.224084	-0.009405	-0.000499	-0.006549	-0.601807	-0.037354	0.584717	-0.023480	-0.781653	0.055587	-0.620788
62539		9.519467	-0.326938	-2.233961	-0.002170	-0.001091	-0.007601	-0.606934	-0.027344	0.581055	-0.023563	-0.781661	0.055696	-0.620765
62540		9.487769	-0.321782	-2.228694	0.002341	0.001877	-0.005829	-0.605713	-0.035645	0.583984	-0.023510	-0.781633	0.055692	-0.620803
62541		9.518480	-0.338044	-2.249541	0.006037	0.003149	-0.011009	-0.606934	-0.033691	0.578613	-0.023534	-0.781604	0.055693	-0.620838
62542		9.474977	-0.305547	-2.243290	0.003154	0.000762	-0.009603	-0.603760	-0.027588	0.593750	-0.023552	-0.781581	0.055708	-0.620865
62543		9.468466	-0.306022	-2.263670	-0.001878	0.001476	-0.007928	-0.616455	-0.023682	0.584229	-0.023570	-0.781586	0.055730	-0.620856
62544		9.471469	-0.360426	-2.225400	0.003196	-0.001605	-0.010606	-0.607178	-0.029785	0.587646	-0.023533	-0.781578	0.055666	-0.620873
62545		9.492331	-0.370769	-2.199324	-0.006560	-0.006956	-0.007628	-0.608398	-0.030518	0.586182	-0.023603	-0.781628	0.055750	-0.620800
62546		9.515723	-0.336536	-2.206741	-0.002343	0.002307	-0.008972	-0.603027	-0.027588	0.587158	-0.023656	-0.781603	0.055794	-0.620826
62547		9.517817	-0.305190	-2.214699	0.005169	0.004772	-0.006863	-0.598633	-0.031006	0.584717	-0.023586	-0.781573	0.055757	-0.620869
