// Start Time: Unknown
// Update Rate: 40.0Hz
// Filter Profile: human (46.1)
// Firmware Version: 4.6.0
PacketCounter	SampleTimeFine	Acc_X	Acc_Y	Acc_Z	Gyr_X	Gyr_Y	Gyr_Z	Mag_X	Mag_Y	Mag_Z	Quat_q0	Quat_q1	Quat_q2	Quat_q3
61648		9.780736	-0.631435	-0.567005	0.009078	0.008932	0.001911	-0.641846	0.383301	0.268799	0.335854	-0.655857	-0.314306	-0.598553
61649		9.786716	-0.600448	-0.540514	0.011933	0.010383	0.003675	-0.637695	0.389648	0.262207	0.336020	-0.655744	-0.314321	-0.598576
61650		9.764210	-0.554292	-0.531410	0.016760	0.006747	0.001695	-0.646729	0.382812	0.264893	0.336208	-0.655627	-0.314401	-0.598556
61651		9.782017	-0.539652	-0.534468	0.013853	0.005715	0.002063	-0.643311	0.387939	0.253662	0.336357	-0.655532	-0.314465	-0.598542
61652		9.804047	-0.502976	-0.492269	-0.001043	0.004898	0.001065	-0.637695	0.383789	0.259277	0.336371	-0.655499	-0.314434	-0.598588
61653		9.791785	-0.492146	-0.522668	-0.006054	0.001919	-0.001379	-0.644287	0.387695	0.254883	0.336306	-0.655490	-0.314404	-0.598650
61654		9.792327	-0.505585	-0.524681	-0.013191	-0.002116	0.000498	-0.637695	0.382812	0.260254	0.336171	-0.655540	-0.314333	-0.598708
61655		9.772918	-0.540547	-0.530227	-0.024938	-0.004798	0.001024	-0.637451	0.383789	0.261719	0.335923	-0.655652	-0.314191	-0.598799
61656		9.760530	-0.590714	-0.577602	-0.023408	-0.003142	0.003481	-0.629639	0.395996	0.261230	0.335704	-0.655748	-0.314041	-0.598896
61657		9.801305	-0.636425	-0.592184	-0.019318	-0.003030	0.001897	-0.639160	0.393555	0.248047	0.335504	-0.655821	-0.313939	-0.598981
61658		9.755516	-0.640536	-0.576667	-0.016240	-0.003863	0.000339	-0.634521	0.386719	0.260010	0.335315	-0.655886	-0.313876	-0.599049
61659		9.756024	-0.653790	-0.579501	-0.012710	-0.001870	-0.002030	-0.628662	0.381104	0.247803	0.335146	-0.655921	-0.313842	-0.599122
61660		9.780237	-0.690556	-0.608286	-0.000178	0.000782	0.001405	-0.631348	0.389404	0.256104	0.335131	-0.655904	-0.313858	-0.599142
61661		9.771638	-0.644615	-0.591445	0.003173	0.002471	0.000661	-0.639404	0.389404	0.254883	0.335146	-0.655870	-0.313888	-0.599154
61662		9.767902	-0.609830	-0.592732	0.004485	0.000097	0.000399	-0.631348	0.394531	0.260742	0.335160	-0.655849	-0.313942	-0.599141
61663		9.765216	-0.591958	-0.567369	0.002740	-0.001236	-0.005666	-0.633057	0.395752	0.248047	0.335109	-0.655836	-0.314031	-0.599137
61664		9.797016	-0.575575	-0.563027	-0.004860	-0.002049	-0.009298	-0.635986	0.393555	0.261963	0.334979	-0.655831	-0.314106	-0.599177
61665		9.782084	-0.605818	-0.584541	-0.006890	-0.003941	-0.009253	-0.632324	0.387939	0.264160	0.334796	-0.655860	-0.314173	-0.599211
61666		9.780083	-0.670127	-0.607752	-0.003542	-0.002250	-0.009998	-0.635986	0.384277	0.254883	0.334636	-0.655869	-0.314262	-0.599244
61667		9.762488	-0.682928	-0.603493	-0.006442	-0.001113	-0.010068	-0.633301	0.382324	0.262695	0.334474	-0.655870	-0.314330	-0.599298
61668		9.766838	-0.607775	-0.574118	-0.004732	-0.001329	-0.008790	-0.640625	0.396729	0.258301	0.334328	-0.655900	-0.314382	-0.599320
61669		9.773452	-0.648120	-0.567219	-0.006179	0.000326	-0.009043	-0.632080	0.386230	0.262939	0.334197	-0.655910	-0.314414	-0.599365
61670		9.759129	-0.682403	-0.558945	-0.011106	0.000655	-0.009285	-0.636719	0.392822	0.266357	0.334019	-0.655953	-0.314400	-0.599425
61671		9.763678	-0.687149	-0.605837	-0.002832	0.002019	-0.009788	-0.627930	0.386719	0.263672	0.333917	-0.655962	-0.314427	-0.599457
61672		9.783837	-0.713902	-0.586793	0.006988	0.001989	-0.014533	-0.634521	0.391602	0.265869	0.333880	-0.655915	-0.314561	-0.599459
61673		9.779262	-0.699247	-0.567685	0.015834	0.004732	-0.014902	-0.634277	0.387207	0.264893	0.333928	-0.655824	-0.314737	-0.599440
61674		9.786999	-0.653901	-0.564067	0.023833	0.002494	-0.016007	-0.639648	0.390381	0.255371	0.334025	-0.655705	-0.314996	-0.599380
61675		9.772749	-0.635801	-0.570829	0.029366	0.000963	-0.017345	-0.637451	0.393311	0.262451	0.334192	-0.655527	-0.315311	-0.599316
61676		9.785328	-0.600904	-0.586225	0.029447	-0.002034	-0.021202	-0.630127	0.393066	0.267822	0.334307	-0.655394	-0.315655	-0.599215
61677		9.782322	-0.574562	-0.589991	0.016869	-0.002124	-0.022943	-0.629639	0.379395	0.258301	0.334289	-0.655345	-0.315915	-0.599142
61678		9.776189	-0.577638	-0.581578	0.002798	-0.002325	-0.022351	-0.643311	0.388672	0.254883	0.334131	-0.655284	-0.316125	-0.599187
61679		9.769234	-0.624256	-0.615195	-0.002220	-0.001174	-0.018309	-0.642090	0.392090	0.256836	0.334008	-0.655226	-0.316241	-0.599257
61680		9.768541	-0.643312	-0.595714	-0.009167	-0.000583	-0.018937	-0.640137	0.397949	0.262207	0.333839	-0.655213	-0.316291	-0.599338
61681		9.767996	-0.671463	-0.607331	-0.012420	-0.002027	-0.022695	-0.641113	0.395264	0.260010	0.333625	-0.655260	-0.316323	-0.599390
61682		9.771425	-0.724507	-0.585924	-0.007679	0.002784	-0.021933	-0.636719	0.387695	0.264648	0.333477	-0.655236	-0.316370	-0.599474
61683		9.776678	-0.721122	-0.572123	0.002953	0.005389	-0.018156	-0.629150	0.388428	0.258057	0.333405	-0.655189	-0.316479	-0.599509
61684		9.770576	-0.637040	-0.595986	0.005675	0.003959	-0.016463	-0.637695	0.386719	0.261475	0.333415	-0.655131	-0.316565	-0.599520
61685		9.772483	-0.622652	-0.616682	0.005455	0.003193	-0.019861	-0.636963	0.385010	0.262939	0.333359	-0.655064	-0.316708	-0.599548
61686		9.808518	-0.580841	-0.564939	-0.001763	0.007764	-0.022620	-0.639160	0.396729	0.258301	0.333220	-0.654994	-0.316812	-0.599648
61687		9.771196	-0.561455	-0.577101	0.001400	0.005909	-0.021088	-0.638184	0.385010	0.255127	0.333223	-0.654921	-0.316862	-0.599699
61688		9.752052	-0.587257	-0.609439	0.004653	0.003227	-0.023846	-0.639160	0.388672	0.259766	0.333146	-0.654788	-0.317037	-0.599796
61689		9.767927	-0.572642	-0.620874	-0.005590	0.002557	-0.018702	-0.635498	0.388672	0.262451	0.333026	-0.654768	-0.317085	-0.599858
61690		9.787727	-0.583808	-0.599574	-0.009819	0.004961	-0.018295	-0.636719	0.389404	0.262207	0.332872	-0.654788	-0.317085	-0.599922
61691		9.771678	-0.564923	-0.554035	-0.014387	0.001535	-0.020924	-0.633057	0.385254	0.262207	0.332656	-0.654839	-0.317084	-0.599986
61692		9.783954	-0.613001	-0.564760	-0.004324	0.000826	-0.024229	-0.631836	0.382080	0.261719	0.332465	-0.654841	-0.317203	-0.600027
61693		9.769030	-0.626142	-0.583299	0.002924	0.001286	-0.024720	-0.638428	0.387451	0.263916	0.332310	-0.654800	-0.317389	-0.600059
61694		9.780802	-0.622884	-0.610017	0.002486	-0.000457	-0.024127	-0.636475	0.389160	0.258301	0.332185	-0.654788	-0.317555	-0.600053
61695		9.778932	-0.613378	-0.586324	0.006827	0.001126	-0.024689	-0.640625	0.389893	0.265137	0.332162	-0.654710	-0.317713	-0.600068
61696		9.789761	-0.587035	-0.579914	0.006337	0.001966	-0.022386	-0.638672	0.386475	0.261475	0.332114	-0.654687	-0.317870	-0.600037
61697		9.789855	-0.572409	-0.548779	0.005999	-0.000819	-0.018683	-0.637451	0.386963	0.265137	0.332074	-0.654663	-0.318013	-0.600009
61698		9.756113	-0.584473	-0.589683	0.008524	0.002012	-0.023642	-0.645264	0.390137	0.261719	0.332014	-0.654633	-0.318205	-0.599974
61699		9.756670	-0.588924	-0.620276	0.009065	-0.000537	-0.020479	-0.630127	0.383789	0.261475	0.332019	-0.654569	-0.318371	-0.599952
61700		9.789731	-0.586420	-0.588455	-0.000918	-0.000674	-0.021480	-0.633057	0.384277	0.264893	0.331894	-0.654605	-0.318469	-0.599930
61701		9.795896	-0.605856	-0.608374	-0.002076	0.000912	-0.022640	-0.643066	0.382324	0.261230	0.331737	-0.654653	-0.318576	-0.599908
61702		9.774492	-0.618042	-0.587239	0.001738	0.000711	-0.025493	-0.638916	0.382568	0.257080	0.331580	-0.654568	-0.318775	-0.599982
61703		9.749532	-0.608740	-0.569556	0.009551	0.001488	-0.025633	-0.645996	0.389404	0.262695	0.331536	-0.654429	-0.318989	-0.600043
61704		9.779590	-0.603565	-0.602555	0.010958	0.001347	-0.023453	-0.631104	0.384766	0.266113	0.331553	-0.654343	-0.319181	-0.600026
61705		9.781404	-0.588646	-0.623582	0.011137	0.002526	-0.017895	-0.631592	0.380859	0.260010	0.331566	-0.654390	-0.319315	-0.599896
61706		9.784903	-0.558561	-0.606534	0.006668	0.000212	-0.017856	-0.637207	0.394775	0.258301	0.331531	-0.654387	-0.319435	-0.599856
61707		9.756354	-0.566513	-0.574636	0.001538	0.001489	-0.024110	-0.635742	0.387695	0.254639	0.331592	-0.654377	-0.319441	-0.599828
61708		9.783758	-0.590815	-0.595366	0.008826	0.000484	-0.026544	-0.636963	0.380371	0.268555	0.331633	-0.654272	-0.319572	-0.599852
61709		9.792439	-0.570117	-0.596405	0.014706	0.001578	-0.024185	-0.635742	0.391113	0.265869	0.331547	-0.654262	-0.319873	-0.599749
61710		9.760860	-0.576423	-0.629306	0.014877	0.003845	-0.018845	-0.640625	0.381104	0.261719	0.331678	-0.654288	-0.319988	-0.599587
61711		9.775755	-0.548675	-0.638555	0.016061	0.002941	-0.020075	-0.632324	0.381836	0.266357	0.331693	-0.654179	-0.320232	-0.599567
61712		9.765800	-0.521050	-0.601780	0.007881	0.001746	-0.024097	-0.633545	0.377686	0.263428	0.331601	-0.654222	-0.320428	-0.599467
61713		9.790982	-0.541896	-0.598422	0.009740	0.004031	-0.024901	-0.633545	0.379639	0.269287	0.331491	-0.654173	-0.320664	-0.599454
61714		9.775172	-0.602518	-0.576681	0.009933	0.001084	-0.025881	-0.640137	0.386475	0.259033	0.331347	-0.654226	-0.320925	-0.599336
61715		9.774156	-0.579109	-0.602979	0.015344	0.004786	-0.023810	-0.631836	0.379150	0.262695	0.331440	-0.654098	-0.321089	-0.599337
61716		9.748603	-0.566782	-0.613504	0.015489	0.003338	-0.022854	-0.631836	0.385254	0.263672	0.331427	-0.654061	-0.321309	-0.599267
61717		9.792275	-0.552910	-0.605313	0.005554	0.005780	-0.019233	-0.640137	0.383057	0.263672	0.331446	-0.654109	-0.321347	-0.599184
61718		9.802302	-0.550771	-0.578283	0.000681	0.004545	-0.021410	-0.633789	0.388184	0.270752	0.331359	-0.654098	-0.321444	-0.599192
61719		9.771378	-0.560900	-0.581736	0.002548	0.005747	-0.021992	-0.641846	0.394043	0.263672	0.331318	-0.654235	-0.321494	-0.599039
61720		9.773605	-0.583041	-0.583871	0.005706	0.006095	-0.020894	-0.638672	0.382324	0.263184	0.331420	-0.654242	-0.321481	-0.598981
61721		9.761449	-0.567538	-0.613816	0.005323	0.003934	-0.022452	-0.635010	0.380371	0.263672	0.331365	-0.654211	-0.321618	-0.598972
61722		9.795453	-0.550154	-0.631536	0.002586	0.004252	-0.023949	-0.632812	0.381836	0.250244	0.331259	-0.654209	-0.321748	-0.598962
61723		9.771887	-0.559096	-0.585967	-0.000921	0.004376	-0.021992	-0.644287	0.377197	0.263184	0.331255	-0.654103	-0.321701	-0.599106
61724		9.792971	-0.549361	-0.555202	0.000227	0.003889	-0.021059	-0.637451	0.384277	0.262695	0.331100	-0.654029	-0.321880	-0.599176
61725		9.759186	-0.518810	-0.553618	0.002691	0.003221	-0.020834	-0.643555	0.383789	0.262207	0.331076	-0.654048	-0.321937	-0.599138
61726		9.769058	-0.522197	-0.587195	-0.001737	0.001554	-0.023177	-0.644775	0.380615	0.259277	0.330980	-0.654027	-0.322024	-0.599167
61727		9.775617	-0.541421	-0.606718	-0.008405	0.001322	-0.022325	-0.635010	0.385742	0.263916	0.330813	-0.653978	-0.322078	-0.599284
61728		9.782741	-0.564410	-0.597244	-0.002315	0.001260	-0.023547	-0.641113	0.380615	0.270020	0.330746	-0.654067	-0.322095	-0.599215
61729		9.785016	-0.552713	-0.589299	0.001520	0.003721	-0.021796	-0.646240	0.384766	0.264648	0.330625	-0.654113	-0.322263	-0.599141
61730		9.768130	-0.563001	-0.583766	-0.002341	0.002349	-0.023785	-0.638672	0.385010	0.255615	0.330529	-0.654098	-0.322354	-0.599161
61731		9.763193	-0.545910	-0.565406	0.002327	0.000665	-0.024591	-0.634277	0.373535	0.270996	0.330527	-0.654044	-0.322362	-0.599217
61732		9.772617	-0.544418	-0.628329	0.011772	0.000866	-0.028527	-0.641602	0.380615	0.267578	0.330358	-0.654071	-0.322720	-0.599088
61733		9.780228	-0.543216	-0.638207	0.013240	0.004041	-0.024097	-0.638672	0.385010	0.264648	0.330348	-0.654028	-0.322958	-0.599012
61734		9.783017	-0.535838	-0.600745	0.004196	0.003829	-0.018163	-0.645996	0.385742	0.264404	0.330381	-0.654071	-0.322978	-0.598937
61735		9.794340	-0.524271	-0.595494	0.009219	0.005399	-0.017639	-0.635254	0.384277	0.254639	0.330464	-0.654021	-0.323059	-0.598902
61736		9.773989	-0.519016	-0.564012	0.014120	0.004488	-0.015009	-0.647949	0.381104	0.258789	0.330644	-0.653954	-0.323020	-0.598897
61737		9.779048	-0.523169	-0.609626	0.020740	0.005155	-0.013706	-0.639648	0.383789	0.268311	0.330814	-0.653775	-0.323182	-0.598911
61738		9.757927	-0.480935	-0.596157	0.023252	0.004759	-0.018054	-0.632080	0.391113	0.262939	0.330975	-0.653755	-0.323412	-0.598719
61739		9.783697	-0.479407	-0.612017	0.015167	0.004632	-0.019405	-0.637695	0.383301	0.271484	0.331173	-0.653820	-0.323401	-0.598545
61740		9.799534	-0.492447	-0.573985	0.005047	0.004068	-0.018744	-0.651367	0.378906	0.260254	0.331164	-0.653915	-0.323545	-0.598368
61741		9.782631	-0.504499	-0.568024	0.008013	0.004538	-0.013814	-0.644287	0.375000	0.266602	0.331182	-0.653766	-0.323684	-0.598446
61742		9.783698	-0.545014	-0.608337	0.014897	0.005570	-0.011247	-0.642090	0.379883	0.265381	0.331233	-0.653686	-0.323927	-0.598373
61743		9.755756	-0.508721	-0.615113	0.009109	0.005554	-0.010934	-0.640869	0.384521	0.268799	0.331298	-0.653672	-0.324030	-0.598297
61744		9.794057	-0.518902	-0.599710	0.007549	0.004286	-0.011260	-0.638672	0.385986	0.259766	0.331387	-0.653740	-0.324100	-0.598136
61745		9.783003	-0.547809	-0.582436	0.009626	0.005599	-0.006005	-0.635254	0.392090	0.266602	0.331573	-0.653758	-0.324001	-0.598066
61746		9.780988	-0.519096	-0.577392	0.016721	0.005445	-0.007038	-0.637451	0.381104	0.262207	0.331862	-0.653866	-0.323949	-0.597817
61747		9.761828	-0.506016	-0.567627	0.015317	0.004484	-0.009021	-0.639893	0.378174	0.258789	0.332004	-0.653852	-0.324019	-0.597714
61748		9.775427	-0.500095	-0.586194	0.012235	0.001530	-0.011844	-0.631104	0.386719	0.266357	0.332059	-0.653794	-0.324118	-0.597694
61749		9.802210	-0.513492	-0.604720	0.003595	0.001083	-0.013541	-0.645264	0.378418	0.265869	0.332114	-0.653957	-0.324092	-0.597499
61750		9.793050	-0.534847	-0.581111	-0.001321	0.001306	-0.013775	-0.638184	0.380371	0.255859	0.332030	-0.653958	-0.324227	-0.597472
61751		9.754915	-0.542229	-0.575204	-0.001988	-0.000804	-0.014421	-0.633301	0.381104	0.265869	0.331967	-0.653969	-0.324171	-0.597525
61752		9.759183	-0.559728	-0.571669	0.000779	-0.001513	-0.015101	-0.642822	0.384766	0.250977	0.331918	-0.654096	-0.324221	-0.597386
61753		9.778949	-0.543659	-0.600341	0.008170	-0.001714	-0.017048	-0.636963	0.382812	0.264893	0.331967	-0.654006	-0.324184	-0.597477
61754		9.783471	-0.536547	-0.617103	0.001763	-0.003594	-0.021958	-0.633545	0.378662	0.269043	0.331883	-0.654087	-0.324298	-0.597373
61755		9.781970	-0.535997	-0.624870	-0.018755	0.000806	-0.032202	-0.639893	0.380615	0.265381	0.331527	-0.654215	-0.324396	-0.597378
61756		9.909140	-0.465215	-0.628032	-0.021600	0.012330	-0.051970	-0.636719	0.377441	0.271729	0.331073	-0.654117	-0.324549	-0.597653
61757		9.872976	-0.132640	-0.806954	-0.033327	0.097884	-0.086507	-0.636719	0.389648	0.265869	0.330580	-0.653353	-0.324617	-0.598724
61758		9.893306	-0.408154	-0.702811	-0.108351	0.082442	-0.122451	-0.639160	0.376465	0.265381	0.329281	-0.652918	-0.324251	-0.600111
61759		9.427025	-0.332882	-0.934888	-0.184390	0.029803	-0.157434	-0.645996	0.377930	0.262451	0.326776	-0.652969	-0.323956	-0.601583
61760		9.759461	-0.642568	-0.474771	-0.240652	-0.033180	-0.180255	-0.643555	0.366455	0.260986	0.323426	-0.653580	-0.323597	-0.602921
61761		9.817194	-1.032360	-0.512913	-0.094429	-0.016504	-0.148069	-0.654785	0.370361	0.273682	0.321517	-0.653554	-0.324024	-0.603740
61762		9.787191	-0.927153	-0.515107	0.060983	0.018921	-0.104657	-0.656250	0.357666	0.269775	0.321405	-0.652853	-0.325235	-0.603907
61763		9.729774	-0.502632	-0.494679	0.107952	0.034629	-0.057644	-0.648193	0.362061	0.268066	0.321996	-0.651937	-0.326461	-0.603920
61764		9.719835	-0.352571	-0.511594	0.077810	0.031622	-0.011963	-0.653076	0.357178	0.266846	0.322718	-0.651450	-0.326977	-0.603782
61765		9.861914	-0.529978	-0.386178	0.104059	0.044391	0.015578	-0.640625	0.364502	0.270752	0.323861	-0.650801	-0.327505	-0.603583
61766		9.825063	-0.451991	-0.413050	0.158489	0.027550	0.032313	-0.649414	0.366943	0.259277	0.325562	-0.650304	-0.328274	-0.602786
61767		9.779033	-0.272374	-0.573471	0.177546	-0.004211	0.051246	-0.640137	0.365967	0.259766	0.327440	-0.649902	-0.329093	-0.601754
61768		9.734542	-0.155912	-0.495160	0.151271	-0.013444	0.059678	-0.650391	0.378662	0.260010	0.329096	-0.649776	-0.329686	-0.600662
61769		9.787749	-0.039528	-0.439091	0.131518	-0.005290	0.048998	-0.645508	0.366943	0.253174	0.330642	-0.649599	-0.330150	-0.599749
61770		9.858005	-0.082964	-0.519788	0.129188	-0.001049	0.030817	-0.647705	0.372803	0.261963	0.331923	-0.649239	-0.330789	-0.599078
61771		9.742208	-0.182051	-0.558569	0.107644	-0.003973	0.021040	-0.641846	0.383789	0.261963	0.332976	-0.649019	-0.331440	-0.598372
61772		9.776884	-0.212652	-0.559696	0.075117	-0.009511	0.019191	-0.642334	0.378418	0.257324	0.333817	-0.649069	-0.331748	-0.597678
61773		9.853812	-0.271923	-0.571467	0.050954	-0.005826	0.017156	-0.643311	0.379150	0.258545	0.334403	-0.649111	-0.331907	-0.597217
61774		9.824696	-0.405094	-0.585203	0.041408	0.001302	0.027016	-0.643799	0.386963	0.261475	0.335013	-0.649177	-0.331913	-0.596800
61775		9.778549	-0.485833	-0.535819	0.030323	0.003818	0.034366	-0.648682	0.382568	0.249023	0.335658	-0.649350	-0.331732	-0.596349
61776		9.783643	-0.478717	-0.483920	0.017397	0.003093	0.035263	-0.642578	0.375244	0.257568	0.336153	-0.649438	-0.331398	-0.596160
61777		9.868668	-0.556478	-0.533941	0.031665	0.003454	0.026794	-0.644531	0.383789	0.249756	0.336633	-0.649481	-0.331400	-0.595842
61778		9.779414	-0.622819	-0.511238	0.042062	0.006550	0.022939	-0.643311	0.386475	0.254150	0.337250	-0.649418	-0.331334	-0.595598
61779		9.709996	-0.582845	-0.480327	0.047783	0.006637	0.022549	-0.639404	0.388184	0.259766	0.337928	-0.649375	-0.331343	-0.595255
61780		9.766606	-0.554940	-0.482281	0.048785	0.002125	0.020755	-0.637695	0.380859	0.245117	0.338586	-0.649424	-0.331430	-0.594779
61781		9.810022	-0.534211	-0.554181	0.044781	0.002769	0.015344	-0.644775	0.393311	0.250000	0.339103	-0.649343	-0.331438	-0.594568
61782		9.818081	-0.600559	-0.552540	0.019422	0.005994	0.016586	-0.643311	0.382812	0.249756	0.339541	-0.649386	-0.331223	-0.594392
61783		9.764586	-0.674894	-0.462276	0.014357	0.006962	0.017805	-0.645752	0.389893	0.249023	0.339857	-0.649397	-0.331072	-0.594283
61784		9.765360	-0.615643	-0.464049	0.041622	0.003004	0.011789	-0.650391	0.384277	0.255127	0.340391	-0.649307	-0.331131	-0.594043
61785		9.786723	-0.577586	-0.504543	0.054964	0.002864	0.008459	-0.630859	0.393311	0.243652	0.340959	-0.649113	-0.331494	-0.593727
61786		9.800044	-0.600343	-0.501802	0.039548	0.004316	0.011108	-0.632324	0.385742	0.254150	0.341492	-0.649118	-0.331361	-0.593490
61787		9.725707	-0.576595	-0.493460	0.035218	0.004165	0.013677	-0.637207	0.382568	0.253662	0.341932	-0.649162	-0.331393	-0.593169
61788		9.786508	-0.564481	-0.520646	0.041152	0.003005	0.009677	-0.637939	0.386475	0.249023	0.342358	-0.649110	-0.331581	-0.592875
61789		9.811273	-0.536497	-0.526378	0.035384	0.004021	0.009789	-0.641357	0.395264	0.252441	0.342773	-0.649059	-0.331645	-0.592655
61790		9.779060	-0.541888	-0.528479	0.007391	0.002441	0.010124	-0.633545	0.390625	0.241211	0.343024	-0.649175	-0.331486	-0.592472
61791		9.745756	-0.609854	-0.527454	-0.006250	0.000599	0.007328	-0.635254	0.385742	0.256592	0.343102	-0.649317	-0.331142	-0.592464
61792		9.755636	-0.643218	-0.540591	0.008798	-0.001773	-0.001745	-0.637695	0.396484	0.251953	0.343163	-0.649430	-0.331208	-0.592268
61793		9.798648	-0.632446	-0.533666	0.009922	-0.000509	-0.003483	-0.637695	0.394043	0.248291	0.343321	-0.649521	-0.331156	-0.592104
61794		9.778481	-0.612374	-0.466719	-0.008453	-0.003805	-0.000841	-0.638916	0.389404	0.250000	0.343319	-0.649689	-0.330956	-0.592034
61795		9.789626	-0.658717	-0.482158	-0.012768	-0.003955	0.001750	-0.640137	0.389160	0.250488	0.343262	-0.649862	-0.330778	-0.591977
61796		9.741866	-0.668046	-0.503316	-0.011018	-0.003906	-0.001567	-0.645996	0.393066	0.251953	0.343193	-0.650001	-0.330654	-0.591933
61797		9.768775	-0.684107	-0.522755	-0.015442	-0.004149	-0.001913	-0.642578	0.390381	0.262695	0.343121	-0.650138	-0.330521	-0.591899
61798		9.789211	-0.705834	-0.562404	-0.024774	-0.003772	-0.000268	-0.637939	0.391113	0.259033	0.342949	-0.650395	-0.330399	-0.591785
61799		9.776104	-0.688692	-0.535366	-0.015730	-0.000739	0.001175	-0.629395	0.390625	0.245605	0.342880	-0.650610	-0.330236	-0.591679
61800		9.771836	-0.667405	-0.540378	-0.008782	-0.002012	-0.002618	-0.636963	0.396240	0.240479	0.342833	-0.650773	-0.329970	-0.591675
61801		9.761966	-0.633442	-0.527775	-0.014940	-0.000384	-0.006940	-0.637207	0.396729	0.256348	0.342776	-0.650862	-0.329656	-0.591786
61802		9.761106	-0.672011	-0.545551	-0.019873	-0.003746	-0.004707	-0.632568	0.395020	0.252441	0.342662	-0.651100	-0.329438	-0.591711
61803		9.764190	-0.677291	-0.540724	-0.017888	-0.001589	-0.009444	-0.629639	0.397217	0.250000	0.342524	-0.651296	-0.329207	-0.591704
61804		9.785266	-0.676695	-0.571254	-0.018037	-0.001235	-0.010206	-0.643799	0.397705	0.255127	0.342398	-0.651502	-0.328913	-0.591714
61805		9.779300	-0.682162	-0.563020	-0.013660	-0.003245	-0.012297	-0.630127	0.391357	0.251709	0.342297	-0.651615	-0.328827	-0.591696
61806		9.771136	-0.662734	-0.523037	-0.010646	-0.002918	-0.014162	-0.629150	0.400635	0.251465	0.342149	-0.651761	-0.328697	-0.591693
61807		9.753081	-0.661387	-0.517452	-0.002727	-0.003847	-0.015584	-0.629883	0.395996	0.258057	0.342119	-0.651920	-0.328541	-0.591621
61808		9.749944	-0.647133	-0.553348	-0.000272	-0.003831	-0.017798	-0.633057	0.382812	0.252441	0.342052	-0.652068	-0.328528	-0.591504
61809		9.768019	-0.660175	-0.569575	-0.008951	-0.005114	-0.019928	-0.634277	0.392822	0.259766	0.341810	-0.652133	-0.328579	-0.591543
61810		9.792146	-0.687897	-0.574117	-0.015265	-0.001727	-0.015535	-0.635986	0.386719	0.251221	0.341628	-0.652298	-0.328498	-0.591512
61811		9.806635	-0.664093	-0.556226	-0.009377	0.000690	-0.010532	-0.634521	0.390869	0.250000	0.341513	-0.652349	-0.328409	-0.591572
61812		9.775127	-0.643888	-0.550582	-0.012013	0.002756	-0.011764	-0.637207	0.397461	0.247559	0.341407	-0.652412	-0.328241	-0.591656
61813		9.741520	-0.649653	-0.560996	-0.015571	-0.001661	-0.014633	-0.637451	0.399414	0.259766	0.341291	-0.652505	-0.328031	-0.591738
61814		9.753134	-0.692003	-0.576103	-0.007567	-0.000766	-0.015795	-0.637451	0.393555	0.249756	0.341227	-0.652630	-0.327959	-0.591677
61815		9.782874	-0.657924	-0.570054	-0.000784	0.002111	-0.015968	-0.628418	0.390869	0.252197	0.341202	-0.652619	-0.327903	-0.591734
61816		9.773637	-0.652614	-0.595832	-0.007457	-0.000683	-0.012858	-0.635742	0.396973	0.253662	0.341103	-0.652740	-0.327759	-0.591738
61817		9.785062	-0.620992	-0.583720	-0.011412	-0.001139	-0.017996	-0.637451	0.381348	0.261230	0.340982	-0.652838	-0.327641	-0.591764
61818		9.767121	-0.618467	-0.577400	-0.011599	0.000950	-0.021444	-0.633789	0.395264	0.252197	0.340725	-0.652869	-0.327749	-0.591818
61819		9.779246	-0.639574	-0.583758	-0.013841	-0.001596	-0.017983	-0.631836	0.402344	0.259766	0.340575	-0.652979	-0.327600	-0.591866
61820		9.771743	-0.649875	-0.582601	-0.016268	-0.002055	-0.017964	-0.632324	0.394287	0.262695	0.340437	-0.653190	-0.327407	-0.591820
61821		9.774703	-0.649635	-0.606389	-0.016525	0.000906	-0.017040	-0.634033	0.388672	0.249268	0.340258	-0.653358	-0.327287	-0.591803
61822		9.770921	-0.627619	-0.581508	-0.019317	0.002026	-0.014165	-0.637695	0.393311	0.257812	0.340064	-0.653431	-0.327080	-0.591949
61823		9.763793	-0.641656	-0.550606	-0.022979	0.000212	-0.015364	-0.637939	0.389404	0.263428	0.339851	-0.653567	-0.326909	-0.592016
61824		9.798528	-0.658922	-0.579919	-0.021647	-0.001033	-0.015851	-0.633789	0.391113	0.258301	0.339608	-0.653715	-0.326830	-0.592035
61825		9.786286	-0.669141	-0.591386	-0.012400	0.000580	-0.013348	-0.635986	0.384277	0.260498	0.339481	-0.653830	-0.326704	-0.592050
61826		9.737640	-0.684126	-0.589219	-0.005405	0.002903	-0.019562	-0.638184	0.390137	0.257812	0.339329	-0.653840	-0.326758	-0.592097
61827		9.754791	-0.663622	-0.594080	0.002164	-0.001055	-0.015442	-0.637207	0.385986	0.258789	0.339300	-0.653859	-0.326794	-0.592072
61828		9.779974	-0.631427	-0.572065	0.006366	-0.001600	-0.018543	-0.634766	0.390869	0.260986	0.339249	-0.653847	-0.326922	-0.592044
61829		9.759235	-0.601742	-0.562723	0.011794	-0.000135	-0.022870	-0.636475	0.391602	0.257812	0.339245	-0.653832	-0.327072	-0.591980
61830		9.762667	-0.603214	-0.557088	0.015915	-0.002488	-0.026244	-0.631348	0.392334	0.263184	0.339252	-0.653778	-0.327276	-0.591923
61831		9.795902	-0.625130	-0.593454	0.010404	-0.001783	-0.022424	-0.635010	0.389160	0.263428	0.339235	-0.653826	-0.327394	-0.591815
61832		9.750661	-0.626273	-0.577380	0.008946	-0.001265	-0.022465	-0.634277	0.386963	0.254395	0.339193	-0.653838	-0.327553	-0.591738
61833		9.782508	-0.634286	-0.612338	0.007880	-0.002754	-0.027565	-0.633057	0.386719	0.257324	0.339093	-0.653795	-0.327701	-0.591761
61834		9.784703	-0.644980	-0.585196	0.006553	-0.002812	-0.022208	-0.640869	0.394043	0.262207	0.339016	-0.653804	-0.327805	-0.591737
61835		9.759341	-0.637337	-0.568536	0.005881	-0.000524	-0.020869	-0.636475	0.397949	0.255127	0.339007	-0.653803	-0.327914	-0.591682
61836		9.768363	-0.628036	-0.601144	0.013552	-0.002426	-0.021123	-0.638184	0.386963	0.258545	0.339082	-0.653792	-0.327983	-0.591613
61837		9.764316	-0.625210	-0.585151	0.005872	-0.000523	-0.020882	-0.635742	0.388184	0.257568	0.339026	-0.653765	-0.328102	-0.591609
61838		9.768980	-0.618014	-0.601501	-0.006607	-0.000649	-0.020339	-0.649658	0.389893	0.253662	0.338879	-0.653811	-0.328090	-0.591649
61839		9.769393	-0.656125	-0.589760	-0.003184	-0.000275	-0.020177	-0.635986	0.384277	0.256348	0.338798	-0.653734	-0.328161	-0.591742
61840		9.775737	-0.642363	-0.598515	0.007487	0.002169	-0.022536	-0.630615	0.388428	0.256104	0.338738	-0.653671	-0.328274	-0.591783
61841		9.768665	-0.631559	-0.587564	0.007397	0.001011	-0.025255	-0.632324	0.385254	0.261719	0.338677	-0.653656	-0.328346	-0.591794
61842		9.773720	-0.646092	-0.583194	0.001614	-0.001352	-0.027355	-0.638916	0.386719	0.259766	0.338514	-0.653683	-0.328465	-0.591792
61843		9.775655	-0.653519	-0.584518	0.013831	0.001099	-0.024528	-0.631592	0.389648	0.261719	0.338507	-0.653602	-0.328663	-0.591776
61844		9.778876	-0.632101	-0.598802	0.012232	0.001315	-0.022882	-0.629395	0.391846	0.261475	0.338508	-0.653603	-0.328773	-0.591713
61845		9.753212	-0.601369	-0.601953	0.008508	0.000997	-0.022132	-0.631836	0.385986	0.259766	0.338496	-0.653646	-0.328819	-0.591646
61846		9.770597	-0.602121	-0.586328	0.007437	-0.000497	-0.027248	-0.629883	0.383301	0.257812	0.338396	-0.653639	-0.328949	-0.591639
61847		9.760298	-0.603613	-0.589934	0.008324	0.002009	-0.025365	-0.633545	0.391357	0.263428	0.338310	-0.653613	-0.329050	-0.591661
61848		9.769386	-0.593243	-0.621808	0.006908	0.001436	-0.025154	-0.632568	0.395264	0.262939	0.338262	-0.653630	-0.329141	-0.591618
61849		9.784777	-0.617576	-0.650468	0.005782	0.004135	-0.023654	-0.634033	0.383301	0.261475	0.338254	-0.653656	-0.329164	-0.591582
61850		9.755149	-0.591977	-0.607653	0.001029	0.004338	-0.020888	-0.632568	0.395752	0.262451	0.338153	-0.653653	-0.329210	-0.591617
61851		9.758702	-0.574087	-0.592052	-0.000767	0.005989	-0.020252	-0.633545	0.380859	0.263184	0.338127	-0.653708	-0.329139	-0.591611
61852		9.777292	-0.586191	-0.605873	-0.000700	0.004474	-0.022211	-0.633301	0.386475	0.258545	0.337986	-0.653709	-0.329200	-0.591656
61853		9.769763	-0.572572	-0.623528	-0.006299	0.004634	-0.023534	-0.643311	0.384766	0.267090	0.337834	-0.653726	-0.329165	-0.591744
61854		9.791992	-0.594084	-0.602705	-0.014049	0.004684	-0.023554	-0.631836	0.382568	0.261475	0.337611	-0.653747	-0.329193	-0.591832
61855		9.780617	-0.625885	-0.592071	-0.011844	0.006386	-0.019941	-0.639893	0.382568	0.260986	0.337417	-0.653803	-0.329099	-0.591933
61856		9.777854	-0.613464	-0.596320	-0.005424	0.007149	-0.021659	-0.642578	0.383301	0.259766	0.337283	-0.653763	-0.329117	-0.592044
61857		9.764377	-0.588727	-0.595642	-0.002453	0.007953	-0.021337	-0.634766	0.390137	0.261475	0.337191	-0.653687	-0.329155	-0.592159
61858		9.766439	-0.596980	-0.595403	-0.005094	0.006011	-0.022348	-0.638184	0.384766	0.249512	0.337090	-0.653717	-0.329097	-0.592216
61859		9.760754	-0.559740	-0.568180	-0.003522	0.002909	-0.024026	-0.639893	0.387451	0.251953	0.336972	-0.653656	-0.329083	-0.592358
61860		9.802408	-0.568809	-0.575600	0.000153	0.007232	-0.025033	-0.637939	0.386230	0.257324	0.336913	-0.653554	-0.329093	-0.592498
61861		9.793743	-0.564533	-0.570625	0.002747	0.006710	-0.021835	-0.645020	0.379883	0.263428	0.336876	-0.653496	-0.329113	-0.592573
61862		9.747101	-0.573105	-0.560240	0.001142	0.004016	-0.020189	-0.636230	0.382812	0.256348	0.336781	-0.653440	-0.329222	-0.592628
61863		9.785261	-0.593207	-0.611391	0.007478	0.003406	-0.019956	-0.635986	0.379395	0.266846	0.336759	-0.653393	-0.329273	-0.592663
61864		9.765730	-0.578148	-0.602198	0.009634	0.006195	-0.016583	-0.635742	0.391357	0.261963	0.336741	-0.653379	-0.329349	-0.592647
61865		9.792037	-0.558880	-0.579992	-0.000906	0.004629	-0.018382	-0.626465	0.386963	0.259521	0.336713	-0.653423	-0.329291	-0.592647
61866		9.779440	-0.581214	-0.539098	0.000758	0.002687	-0.017330	-0.638916	0.386963	0.260010	0.336659	-0.653512	-0.329195	-0.592633
61867		9.753775	-0.592348	-0.558873	0.015563	0.004924	-0.015943	-0.640381	0.387451	0.258789	0.336764	-0.653450	-0.329273	-0.592598
61868		9.765478	-0.568070	-0.604541	0.013515	0.005764	-0.018806	-0.638428	0.383057	0.260254	0.336841	-0.653366	-0.329360	-0.592598
61869		9.780754	-0.553843	-0.615608	-0.001287	0.003295	-0.015518	-0.634521	0.386475	0.264893	0.336776	-0.653384	-0.329334	-0.592630
61870		9.783928	-0.609460	-0.574946	-0.006939	0.004516	-0.017104	-0.635498	0.385742	0.259521	0.336664	-0.653469	-0.329244	-0.592650
61871		9.801317	-0.611706	-0.558123	0.000408	0.006727	-0.016667	-0.642822	0.381592	0.261475	0.336633	-0.653472	-0.329187	-0.592696
61872		9.749604	-0.617926	-0.589560	0.009608	0.006214	-0.016616	-0.634521	0.381836	0.259033	0.336658	-0.653393	-0.329275	-0.592721
61873		9.766654	-0.617062	-0.601800	0.016040	0.003677	-0.020559	-0.630127	0.386230	0.260498	0.336687	-0.653331	-0.329386	-0.592710
61874		9.777354	-0.584394	-0.588000	0.016294	0.005037	-0.019317	-0.635254	0.380371	0.258301	0.336751	-0.653311	-0.329437	-0.592668
61875		9.787412	-0.601891	-0.568864	0.009457	0.007868	-0.014971	-0.639404	0.392090	0.255371	0.336779	-0.653257	-0.329446	-0.592706
61876		9.768053	-0.608108	-0.567669	0.011367	0.006364	-0.012756	-0.629639	0.371826	0.266602	0.336923	-0.653209	-0.329422	-0.592691
61877		9.771890	-0.541959	-0.556782	0.018294	0.003906	-0.018964	-0.642822	0.387939	0.264404	0.336886	-0.653187	-0.329566	-0.592656
61878		9.766034	-0.542829	-0.575721	0.026930	0.003283	-0.023907	-0.634766	0.384277	0.251953	0.337013	-0.653066	-0.329824	-0.592573
61879		9.768997	-0.521512	-0.589457	0.018227	0.003263	-0.023888	-0.639648	0.383545	0.263428	0.337069	-0.652956	-0.329953	-0.592591
61880		9.780893	-0.551168	-0.572299	0.007025	0.004288	-0.021947	-0.641113	0.384277	0.258789	0.337020	-0.652924	-0.330040	-0.592605
61881		9.785469	-0.596819	-0.553278	0.002017	0.003880	-0.015813	-0.632568	0.382080	0.262939	0.336997	-0.652911	-0.330036	-0.592635
61882		9.761387	-0.584729	-0.528482	0.008509	0.001984	-0.014819	-0.643066	0.392090	0.261719	0.336982	-0.652958	-0.330038	-0.592591
61883		9.788262	-0.552914	-0.558097	0.019562	0.002427	-0.022060	-0.645752	0.390381	0.260254	0.337092	-0.652882	-0.330201	-0.592521
61884		9.775908	-0.539116	-0.589127	0.022470	0.001054	-0.024326	-0.639893	0.375732	0.264160	0.337200	-0.652766	-0.330432	-0.592458
61885		9.779879	-0.560941	-0.591229	0.007510	0.001830	-0.021887	-0.645020	0.382080	0.262695	0.337097	-0.652734	-0.330565	-0.592479
61886		9.756175	-0.567993	-0.575385	-0.005372	0.000765	-0.016474	-0.636719	0.386475	0.261230	0.336978	-0.652765	-0.330563	-0.592513
61887		9.762633	-0.575326	-0.592649	0.001733	0.001573	-0.017139	-0.634766	0.386719	0.260742	0.336931	-0.652814	-0.330535	-0.592502
61888		9.776344	-0.549559	-0.573911	0.005055	0.002374	-0.022032	-0.641113	0.380371	0.258057	0.336877	-0.652832	-0.330551	-0.592503
61889		9.775222	-0.550731	-0.580809	0.005514	-0.000937	-0.022189	-0.637695	0.393799	0.254883	0.336793	-0.652803	-0.330649	-0.592528
61890		9.768419	-0.577116	-0.616416	0.002749	0.001422	-0.028424	-0.641602	0.382324	0.260742	0.336734	-0.652785	-0.330680	-0.592565
61891		9.793125	-0.561390	-0.602736	-0.000760	-0.001290	-0.026755	-0.640625	0.384521	0.260742	0.336571	-0.652783	-0.330768	-0.592610
61892		9.796929	-0.615193	-0.562546	-0.006849	0.002779	-0.018815	-0.642822	0.388428	0.264160	0.336447	-0.652823	-0.330711	-0.592669
61893		9.763729	-0.604453	-0.534629	-0.003279	0.003641	-0.013273	-0.645508	0.385010	0.263672	0.336417	-0.652877	-0.330636	-0.592668
61894		9.753758	-0.576495	-0.580540	0.015859	0.001440	-0.018821	-0.640869	0.392090	0.270020	0.336480	-0.652816	-0.330787	-0.592615
61895		9.780490	-0.544153	-0.610300	0.016192	0.001844	-0.021818	-0.639160	0.389404	0.259277	0.336547	-0.652812	-0.330924	-0.592504
61896		9.786447	-0.513256	-0.580855	0.007514	0.004054	-0.019358	-0.640869	0.385986	0.263184	0.336568	-0.652796	-0.330931	-0.592506
61897		9.778129	-0.530561	-0.585520	-0.004970	0.000393	-0.016784	-0.638916	0.383545	0.258057	0.336470	-0.652867	-0.330880	-0.592513
61898		9.752011	-0.553482	-0.555006	-0.003531	0.001064	-0.021410	-0.641357	0.385742	0.265869	0.336340	-0.652892	-0.330852	-0.592575
61899		9.785299	-0.534979	-0.573660	0.005456	-0.000469	-0.020052	-0.640137	0.387207	0.266846	0.336296	-0.652919	-0.330918	-0.592533
61900		9.788875	-0.537487	-0.567706	-0.001791	0.001305	-0.017693	-0.641602	0.382324	0.262451	0.336224	-0.652987	-0.330894	-0.592512
61901		9.795076	-0.591459	-0.609336	-0.012521	-0.001011	-0.015948	-0.641846	0.387207	0.260254	0.336048	-0.653085	-0.330797	-0.592558
61902		9.798648	-0.594325	-0.603635	-0.006571	0.001156	-0.017435	-0.646240	0.385986	0.261719	0.335948	-0.653140	-0.330716	-0.592599
61903		9.739000	-0.561397	-0.551096	0.001284	-0.000409	-0.019179	-0.641846	0.383789	0.261475	0.335894	-0.653143	-0.330752	-0.592607
61904		9.776242	-0.537975	-0.615372	0.002766	-0.001343	-0.021343	-0.644531	0.382568	0.266113	0.335811	-0.653156	-0.330799	-0.592613
61905		9.784700	-0.590017	-0.591556	0.001811	0.000520	-0.021209	-0.644531	0.385986	0.257324	0.335728	-0.653158	-0.330871	-0.592618
61906		9.800245	-0.545642	-0.616968	0.000311	0.002829	-0.016771	-0.644287	0.382080	0.267090	0.335696	-0.653147	-0.330830	-0.592671
61907		9.778003	-0.547222	-0.593575	0.003570	0.003031	-0.015042	-0.642090	0.377197	0.256104	0.335681	-0.653152	-0.330856	-0.592659
61908		9.752823	-0.512199	-0.589768	0.004410	0.001007	-0.018004	-0.636719	0.377686	0.263916	0.335611	-0.653121	-0.330873	-0.592724
61909		9.777572	-0.515558	-0.613422	0.007442	0.000898	-0.021947	-0.642334	0.375000	0.264404	0.335526	-0.653121	-0.330941	-0.592733
61910		9.787306	-0.511197	-0.587216	0.004180	0.000687	-0.023665	-0.636719	0.385254	0.254150	0.335398	-0.653092	-0.331045	-0.592779
61911		9.780181	-0.518130	-0.614127	0.000652	0.001830	-0.022007	-0.632324	0.383057	0.260254	0.335313	-0.653098	-0.330995	-0.592849
61912		9.777739	-0.558708	-0.585399	-0.006664	0.000734	-0.015517	-0.641846	0.387207	0.255371	0.335186	-0.653212	-0.330844	-0.592880
61913		9.773267	-0.553935	-0.598321	-0.002447	0.000173	-0.018437	-0.642090	0.390869	0.260010	0.335117	-0.653237	-0.330778	-0.592928
61914		9.758128	-0.539234	-0.577317	0.008736	0.001687	-0.022584	-0.643799	0.387939	0.262451	0.335132	-0.653212	-0.330827	-0.592920
61915		9.792705	-0.513299	-0.588587	0.009165	-0.000022	-0.025187	-0.635010	0.380127	0.260010	0.335108	-0.653180	-0.330935	-0.592908
61916		9.771893	-0.553585	-0.582717	-0.005679	0.000822	-0.019954	-0.638184	0.377441	0.263916	0.334947	-0.653248	-0.330850	-0.592972
61917		9.780610	-0.573654	-0.601280	-0.002750	0.001726	-0.019753	-0.633057	0.377930	0.257324	0.334806	-0.653286	-0.330823	-0.593025
61918		9.780215	-0.548830	-0.592195	0.005151	0.003327	-0.018844	-0.639893	0.380127	0.262695	0.334741	-0.653289	-0.330782	-0.593081
61919		9.771426	-0.546174	-0.588420	0.004563	0.000635	-0.017189	-0.640625	0.390137	0.261963	0.334693	-0.653309	-0.330787	-0.593083
61920		9.778354	-0.523429	-0.619147	0.003538	0.001825	-0.021953	-0.636230	0.382080	0.261963	0.334660	-0.653324	-0.330784	-0.593087
61921		9.763237	-0.508041	-0.597517	0.003791	0.005201	-0.025121	-0.634277	0.382812	0.262451	0.334570	-0.653303	-0.330795	-0.593155
61922		9.787163	-0.519731	-0.598643	0.003259	0.000912	-0.021020	-0.642334	0.387695	0.266602	0.334488	-0.653349	-0.330773	-0.593163
61923		9.779729	-0.509815	-0.587575	0.001334	0.004633	-0.020761	-0.635010	0.381348	0.270264	0.334443	-0.653360	-0.330760	-0.593183
61924		9.754736	-0.491719	-0.621210	0.003980	0.001285	-0.017579	-0.646973	0.380615	0.267334	0.334382	-0.653433	-0.330748	-0.593144
61925		9.788046	-0.505267	-0.596587	-0.001184	0.003394	-0.021297	-0.637939	0.374268	0.272949	0.334284	-0.653419	-0.330783	-0.593195
61926		9.779648	-0.504315	-0.563803	-0.003346	0.000079	-0.022568	-0.641602	0.387939	0.271729	0.334095	-0.653484	-0.330814	-0.593213
61927		9.791438	-0.557527	-0.591859	0.004443	0.003801	-0.022035	-0.637939	0.381104	0.267578	0.334060	-0.653505	-0.330843	-0.593193
61928		9.775885	-0.540585	-0.599165	0.011932	0.004660	-0.016271	-0.642090	0.386230	0.267090	0.334097	-0.653499	-0.330867	-0.593165
61929		9.773232	-0.502897	-0.588183	0.006381	0.004609	-0.017389	-0.641357	0.382568	0.266602	0.334111	-0.653503	-0.330860	-0.593157
61930		9.745039	-0.510624	-0.584602	0.005249	0.003461	-0.015962	-0.635498	0.385498	0.265381	0.334104	-0.653518	-0.330847	-0.593152
61931		9.777687	-0.519362	-0.617694	0.011595	0.005339	-0.017778	-0.640869	0.377930	0.262939	0.334142	-0.653522	-0.330833	-0.593134
61932		9.797791	-0.478581	-0.600402	0.004612	0.002358	-0.016749	-0.643555	0.382080	0.260254	0.334099	-0.653523	-0.330827	-0.593161
61933		9.778238	-0.511072	-0.615876	-0.000470	0.003742	-0.017836	-0.644775	0.382812	0.266602	0.334034	-0.653520	-0.330772	-0.593231
61934		9.771105	-0.504676	-0.575160	0.007257	0.005716	-0.017681	-0.638916	0.382080	0.262451	0.334048	-0.653486	-0.330795	-0.593248
61935		9.786939	-0.510608	-0.594518	0.004366	0.004600	-0.013190	-0.641113	0.374512	0.270508	0.334050	-0.653509	-0.330714	-0.593267
61936		9.757493	-0.525617	-0.597764	0.004058	0.006162	-0.014517	-0.637939	0.378906	0.259277	0.334024	-0.653503	-0.330716	-0.593287
61937		9.781493	-0.510003	-0.611828	0.008117	0.004877	-0.013677	-0.633789	0.386963	0.266357	0.334039	-0.653493	-0.330657	-0.593322
61938		9.795523	-0.505023	-0.600656	0.003942	0.005984	-0.017328	-0.634766	0.380371	0.266602	0.334018	-0.653545	-0.330563	-0.593329
61939		9.764271	-0.537991	-0.559909	0.005437	0.003976	-0.014978	-0.640381	0.379639	0.270752	0.333995	-0.653590	-0.330503	-0.593325
61940		9.783548	-0.551548	-0.573450	0.014878	0.005369	-0.011330	-0.643555	0.374023	0.264160	0.334094	-0.653579	-0.330533	-0.593265
61941		9.763152	-0.506737	-0.607185	0.015097	0.004509	-0.012622	-0.639648	0.377930	0.267334	0.334169	-0.653514	-0.330597	-0.593259
61942		9.767745	-0.501459	-0.622249	0.012833	0.003288	-0.014273	-0.637451	0.377441	0.266113	0.334211	-0.653504	-0.330631	-0.593227
61943		9.791114	-0.497513	-0.585418	0.010040	0.004485	-0.015957	-0.638672	0.381348	0.262207	0.334214	-0.653498	-0.330636	-0.593230
61944		9.774530	-0.520569	-0.556889	0.011368	0.005098	-0.011930	-0.642578	0.387695	0.260742	0.334278	-0.653492	-0.330591	-0.593226
61945		9.765060	-0.514364	-0.610677	0.020032	0.004342	-0.012073	-0.640625	0.381836	0.269531	0.334438	-0.653449	-0.330604	-0.593174
61946		9.778057	-0.490165	-0.591122	0.011806	0.005652	-0.012078	-0.634033	0.383789	0.263428	0.334511	-0.653448	-0.330601	-0.593137
61947		9.782939	-0.488131	-0.576870	0.001909	0.004022	-0.008841	-0.640381	0.392822	0.264160	0.334509	-0.653539	-0.330429	-0.593133
61948		9.788549	-0.532852	-0.586628	0.009711	0.004088	-0.012968	-0.642090	0.373779	0.258301	0.334581	-0.653577	-0.330347	-0.593096
61949		9.771906	-0.526808	-0.571952	0.012607	0.004128	-0.012948	-0.638672	0.382080	0.263184	0.334629	-0.653511	-0.330373	-0.593127
61950		9.764994	-0.536758	-0.597949	0.011944	0.004425	-0.011495	-0.639648	0.380859	0.254639	0.334697	-0.653513	-0.330335	-0.593108
61951		9.773316	-0.541913	-0.577988	0.009303	0.003343	-0.008127	-0.635254	0.381348	0.261963	0.334765	-0.653513	-0.330238	-0.593124
61952		9.788146	-0.529380	-0.589085	0.010453	0.005361	-0.009351	-0.644043	0.384766	0.260742	0.334829	-0.653535	-0.330147	-0.593114
61953		9.779288	-0.528899	-0.584678	0.009796	0.003378	-0.010330	-0.643555	0.380371	0.254395	0.334905	-0.653530	-0.330103	-0.593101
61954		9.753544	-0.525210	-0.566933	0.009213	0.004035	-0.010742	-0.643311	0.382568	0.259521	0.334966	-0.653489	-0.330057	-0.593139
61955		9.777460	-0.510139	-0.581184	0.011605	0.005092	-0.012998	-0.645020	0.385254	0.266357	0.335036	-0.653444	-0.330046	-0.593153
61956		9.798027	-0.517285	-0.587657	0.000938	0.003580	-0.011141	-0.640625	0.387695	0.262939	0.335035	-0.653484	-0.329966	-0.593155
61957		9.759582	-0.535048	-0.588330	-0.003083	0.002397	-0.009745	-0.641846	0.382080	0.261719	0.335003	-0.653576	-0.329800	-0.593163
61958		9.775736	-0.544546	-0.579212	0.001743	0.002060	-0.012015	-0.640625	0.389893	0.254150	0.334981	-0.653612	-0.329721	-0.593181
61959		9.780604	-0.542004	-0.565608	0.008388	0.002388	-0.012471	-0.641846	0.376953	0.260254	0.335031	-0.653625	-0.329626	-0.593191
61960		9.783982	-0.543357	-0.588391	0.001965	0.001194	-0.013302	-0.645264	0.384277	0.266113	0.334985	-0.653639	-0.329584	-0.593225
61961		9.786601	-0.583268	-0.575286	0.003808	0.002740	-0.011301	-0.637207	0.380371	0.257812	0.335000	-0.653665	-0.329534	-0.593215
61962		9.738829	-0.544137	-0.600453	0.017633	0.000985	-0.012174	-0.638184	0.385742	0.256836	0.335088	-0.653647	-0.329548	-0.593178
61963		9.769475	-0.512912	-0.617852	0.006798	-0.001434	-0.017988	-0.641602	0.391602	0.266113	0.335052	-0.653678	-0.329520	-0.593180
61964		9.822226	-0.515082	-0.592940	-0.017277	0.001446	-0.024375	-0.639160	0.389160	0.262451	0.334800	-0.653791	-0.329371	-0.593280
61965		9.740863	-0.464928	-0.590583	-0.018806	0.009726	-0.037523	-0.645020	0.374023	0.263672	0.334461	-0.653790	-0.329267	-0.593530
61966		9.714994	-0.500476	-0.660113	0.005067	0.015216	-0.058339	-0.643066	0.380859	0.260742	0.334167	-0.653486	-0.329594	-0.593849
61967		9.767900	-0.636852	-0.658686	-0.012482	0.003057	-0.076135	-0.644043	0.369873	0.267822	0.333558	-0.653303	-0.329928	-0.594207
61968		9.807245	-0.639293	-0.592640	-0.033262	-0.003536	-0.067879	-0.638672	0.374023	0.263428	0.332786	-0.653275	-0.330132	-0.594557
61969		9.721529	-0.452729	-0.469810	-0.053187	0.000634	-0.056754	-0.643066	0.375977	0.267090	0.331952	-0.653379	-0.330006	-0.594979
61970		9.796001	-0.389210	-0.440886	-0.039919	0.025297	-0.084107	-0.633301	0.377686	0.264160	0.331138	-0.653129	-0.330115	-0.595646
61971		9.606105	-0.140211	-0.543693	-0.023331	0.026091	-0.132167	-0.643311	0.374756	0.269531	0.330089	-0.652661	-0.330654	-0.596442
61972		9.473251	0.288515	-1.014522	-0.032548	-0.031444	-0.221615	-0.640381	0.368652	0.274170	0.328073	-0.652256	-0.332157	-0.597162
61973		9.446210	0.636110	-0.946377	0.007938	-0.080264	-0.368376	-0.648926	0.361328	0.269775	0.325064	-0.651457	-0.335352	-0.597894
61974		9.549622	1.204932	-1.473372	0.234386	-0.104326	-0.532417	-0.649902	0.356934	0.266113	0.322579	-0.649151	-0.341697	-0.598155
61975		8.940800	1.947542	-1.289781	0.310991	-0.104644	-0.708093	-0.665283	0.348389	0.267334	0.319379	-0.645755	-0.349990	-0.598753
61976		8.576435	2.294053	-1.160367	-0.024267	-0.122739	-0.825554	-0.669922	0.333496	0.262207	0.312511	-0.643211	-0.356829	-0.601074
61977		8.462459	3.231695	-0.290524	-0.533148	-0.271461	-0.806219	-0.666016	0.320801	0.276611	0.300992	-0.643754	-0.360208	-0.604346
61978		10.062386	1.230009	-0.526307	-0.919808	-0.147276	-0.703587	-0.675049	0.309082	0.289062	0.287628	-0.645230	-0.359272	-0.609813
61979		9.186393	1.519040	-0.546331	-0.532481	-0.171910	-0.716875	-0.681396	0.285400	0.274658	0.277154	-0.645341	-0.361427	-0.613263
61980		7.495674	2.663906	-0.147659	-0.374315	-0.091062	-0.990459	-0.687988	0.260742	0.283691	0.266161	-0.642858	-0.366619	-0.617643
61981		7.316164	1.514119	-0.112544	-0.685402	-0.040382	-1.220684	-0.697754	0.236328	0.295898	0.251047	-0.639798	-0.371048	-0.624465
61982		8.311438	0.627740	-0.298345	-0.545124	-0.054142	-1.157541	-0.703857	0.212646	0.296387	0.237422	-0.636535	-0.376033	-0.630121
61983		7.892547	2.897501	-1.011781	-0.399300	-0.072190	-1.013682	-0.713379	0.194092	0.295166	0.225946	-0.633518	-0.380954	-0.634411
61984		7.778908	2.725971	0.281941	-0.454904	-0.114546	-1.237250	-0.699707	0.168457	0.304688	0.212010	-0.629769	-0.387198	-0.639156
61985		10.566780	-0.705725	-2.098745	-0.090976	0.152616	-1.263036	-0.717285	0.139648	0.300781	0.201943	-0.622713	-0.395760	-0.644066
61986		12.013285	0.614045	-3.526519	0.602970	-0.005635	-0.721400	-0.713135	0.134521	0.288330	0.200795	-0.617681	-0.406004	-0.642894
61987		13.457148	3.675298	-0.588351	0.236193	-0.255317	-0.465553	-0.714844	0.130859	0.297852	0.197576	-0.616839	-0.411810	-0.641004
61988		19.390620	-0.394492	-1.952882	-0.276277	-0.084813	-0.164541	-0.716797	0.127930	0.289795	0.193714	-0.617441	-0.410788	-0.642258
61989		24.529570	-1.190845	-0.901073	0.170453	-0.004209	0.817673	-0.719727	0.151611	0.293213	0.201581	-0.621311	-0.405405	-0.639518
61990		23.762791	2.125620	-0.754852	0.140803	0.126647	1.204500	-0.713623	0.164551	0.283447	0.212990	-0.626083	-0.396360	-0.636831
61991		21.430180	3.544954	-1.626484	0.532936	0.360828	1.077173	-0.717529	0.187744	0.283936	0.227495	-0.627125	-0.390641	-0.634319
61992		15.644078	2.320004	-1.089832	0.703581	0.548540	0.871054	-0.717041	0.206299	0.266357	0.242583	-0.625027	-0.387369	-0.632803
61993		7.012288	-0.791286	-1.241963	0.929890	0.574595	0.814621	-0.718506	0.231445	0.249512	0.259044	-0.621585	-0.386135	-0.630419
61994		0.211791	0.113605	-2.151198	1.285739	0.350796	0.820617	-0.726807	0.255371	0.243896	0.277179	-0.618580	-0.388279	-0.624316
61995		-1.264530	1.768342	-1.393060	1.085823	0.049319	0.691106	-0.714355	0.267578	0.240967	0.291216	-0.617793	-0.390895	-0.617030
61996		0.298407	3.386069	-0.022795	0.013587	0.004136	0.442683	-0.724365	0.281006	0.245361	0.294779	-0.619974	-0.387350	-0.615384
61997		1.820352	2.688421	0.401398	-0.607794	0.051255	0.167501	-0.724365	0.272705	0.241455	0.291643	-0.622717	-0.380995	-0.618070
61998		0.038596	1.758703	0.697723	-0.198884	0.074978	-0.038928	-0.722168	0.277832	0.234619	0.290184	-0.622778	-0.379284	-0.619745
61999		-0.564239	0.539784	0.756602	0.392196	-0.021112	-0.186560	-0.728271	0.275635	0.241211	0.291734	-0.620745	-0.383641	-0.618374
62000		-0.515058	0.807319	-0.337320	0.188847	-0.200391	-0.250621	-0.715576	0.288818	0.239502	0.290346	-0.620520	-0.387599	-0.616783
62001		-0.136143	1.939538	-1.184456	-0.316996	-0.182108	-0.284256	-0.718994	0.260742	0.246582	0.284860	-0.621817	-0.387839	-0.617883
62002		0.588340	1.376131	0.736669	-0.394772	-0.103317	-0.413414	-0.708984	0.261230	0.250244	0.278139	-0.622121	-0.388207	-0.620403
62003		3.344806	0.946823	2.905108	-0.609161	-0.285084	-0.664087	-0.712402	0.243652	0.260254	0.266902	-0.623306	-0.389456	-0.623359
62004		16.475436	3.762761	-5.751105	-1.052699	-0.262089	-0.645511	-0.712646	0.229980	0.271240	0.252410	-0.625764	-0.386939	-0.628480
62005		30.799002	7.459683	-0.223822	-1.437792	-0.277798	-0.885288	-0.698242	0.203613	0.278076	0.232867	-0.628176	-0.383212	-0.635859
62006		36.609739	-5.640225	-1.918187	-0.846493	0.088599	-0.673616	-0.714844	0.179199	0.283203	0.221328	-0.626770	-0.381329	-0.642465
62007		36.071908	-1.921377	-0.450157	1.757153	0.268123	0.365996	-0.719971	0.200439	0.273926	0.239296	-0.621472	-0.391522	-0.634996
62008		27.253111	5.283236	-1.867206	1.189284	0.599804	0.963158	-0.712646	0.226562	0.253418	0.259097	-0.617882	-0.391355	-0.630818
62009		13.173326	3.839066	-2.287722	0.717581	0.561769	0.868488	-0.714844	0.243164	0.243652	0.274236	-0.615447	-0.388185	-0.628755
62010		3.022613	-0.740161	-2.055236	1.323940	0.365100	0.421936	-0.726807	0.253662	0.230225	0.289502	-0.610127	-0.393810	-0.623577
62011		-2.180027	2.936134	-1.596529	1.344285	0.084486	0.095829	-0.735596	0.269043	0.225098	0.300909	-0.605126	-0.402983	-0.617156
62012		-0.695098	6.482512	-0.752154	0.362254	-0.055339	-0.219112	-0.742676	0.266357	0.219238	0.301719	-0.603211	-0.407457	-0.615695
62013		1.422495	2.400369	-0.248278	-0.103437	-0.204716	-0.398660	-0.750000	0.258057	0.226562	0.296861	-0.603267	-0.410251	-0.616147
62014		0.171321	0.153494	0.451145	-0.263370	-0.161959	-0.216404	-0.743652	0.246582	0.229492	0.292418	-0.604503	-0.410282	-0.617038
62015		-0.975028	0.952458	0.231919	0.093023	-0.105957	-0.176962	-0.750977	0.249512	0.234619	0.291256	-0.604201	-0.412551	-0.616370
62016		-0.326804	0.955100	-0.417061	0.200988	-0.210916	-0.160594	-0.739014	0.250000	0.234131	0.290492	-0.604393	-0.415906	-0.614285
62017		-0.036350	1.277488	-0.816996	-0.527931	-0.233516	-0.147661	-0.731934	0.239502	0.242432	0.284194	-0.607449	-0.413637	-0.615746
62018		0.404168	0.909310	0.386252	-0.885365	-0.161100	-0.179564	-0.741455	0.232666	0.250000	0.275287	-0.610993	-0.408575	-0.619654
62019		0.562160	-0.015961	1.449244	-0.915404	-0.167552	-0.333522	-0.730225	0.223389	0.256104	0.264884	-0.613817	-0.404415	-0.624110
62020		1.217362	-1.810341	4.181677	-0.256062	-0.173409	-0.675016	-0.724609	0.208740	0.262207	0.256814	-0.612707	-0.407984	-0.626248
62021		5.808241	0.926076	-0.831628	0.279326	0.082648	-0.924459	-0.727295	0.199463	0.259277	0.252162	-0.606538	-0.416765	-0.628358
62022		21.549555	0.942793	-3.481666	-0.419568	0.127932	-0.502602	-0.721436	0.185303	0.258545	0.245735	-0.604352	-0.416672	-0.633054
62023		32.699544	12.239943	-5.344597	-0.709563	0.036416	-0.281191	-0.726074	0.179688	0.258301	0.238377	-0.604888	-0.412863	-0.637833
62024		37.663632	0.547758	-3.945873	-0.677377	-0.110215	0.011578	-0.720459	0.172852	0.260498	0.232822	-0.607953	-0.407515	-0.640405
62025		36.749949	4.142434	0.725224	0.840753	-0.094778	0.521550	-0.723145	0.188721	0.267578	0.242933	-0.609014	-0.410325	-0.633813
62026		29.059276	1.380512	0.291001	0.868673	0.412399	1.229141	-0.711182	0.217529	0.254150	0.261401	-0.609437	-0.406317	-0.628620
62027		14.983831	3.938118	-2.139551	1.153423	0.650342	1.493949	-0.718750	0.249023	0.230957	0.285190	-0.608101	-0.401519	-0.622625
62028		3.562820	2.461416	-2.827972	1.027116	0.460523	1.048637	-0.727539	0.278564	0.222656	0.303445	-0.606155	-0.399569	-0.617124
62029		-1.655964	2.962631	-1.784566	0.654879	0.139404	0.528495	-0.718994	0.291260	0.224365	0.313201	-0.605342	-0.399846	-0.612853
62030		-2.182838	5.525371	1.720460	-0.232844	-0.051969	-0.105216	-0.731689	0.286133	0.230469	0.310433	-0.606253	-0.398915	-0.613967
62031		1.695577	2.451815	0.711925	-0.675756	-0.431740	-0.503664	-0.739746	0.271240	0.246094	0.299332	-0.609754	-0.399065	-0.615911
62032		0.955688	-3.611033	0.338584	-0.545201	-0.203569	-0.172567	-0.748535	0.265869	0.253662	0.292883	-0.612599	-0.396809	-0.617645
62033		-0.210164	-1.567466	-0.693580	0.437702	0.025376	0.201045	-0.743408	0.274658	0.248291	0.297952	-0.611915	-0.398367	-0.614889
62034		-0.331167	2.306070	-1.115074	0.284790	-0.002892	0.410162	-0.738770	0.287598	0.249512	0.303303	-0.613041	-0.397220	-0.611885
62035		-0.929923	2.406248	-1.154242	-0.381272	-0.185826	0.422909	-0.742432	0.285889	0.253174	0.302728	-0.618122	-0.391569	-0.610701
62036		-0.146015	1.666377	0.756445	-0.914101	-0.126044	0.131741	-0.733887	0.280518	0.263916	0.296079	-0.623272	-0.383848	-0.613621
62037		0.229203	-0.043349	0.436015	-0.216758	0.029912	-0.199255	-0.726562	0.279053	0.257324	0.293051	-0.623008	-0.383451	-0.615587
62038		-0.846254	-0.266088	0.654025	0.797219	0.047139	-0.564868	-0.720703	0.275879	0.245117	0.295163	-0.617097	-0.393605	-0.614121
62039		3.046182	6.493982	-0.093613	0.956615	-0.291983	-1.231376	-0.726807	0.250488	0.243896	0.291640	-0.609761	-0.411266	-0.611554
62040		15.679178	2.892342	-1.678176	-1.754100	-0.126182	-1.323181	-0.715820	0.225830	0.262207	0.267444	-0.610212	-0.408087	-0.624163
62041		18.806010	2.333313	1.205229	-0.907747	0.054299	-1.165267	-0.718750	0.196777	0.258545	0.251717	-0.606900	-0.409495	-0.632949
62042		21.662983	-3.238611	-4.260818	-0.278649	0.016591	-0.820586	-0.725342	0.173096	0.261475	0.243230	-0.603539	-0.413262	-0.637020
62043		27.162427	6.302577	-6.215237	0.410515	-0.448625	-0.470357	-0.728760	0.169434	0.272217	0.240300	-0.603541	-0.421240	-0.632891
62044		21.305700	7.952193	5.617905	-1.239839	-0.516120	-0.589634	-0.722900	0.156250	0.282715	0.223580	-0.608272	-0.417202	-0.637149
62045		16.980855	-12.092177	-1.216813	-0.155316	0.068881	0.333695	-0.724365	0.154541	0.284424	0.225458	-0.610027	-0.413030	-0.637527
62046		14.003228	5.112470	-2.612020	1.467744	0.157782	0.995717	-0.721924	0.185303	0.274658	0.245375	-0.609775	-0.416336	-0.628195
62047		7.914822	4.378195	-0.877180	-0.099183	-0.061431	0.966480	-0.711670	0.202881	0.286133	0.251905	-0.615696	-0.408106	-0.625230
62048		7.945864	0.388191	-0.123030	-0.703629	-0.206025	1.094916	-0.697998	0.222900	0.290283	0.254016	-0.625157	-0.394594	-0.623658
62049		7.869312	0.557158	1.590611	-0.561400	-0.021938	0.906831	-0.698730	0.226807	0.292480	0.256623	-0.631665	-0.382967	-0.623282
62050		7.149433	-1.369881	-1.357427	0.491686	0.111014	0.598380	-0.691406	0.252441	0.292969	0.265725	-0.632193	-0.381470	-0.619841
62051		7.028092	1.575620	-1.168428	1.098360	0.138788	0.555519	-0.694336	0.265381	0.285645	0.279396	-0.630181	-0.384877	-0.613742
62052		7.696043	4.449975	-1.114477	0.141830	0.174179	0.442908	-0.681885	0.270264	0.284912	0.284795	-0.630603	-0.381661	-0.612835
62053		10.253497	3.075057	-2.272732	-0.295426	0.147705	0.358154	-0.691162	0.276367	0.281250	0.285972	-0.632346	-0.375888	-0.614058
62054		9.735019	1.873567	-1.125856	-0.255331	0.170166	0.336316	-0.683105	0.278076	0.288330	0.287381	-0.633649	-0.370467	-0.615349
62055		10.201512	1.708933	-1.592183	0.126508	0.288813	0.261542	-0.687744	0.291260	0.279541	0.291794	-0.632295	-0.368185	-0.616035
62056		9.614771	2.886553	-2.242560	0.298740	0.125829	0.346347	-0.684326	0.293945	0.276123	0.297454	-0.631942	-0.367110	-0.614329
62057		9.251975	2.368913	-1.485755	0.050053	-0.000614	0.353128	-0.682373	0.306641	0.278809	0.300613	-0.633495	-0.364543	-0.612719
62058		9.581089	1.370963	-0.981423	-0.080580	0.057110	0.349907	-0.679688	0.306885	0.274414	0.302973	-0.635065	-0.360786	-0.612154
62059		9.614449	0.987964	-0.530523	-0.167137	0.084519	0.363779	-0.673584	0.312256	0.278809	0.304860	-0.636802	-0.356128	-0.612141
62060		9.540770	1.027199	-0.713829	-0.264562	0.085077	0.339405	-0.671631	0.318359	0.283691	0.305782	-0.638776	-0.350919	-0.612633
62061		9.524597	0.551573	-1.524604	-0.397853	0.026709	0.345929	-0.672607	0.320801	0.281982	0.305424	-0.641709	-0.344850	-0.613192
62062		9.787640	0.220855	-1.328336	-0.412019	-0.011082	0.365976	-0.659180	0.324707	0.282959	0.304922	-0.645043	-0.338625	-0.613413
62063		9.630508	-0.257097	-0.574779	-0.332671	-0.017416	0.288716	-0.662598	0.329346	0.285889	0.304431	-0.647769	-0.333646	-0.613512
62064		10.009721	-1.085357	0.014159	0.065256	0.021526	0.131929	-0.657227	0.337158	0.287842	0.306114	-0.648018	-0.332828	-0.612856
62065		9.855172	-0.571792	0.043540	0.600592	0.050218	0.139516	-0.660889	0.342773	0.279785	0.312303	-0.646009	-0.335928	-0.610157
62066		9.709017	0.488651	0.058737	0.583145	0.092695	0.205541	-0.662354	0.355469	0.271240	0.319010	-0.643985	-0.338163	-0.607587
62067		9.675575	0.732122	0.060496	0.272933	0.084559	0.258672	-0.657227	0.350586	0.262451	0.323575	-0.643455	-0.337629	-0.606029
62068		9.648718	0.259328	-0.613294	0.167543	0.014172	0.299551	-0.655762	0.364014	0.264160	0.327292	-0.644044	-0.336241	-0.604177
62069		9.524271	-0.380542	-0.484924	0.263484	-0.015472	0.295461	-0.657227	0.365723	0.261719	0.331624	-0.644431	-0.335732	-0.601680
62070		9.470549	-0.255974	-0.217040	0.340125	-0.008880	0.259956	-0.652344	0.381348	0.249512	0.336322	-0.644283	-0.336045	-0.599049
62071		9.780077	0.345162	0.009080	0.276392	0.033797	0.195521	-0.645752	0.383057	0.262451	0.340199	-0.643797	-0.336209	-0.597288
62072		9.840142	0.486466	0.247285	0.075952	0.055329	0.130909	-0.651367	0.378662	0.248779	0.342067	-0.643725	-0.335312	-0.596803
62073		9.738315	-0.220365	-0.189040	-0.103635	0.007785	0.107196	-0.642090	0.385742	0.256348	0.342107	-0.644671	-0.333458	-0.596799
62074		9.545805	-0.715239	-0.473591	-0.031042	-0.011300	0.110990	-0.647705	0.393066	0.252930	0.342684	-0.645463	-0.332200	-0.596312
62075		9.745440	-0.822044	-0.528993	0.031547	-0.017337	0.099469	-0.646484	0.391846	0.259766	0.343656	-0.645982	-0.331525	-0.595566
62076		9.719224	-0.440230	-0.340194	0.002871	-0.016376	0.079541	-0.642090	0.388916	0.258057	0.344249	-0.646535	-0.330792	-0.595031
62077		9.757119	-0.124163	-0.199623	-0.063505	-0.012114	0.071204	-0.635010	0.399170	0.252930	0.344259	-0.647305	-0.329613	-0.594842
62078		9.808737	-0.415446	-0.112919	-0.137695	-0.028746	0.060886	-0.631104	0.393555	0.258057	0.343531	-0.648473	-0.328039	-0.594861
62079		9.890481	-0.950203	-0.342311	-0.164495	-0.028244	0.039010	-0.632568	0.394531	0.262451	0.342419	-0.649661	-0.326436	-0.595088
62080		9.623925	-1.133651	-0.766390	-0.092049	-0.010492	0.041620	-0.641602	0.397461	0.265625	0.341985	-0.650416	-0.325272	-0.595150
62081		9.606032	-0.923754	-0.586823	-0.037848	-0.014822	0.050789	-0.638672	0.396240	0.259277	0.342040	-0.651007	-0.324453	-0.594919
62082		9.973233	-0.857657	-0.217267	-0.068600	-0.022378	0.037819	-0.638184	0.399658	0.260742	0.341719	-0.651730	-0.323543	-0.594808
62083		9.866984	-0.746626	-0.356778	-0.044833	-0.017790	0.037978	-0.633545	0.399658	0.264404	0.341613	-0.652317	-0.322787	-0.594636
62084		9.787687	-0.782461	-0.392307	-0.047854	-0.013639	0.026873	-0.642090	0.404297	0.269531	0.341415	-0.652843	-0.322079	-0.594555
62085		9.749446	-0.771917	-0.377056	-0.034239	-0.021699	-0.009125	-0.634277	0.397949	0.271240	0.341027	-0.653226	-0.321800	-0.594509
62086		9.700465	-0.742975	-0.719955	0.004124	-0.046566	-0.030681	-0.625488	0.393066	0.270996	0.340688	-0.653546	-0.322083	-0.594198
62087		9.760957	-0.868615	-0.553241	-0.013636	-0.044406	-0.023778	-0.630615	0.399902	0.265625	0.340263	-0.653954	-0.322168	-0.593946
62088		9.831365	-0.796633	-0.500401	-0.000757	-0.031346	-0.015214	-0.630859	0.394287	0.261719	0.340068	-0.654241	-0.322229	-0.593710
62089		9.815671	-0.658712	-0.585334	-0.023747	-0.033859	-0.002303	-0.632812	0.395020	0.272705	0.339766	-0.654693	-0.322023	-0.593496
62090		9.780007	-0.707728	-0.485683	-0.047508	-0.030966	0.005749	-0.628418	0.389893	0.271484	0.339336	-0.655261	-0.321557	-0.593368
62091		9.835856	-0.738958	-0.593953	-0.036570	-0.028744	-0.005238	-0.636230	0.385254	0.266846	0.338920	-0.655722	-0.321250	-0.593262
62092		9.758255	-0.771954	-0.777588	0.004542	-0.019056	0.008994	-0.631104	0.399658	0.271484	0.338981	-0.655988	-0.321092	-0.593019
62093		9.760983	-0.758617	-0.702643	-0.025526	-0.014852	0.021303	-0.627686	0.394287	0.276855	0.338918	-0.656404	-0.320598	-0.592861
62094		9.758878	-0.689225	-0.545598	-0.029437	-0.014857	0.020992	-0.631836	0.390625	0.274414	0.338812	-0.656840	-0.320070	-0.592725
62095		9.804769	-0.701423	-0.603919	0.004938	-0.025644	0.012024	-0.632812	0.393555	0.272705	0.338875	-0.657169	-0.319915	-0.592408
62096		9.835427	-0.799469	-0.671313	0.019419	-0.022254	0.006410	-0.629395	0.403809	0.266357	0.339032	-0.657388	-0.319904	-0.592081
62097		9.695936	-0.786265	-0.671776	0.007632	-0.029813	-0.002567	-0.633057	0.392578	0.277588	0.339016	-0.657672	-0.319927	-0.591763
62098		9.698379	-0.834998	-0.672249	0.043132	-0.033704	-0.005263	-0.625244	0.393555	0.272705	0.339229	-0.657831	-0.320228	-0.591300
62099		9.791685	-0.832857	-0.624112	0.033007	-0.024061	-0.006178	-0.627686	0.397705	0.267822	0.339400	-0.657956	-0.320428	-0.590954
62100		9.747370	-0.728822	-0.599952	0.048078	-0.026336	-0.014240	-0.622070	0.405029	0.278320	0.339635	-0.657997	-0.320825	-0.590559
62101		9.792707	-0.800935	-0.730822	0.049360	-0.023797	-0.014494	-0.628662	0.400879	0.277100	0.339890	-0.658023	-0.321215	-0.590171
62102		9.720621	-0.815674	-0.709885	0.019041	-0.024833	-0.002113	-0.627930	0.404785	0.275146	0.339975	-0.658231	-0.321281	-0.589853
62103		9.748151	-0.882443	-0.679344	0.014284	-0.013813	-0.002471	-0.625977	0.392578	0.277344	0.340070	-0.658375	-0.321275	-0.589641
62104		9.699594	-0.724307	-0.747911	0.051989	-0.017521	-0.016695	-0.623047	0.399414	0.279785	0.340335	-0.658332	-0.321663	-0.589325
62105		9.763043	-0.683202	-0.672433	0.049417	-0.021091	-0.028744	-0.626221	0.399658	0.272217	0.340485	-0.658281	-0.322150	-0.589029
62106		9.814189	-0.763660	-0.679985	0.005556	-0.025297	-0.039110	-0.637451	0.398438	0.270996	0.340188	-0.658397	-0.322430	-0.588919
62107		9.804186	-0.856019	-0.803016	0.007966	-0.005407	-0.033894	-0.624023	0.384277	0.281494	0.340024	-0.658370	-0.322602	-0.588949
62108		9.705580	-0.836565	-0.777091	0.008118	-0.017085	-0.017733	-0.620117	0.395264	0.280273	0.339904	-0.658512	-0.322655	-0.588830
62109		9.711646	-0.767968	-0.666151	0.008596	-0.011550	-0.010449	-0.632080	0.394043	0.275391	0.339887	-0.658640	-0.322646	-0.588702
62110		9.763202	-0.686106	-0.740462	0.017772	-0.011603	-0.020852	-0.633545	0.407227	0.276123	0.339868	-0.658676	-0.322799	-0.588589
62111		9.760295	-0.631028	-0.748900	0.001686	-0.000547	-0.028970	-0.616943	0.399414	0.276123	0.339721	-0.658666	-0.322869	-0.588646
62112		9.760935	-0.683183	-0.815368	-0.015641	-0.009566	-0.032812	-0.626709	0.398438	0.279785	0.339364	-0.658788	-0.322873	-0.588713
62113		9.772178	-0.737838	-0.798036	-0.008689	-0.004799	-0.028823	-0.632080	0.397949	0.281982	0.339101	-0.658861	-0.322868	-0.588786
62114		9.774186	-0.701950	-0.691103	-0.010412	-0.011818	-0.022616	-0.624268	0.393311	0.278076	0.338835	-0.659018	-0.322825	-0.588787
62115		9.763955	-0.738052	-0.747002	-0.024378	0.000462	-0.018847	-0.625732	0.391846	0.280029	0.338535	-0.659157	-0.322599	-0.588928
62116		9.742185	-0.728351	-0.775063	-0.032805	0.009104	-0.022962	-0.630615	0.399414	0.279785	0.338164	-0.659252	-0.322304	-0.589196
62117		9.732771	-0.698124	-0.755858	-0.015566	0.005394	-0.015075	-0.628662	0.396240	0.286865	0.337992	-0.659331	-0.322099	-0.589319
62118		9.736300	-0.699212	-0.779063	-0.012799	-0.003699	-0.014882	-0.626465	0.396729	0.276123	0.337790	-0.659476	-0.321930	-0.589364
62119		9.797171	-0.712077	-0.741549	-0.015920	0.009897	-0.022288	-0.627686	0.392578	0.278320	0.337585	-0.659490	-0.321771	-0.589553
62120		9.748696	-0.674004	-0.736166	-0.007076	0.013711	-0.027095	-0.629639	0.390381	0.276367	0.337421	-0.659422	-0.321690	-0.589768
62121		9.730049	-0.710707	-0.785222	-0.013383	0.003802	-0.026902	-0.633301	0.388428	0.275146	0.337165	-0.659450	-0.321604	-0.589929
62122		9.730482	-0.757095	-0.731379	-0.017972	0.010023	-0.022793	-0.626953	0.390869	0.283691	0.336923	-0.659464	-0.321425	-0.590149
62123		9.795268	-0.764909	-0.738181	-0.009887	0.005900	-0.025898	-0.628174	0.390625	0.278564	0.336702	-0.659479	-0.321330	-0.590310
62124		9.734792	-0.715659	-0.730023	0.015233	0.004678	-0.025284	-0.620117	0.397705	0.278809	0.336698	-0.659391	-0.321437	-0.590353
62125		9.761947	-0.745844	-0.737807	0.014623	0.003535	-0.026037	-0.636230	0.392334	0.281738	0.336699	-0.659315	-0.321563	-0.590368
62126		9.744864	-0.701090	-0.730289	0.012291	0.009036	-0.029032	-0.633545	0.389404	0.285889	0.336652	-0.659193	-0.321652	-0.590483
62127		9.791016	-0.771755	-0.683717	0.010915	0.012386	-0.030274	-0.634766	0.387451	0.279541	0.336585	-0.659055	-0.321709	-0.590644
62128		9.759355	-0.725675	-0.742951	0.010436	0.012401	-0.028114	-0.634277	0.389160	0.289795	0.336538	-0.658918	-0.321760	-0.590796
62129		9.761912	-0.715368	-0.675110	0.016785	0.005735	-0.028756	-0.627686	0.387695	0.279297	0.336494	-0.658818	-0.321862	-0.590877
62130		9.752321	-0.673462	-0.706379	0.017878	0.012158	-0.029108	-0.626709	0.398682	0.275879	0.336508	-0.658651	-0.321981	-0.590990
62131		9.770938	-0.704460	-0.708399	0.007480	0.015843	-0.032015	-0.628418	0.388428	0.282471	0.336463	-0.658484	-0.322063	-0.591157
62132		9.743768	-0.675161	-0.679992	0.022362	0.014816	-0.040567	-0.640137	0.391113	0.284180	0.336433	-0.658239	-0.322288	-0.591325
62133		9.756111	-0.675496	-0.710002	0.036530	0.008194	-0.040525	-0.627686	0.391846	0.271484	0.336486	-0.657980	-0.322641	-0.591390
62134		9.801287	-0.706508	-0.700829	0.014779	0.006422	-0.037396	-0.633057	0.390137	0.277832	0.336418	-0.657823	-0.322864	-0.591482
62135		9.769621	-0.679561	-0.658310	0.020372	0.006610	-0.031636	-0.625244	0.392578	0.273193	0.336416	-0.657673	-0.323052	-0.591547
62136		9.791934	-0.757781	-0.683491	0.020425	0.010437	-0.032761	-0.623779	0.395508	0.273438	0.336446	-0.657487	-0.323257	-0.591625
62137		9.706264	-0.649961	-0.672951	0.041623	0.018134	-0.030680	-0.625244	0.389404	0.278564	0.336705	-0.657165	-0.323574	-0.591662
62138		9.761867	-0.623987	-0.652246	0.032848	0.012207	-0.034581	-0.630371	0.385254	0.279541	0.336808	-0.656918	-0.323849	-0.591727
62139		9.786576	-0.638304	-0.657313	0.020295	0.008315	-0.035763	-0.630615	0.394043	0.275146	0.336764	-0.656749	-0.324040	-0.591835
62140		9.767122	-0.604483	-0.691772	0.034275	0.013559	-0.034245	-0.629883	0.395996	0.273682	0.336902	-0.656478	-0.324338	-0.591894
62141		9.777188	-0.646747	-0.638404	0.032829	0.013046	-0.034334	-0.637207	0.389160	0.276611	0.337034	-0.656216	-0.324636	-0.591946
62142		9.763211	-0.615449	-0.601011	0.026461	0.011682	-0.035208	-0.634277	0.396240	0.274658	0.337068	-0.655990	-0.324869	-0.592049
62143		9.712175	-0.579917	-0.690616	0.027496	0.008668	-0.029065	-0.632568	0.391846	0.276855	0.337172	-0.655805	-0.325097	-0.592070
62144		9.744131	-0.565817	-0.685834	0.010643	0.002396	-0.030802	-0.642822	0.391846	0.279541	0.337082	-0.655736	-0.325222	-0.592129
62145		9.755042	-0.541463	-0.675533	0.016846	-0.004563	-0.038633	-0.625488	0.386719	0.275146	0.336940	-0.655661	-0.325474	-0.592155
62146		9.782896	-0.576516	-0.633235	0.017969	-0.004707	-0.048464	-0.626953	0.381592	0.281982	0.336750	-0.655543	-0.325826	-0.592199
62147		9.798322	-0.546763	-0.637972	0.031858	0.011463	-0.051266	-0.635498	0.390381	0.276855	0.336687	-0.655250	-0.326198	-0.592354
62148		9.746898	-0.575395	-0.659820	0.017153	0.002130	-0.042078	-0.637695	0.392334	0.281982	0.336563	-0.655110	-0.326463	-0.592434
62149		9.772992	-0.674464	-0.664475	-0.011754	0.000866	-0.026372	-0.645264	0.392578	0.279297	0.336303	-0.655175	-0.326376	-0.592558
62150		9.811716	-0.649213	-0.575821	-0.006122	0.003185	-0.022105	-0.634277	0.388428	0.277100	0.336132	-0.655205	-0.326294	-0.592667
62151		9.795282	-0.623831	-0.635464	0.018356	0.005449	-0.021211	-0.636475	0.389404	0.275635	0.336184	-0.655121	-0.326381	-0.592682
62152		9.732862	-0.574451	-0.686330	0.010776	0.007100	-0.022634	-0.635498	0.391113	0.278320	0.336175	-0.655047	-0.326423	-0.592746
62153		9.737612	-0.566518	-0.700788	-0.003465	0.007368	-0.028424	-0.635498	0.380371	0.277832	0.336006	-0.655014	-0.326400	-0.592891
62154		9.731548	-0.482351	-0.693093	-0.009015	0.001754	-0.035134	-0.632568	0.384521	0.278809	0.335690	-0.655017	-0.326392	-0.593071
62155		9.792857	-0.538675	-0.660503	-0.010884	0.002455	-0.034757	-0.639648	0.394531	0.271240	0.335379	-0.655029	-0.326373	-0.593245
62156		9.761331	-0.544402	-0.669896	-0.013361	0.003779	-0.034805	-0.631592	0.388184	0.278564	0.335098	-0.655018	-0.326385	-0.593409
62157		9.784328	-0.530829	-0.662145	-0.024816	0.008935	-0.031390	-0.634277	0.394043	0.279297	0.334741	-0.655053	-0.326221	-0.593661
62158		9.778542	-0.555289	-0.614583	-0.031637	-0.005393	-0.028867	-0.630615	0.376953	0.268799	0.334303	-0.655234	-0.326059	-0.593798
62159		9.769656	-0.654859	-0.658119	-0.025571	0.011645	-0.027672	-0.633545	0.389160	0.276855	0.333979	-0.655242	-0.325868	-0.594076
62160		9.770822	-0.631616	-0.700973	-0.013512	0.007398	-0.024003	-0.635742	0.392334	0.279541	0.333776	-0.655264	-0.325751	-0.594230
62161		9.762987	-0.572883	-0.655812	-0.000050	-0.004629	-0.024425	-0.634033	0.389160	0.281738	0.333633	-0.655322	-0.325785	-0.594227
62162		9.742026	-0.555289	-0.676728	0.002115	0.014002	-0.037818	-0.632568	0.380615	0.286621	0.333472	-0.655184	-0.325853	-0.594433
62163		9.743940	-0.473544	-0.676500	0.007087	0.013625	-0.045448	-0.632812	0.391357	0.279541	0.333254	-0.655010	-0.325981	-0.594677
62164		9.743507	-0.428778	-0.624929	0.013426	-0.005131	-0.053576	-0.629639	0.377930	0.278076	0.333007	-0.654900	-0.326358	-0.594729
62165		9.838066	-0.487136	-0.714092	-0.006538	0.005116	-0.056725	-0.639648	0.382080	0.279785	0.332584	-0.654781	-0.326546	-0.594994
62166		9.831488	-0.595048	-0.616252	-0.028829	0.015633	-0.044810	-0.637939	0.378906	0.274902	0.332106	-0.654722	-0.326428	-0.595390
62167		9.757223	-0.665730	-0.555082	-0.012163	0.003715	-0.020880	-0.635254	0.388184	0.278564	0.331904	-0.654770	-0.326302	-0.595519
62168		9.765020	-0.654075	-0.674533	0.002509	0.003895	-0.008985	-0.639893	0.377197	0.277832	0.331937	-0.654816	-0.326198	-0.595508
62169		9.777052	-0.558378	-0.629334	0.014008	0.010026	-0.009481	-0.636230	0.381836	0.278320	0.332043	-0.654760	-0.326130	-0.595548
62170		9.772365	-0.507698	-0.604944	0.015506	0.009261	-0.017768	-0.638672	0.386230	0.281982	0.332115	-0.654674	-0.326155	-0.595588
62171		9.762483	-0.499658	-0.717594	0.004898	-0.000842	-0.024851	-0.631104	0.385742	0.284912	0.332006	-0.654688	-0.326194	-0.595612
62172		9.790744	-0.481984	-0.661258	0.004244	0.006253	-0.025896	-0.644287	0.372559	0.278320	0.331915	-0.654660	-0.326200	-0.595690
62173		9.800324	-0.475535	-0.633623	0.015367	0.006004	-0.019151	-0.635986	0.382324	0.278076	0.331920	-0.654586	-0.326222	-0.595756
62174		9.767452	-0.491175	-0.708742	0.005937	-0.004286	-0.010705	-0.633789	0.387939	0.274170	0.331915	-0.654670	-0.326178	-0.595691
62175		9.751600	-0.482352	-0.630597	-0.001753	-0.000316	-0.009834	-0.639648	0.373291	0.276855	0.331904	-0.654753	-0.326085	-0.595657
62176		9.760573	-0.467049	-0.685266	0.007920	0.002307	-0.017068	-0.634521	0.386475	0.281738	0.331862	-0.654745	-0.326060	-0.595702
62177		9.770617	-0.510150	-0.693052	0.022119	0.004174	-0.017247	-0.642090	0.375488	0.274170	0.331981	-0.654684	-0.326152	-0.595653
62178		9.796322	-0.514031	-0.715338	0.014409	0.002949	-0.007345	-0.644775	0.380371	0.276611	0.332078	-0.654676	-0.326110	-0.595631
62179		9.783275	-0.471657	-0.602574	-0.008954	-0.003372	-0.002372	-0.642090	0.379395	0.279297	0.332000	-0.654838	-0.325878	-0.595624
62180		9.746384	-0.491908	-0.632913	0.006037	0.000062	-0.015403	-0.636963	0.381348	0.280762	0.331953	-0.654867	-0.325838	-0.595639
62181		9.780581	-0.536842	-0.781959	0.022920	-0.000563	-0.014942	-0.630615	0.385254	0.274414	0.332056	-0.654842	-0.325925	-0.595562
62182		9.737147	-0.485914	-0.688174	0.016115	-0.002159	-0.007467	-0.640625	0.383301	0.279541	0.332198	-0.654875	-0.325952	-0.595432
62183		9.774547	-0.518107	-0.671425	0.004656	-0.006265	-0.008441	-0.640869	0.380615	0.275146	0.332181	-0.654988	-0.325881	-0.595356
62184		9.811965	-0.550169	-0.654743	0.006027	-0.002203	-0.007660	-0.636475	0.390137	0.275391	0.332201	-0.655054	-0.325811	-0.595310
62185		9.768813	-0.547572	-0.624392	0.014202	0.004806	-0.001471	-0.638428	0.385010	0.275879	0.332405	-0.655065	-0.325750	-0.595217
62186		9.739664	-0.508597	-0.703350	0.016129	-0.002372	-0.001186	-0.632568	0.387695	0.278809	0.332572	-0.655122	-0.325711	-0.595082
62187		9.772032	-0.476942	-0.736652	0.001545	0.014330	-0.002047	-0.639404	0.385498	0.282959	0.332691	-0.655125	-0.325501	-0.595128
62188		9.797231	-0.516072	-0.637685	-0.012189	0.012603	-0.010252	-0.629395	0.383057	0.271973	0.332594	-0.655171	-0.325231	-0.595280
62189		9.799888	-0.551308	-0.598217	0.010740	0.003508	-0.002296	-0.640869	0.383301	0.275879	0.332752	-0.655197	-0.325156	-0.595203
62190		9.762972	-0.573847	-0.628064	0.010946	-0.004418	0.000707	-0.633301	0.389404	0.272705	0.332866	-0.655296	-0.325061	-0.595082
62191		9.716336	-0.541128	-0.672652	0.021987	-0.004492	-0.003293	-0.641846	0.386963	0.272705	0.333091	-0.655329	-0.325122	-0.594886
62192		9.749187	-0.501365	-0.701016	0.022796	-0.000237	-0.011156	-0.631592	0.382324	0.280762	0.333251	-0.655289	-0.325218	-0.594788
62193		9.796027	-0.530935	-0.656052	0.007802	0.008467	-0.015885	-0.637695	0.384766	0.266357	0.333262	-0.655260	-0.325163	-0.594844
62194		9.812183	-0.551412	-0.659160	0.008712	0.001341	-0.015865	-0.635986	0.390869	0.272461	0.333297	-0.655233	-0.325210	-0.594829
62195		9.801752	-0.652792	-0.620102	0.018217	0.003839	-0.011267	-0.633057	0.384521	0.289551	0.333466	-0.655184	-0.325278	-0.594751
62196		9.738992	-0.601260	-0.663872	0.029278	0.013032	-0.006447	-0.630127	0.383057	0.273438	0.333721	-0.655094	-0.325253	-0.594721
62197		9.753137	-0.517822	-0.677302	0.032079	0.007937	-0.001799	-0.635254	0.387695	0.270996	0.334059	-0.655006	-0.325297	-0.594603
62198		9.793397	-0.579831	-0.643040	0.009778	-0.000001	-0.003203	-0.632812	0.388428	0.271484	0.334188	-0.655053	-0.325240	-0.594511
62199		9.758332	-0.500413	-0.707802	0.009044	0.000978	0.000113	-0.638184	0.387451	0.281738	0.334345	-0.655113	-0.325148	-0.594407
62200		9.782099	-0.555160	-0.625416	0.008802	-0.001916	0.002465	-0.636475	0.386230	0.272217	0.334456	-0.655230	-0.324993	-0.594300
62201		9.770798	-0.594296	-0.626819	0.026174	-0.000571	-0.000581	-0.635010	0.384766	0.271973	0.334717	-0.655226	-0.325022	-0.594141
62202		9.738085	-0.542922	-0.706334	0.031788	-0.005598	-0.000317	-0.634033	0.391602	0.275879	0.334999	-0.655239	-0.325105	-0.593923
62203		9.746417	-0.556611	-0.665511	0.026135	-0.005358	-0.004064	-0.638428	0.379395	0.276611	0.335232	-0.655268	-0.325188	-0.593714
62204		9.788133	-0.577794	-0.716121	0.019142	-0.001299	-0.012662	-0.636475	0.387451	0.278320	0.335278	-0.655265	-0.325209	-0.593679
62205		9.794114	-0.633359	-0.655722	0.012980	0.004416	-0.008871	-0.631592	0.392578	0.275879	0.335368	-0.655265	-0.325158	-0.593657
62206		9.758237	-0.649139	-0.648438	0.018985	0.001553	-0.002164	-0.637207	0.389648	0.272217	0.335591	-0.655282	-0.325148	-0.593517
62207		9.744394	-0.588171	-0.668710	0.027526	-0.002369	0.002839	-0.636719	0.388672	0.272217	0.335886	-0.655299	-0.325170	-0.593319
62208		9.774252	-0.602713	-0.656509	0.020650	-0.000899	-0.001772	-0.638428	0.392334	0.270752	0.336088	-0.655317	-0.325167	-0.593187
62209		9.768724	-0.616655	-0.681907	0.035193	0.006381	-0.009279	-0.635498	0.387695	0.266846	0.336403	-0.655181	-0.325322	-0.593074
62210		9.756109	-0.610896	-0.682245	0.025491	0.011605	-0.010656	-0.633789	0.389404	0.272705	0.336639	-0.655036	-0.325391	-0.593063
62211		9.756675	-0.610544	-0.650164	0.016020	0.008761	-0.002742	-0.637695	0.390137	0.279541	0.336838	-0.655003	-0.325319	-0.593025
62212		9.787704	-0.601958	-0.673944	0.017666	0.007926	0.004234	-0.632080	0.389404	0.265625	0.337068	-0.655016	-0.325169	-0.592961
62213		9.763542	-0.583201	-0.605864	0.018942	0.006948	0.003309	-0.629883	0.394043	0.285645	0.337352	-0.654989	-0.325108	-0.592864
62214		9.758280	-0.590189	-0.653070	0.024599	0.005252	-0.005760	-0.636230	0.388428	0.275879	0.337572	-0.654976	-0.325100	-0.592758
62215		9.745628	-0.575430	-0.705641	0.016557	0.011118	-0.014348	-0.633301	0.391357	0.285156	0.337664	-0.654888	-0.325083	-0.592812
62216		9.805424	-0.679961	-0.651193	0.011124	0.010018	-0.011275	-0.633789	0.391113	0.271240	0.337724	-0.654874	-0.324979	-0.592850
62217		9.769683	-0.695125	-0.642686	0.020034	0.005528	-0.004762	-0.629639	0.397461	0.268311	0.337929	-0.654838	-0.324970	-0.592778
62218		9.733363	-0.647055	-0.646101	0.024283	0.002999	-0.001425	-0.634766	0.394531	0.268799	0.338241	-0.654807	-0.325023	-0.592605
62219		9.741313	-0.667157	-0.609445	0.022481	0.005977	-0.004340	-0.628418	0.392334	0.278809	0.338492	-0.654749	-0.325047	-0.592512
62220		9.746921	-0.641042	-0.661979	0.022472	0.009039	-0.011908	-0.636230	0.395264	0.269531	0.338668	-0.654677	-0.325071	-0.592478
62221		9.803475	-0.644884	-0.686280	0.022328	0.007396	-0.006696	-0.631348	0.395264	0.275391	0.338899	-0.654603	-0.325100	-0.592412
62222		9.769422	-0.640658	-0.628302	0.012654	0.008678	-0.000711	-0.631348	0.399414	0.276611	0.339094	-0.654607	-0.324983	-0.592361
62223		9.774882	-0.624487	-0.629566	0.003763	0.003529	-0.003454	-0.635498	0.390869	0.270264	0.339196	-0.654677	-0.324858	-0.592294
62224		9.768216	-0.660091	-0.645599	0.008041	0.005204	-0.009317	-0.635742	0.393555	0.282471	0.339246	-0.654676	-0.324782	-0.592308
62225		9.754575	-0.675923	-0.608303	0.019605	0.008145	-0.018405	-0.634766	0.405762	0.268066	0.339314	-0.654603	-0.324812	-0.592333
62226		9.756840	-0.634013	-0.660339	0.020011	0.008701	-0.018546	-0.633301	0.393066	0.275635	0.339512	-0.654472	-0.324970	-0.592278
62227		9.768632	-0.655532	-0.675749	-0.000067	0.002943	-0.012041	-0.637939	0.385498	0.278809	0.339469	-0.654529	-0.324854	-0.592302
62228		9.787608	-0.713565	-0.611641	-0.005817	0.002676	-0.012256	-0.634033	0.392578	0.266113	0.339302	-0.654624	-0.324638	-0.592411
62229		9.774937	-0.634866	-0.617526	0.024200	0.011760	-0.016030	-0.631836	0.392822	0.272949	0.339489	-0.654466	-0.324737	-0.592424
62230		9.759595	-0.598764	-0.634028	0.006324	0.003861	-0.019267	-0.635010	0.392090	0.263916	0.339458	-0.654454	-0.324735	-0.592456
62231		9.751223	-0.668463	-0.625066	-0.000740	0.003435	-0.016933	-0.630615	0.394531	0.269043	0.339401	-0.654454	-0.324698	-0.592511
62232		9.789698	-0.681934	-0.650760	-0.002820	0.005309	-0.017181	-0.635498	0.393311	0.272949	0.339346	-0.654465	-0.324636	-0.592564
62233		9.783056	-0.651869	-0.619733	0.001300	0.003331	-0.016361	-0.631104	0.391846	0.263184	0.339287	-0.654486	-0.324574	-0.592608
62234		9.767321	-0.623569	-0.614880	0.005247	0.003660	-0.017749	-0.634766	0.395508	0.269043	0.339288	-0.654455	-0.324597	-0.592629
62235		9.770346	-0.647073	-0.627254	-0.002083	0.007067	-0.015529	-0.632812	0.391846	0.276123	0.339255	-0.654452	-0.324520	-0.592693
62236		9.764632	-0.594613	-0.634761	-0.007784	0.002106	-0.014749	-0.635986	0.390869	0.271484	0.339119	-0.654542	-0.324364	-0.592758
62237		9.767440	-0.617011	-0.677592	0.002341	-0.000391	-0.021157	-0.637451	0.388916	0.272217	0.339006	-0.654563	-0.324359	-0.592801
62238		9.778134	-0.667360	-0.632928	-0.010914	0.005039	-0.021363	-0.633545	0.394775	0.272461	0.338786	-0.654603	-0.324219	-0.592959
62239		9.770381	-0.650187	-0.644461	-0.013992	0.005938	-0.015804	-0.629150	0.390381	0.269531	0.338642	-0.654669	-0.324048	-0.593063
62240		9.760391	-0.678641	-0.608876	-0.008151	-0.000243	-0.014902	-0.633057	0.390381	0.268311	0.338522	-0.654756	-0.323937	-0.593095
62241		9.767227	-0.629307	-0.644328	0.011710	-0.006036	-0.015086	-0.633545	0.392334	0.273926	0.338531	-0.654794	-0.324001	-0.593013
62242		9.781241	-0.614628	-0.628966	0.010827	-0.004372	-0.020551	-0.635254	0.392090	0.276123	0.338493	-0.654818	-0.324078	-0.592967
62243		9.754948	-0.617072	-0.619772	0.005473	-0.001190	-0.022223	-0.637207	0.391602	0.271973	0.338397	-0.654840	-0.324100	-0.592984
62244		9.787696	-0.651849	-0.679203	0.010224	0.003052	-0.018975	-0.626465	0.395264	0.266602	0.338388	-0.654809	-0.324130	-0.593009
62245		9.759744	-0.605453	-0.664442	0.004894	0.000419	-0.018031	-0.640625	0.400879	0.274414	0.338413	-0.654808	-0.324192	-0.592961
62246		9.783244	-0.581931	-0.615417	0.003219	-0.002076	-0.015652	-0.634766	0.396729	0.269531	0.338401	-0.654854	-0.324202	-0.592912
62247		9.741609	-0.625257	-0.619716	0.008382	-0.000051	-0.017482	-0.639404	0.388428	0.279297	0.338431	-0.654846	-0.324268	-0.592867
62248		9.756152	-0.595060	-0.648082	0.010782	0.002193	-0.016748	-0.638428	0.393799	0.272461	0.338382	-0.654854	-0.324228	-0.592908
62249		9.767912	-0.623736	-0.641947	0.000142	0.000958	-0.017799	-0.625244	0.398926	0.275635	0.338302	-0.654883	-0.324192	-0.592941
62250		9.770216	-0.653451	-0.721074	-0.008050	-0.001941	-0.010739	-0.625732	0.389404	0.269043	0.338270	-0.655012	-0.324090	-0.592873
62251		9.787994	-0.662257	-0.624448	0.005470	-0.003348	-0.014493	-0.629639	0.393799	0.271240	0.338262	-0.655065	-0.324099	-0.592814
62252		9.744328	-0.654550	-0.682093	0.020910	0.006533	-0.021133	-0.633057	0.392334	0.281738	0.338386	-0.654952	-0.324245	-0.592789
62253		9.718987	-0.643338	-0.657702	0.018287	0.001416	-0.019503	-0.634521	0.392090	0.274902	0.338422	-0.654930	-0.324314	-0.592755
62254		9.761679	-0.670650	-0.626135	0.016387	-0.003829	-0.020998	-0.624756	0.390625	0.273682	0.338424	-0.654925	-0.324431	-0.592695
62255		9.767620	-0.625810	-0.725938	0.011309	0.004342	-0.022043	-0.637939	0.395508	0.272949	0.338437	-0.654882	-0.324498	-0.592699
62256		9.792526	-0.674488	-0.611336	0.014097	0.009947	-0.016543	-0.634521	0.392578	0.270264	0.338531	-0.654789	-0.324529	-0.592730
62257		9.748317	-0.589152	-0.665856	0.012613	0.005159	-0.011966	-0.630859	0.389160	0.274658	0.338625	-0.654755	-0.324530	-0.592713
62258		9.767376	-0.661492	-0.585452	0.005213	-0.000428	-0.014732	-0.639404	0.388184	0.269531	0.338584	-0.654805	-0.324485	-0.592706
62259		9.724871	-0.616181	-0.727904	0.012180	-0.003256	-0.018390	-0.629883	0.388184	0.274902	0.338539	-0.654809	-0.324536	-0.592699
62260		9.773431	-0.613198	-0.686444	0.013303	-0.002831	-0.021652	-0.634766	0.394043	0.263916	0.338498	-0.654817	-0.324613	-0.592672
62261		9.778926	-0.609400	-0.556985	0.004709	-0.004175	-0.022145	-0.625732	0.391357	0.275635	0.338448	-0.654819	-0.324722	-0.592639
62262		9.792273	-0.590868	-0.657661	0.025597	0.002916	-0.024404	-0.633789	0.394775	0.271240	0.338552	-0.654722	-0.324915	-0.592581
62263		9.751538	-0.618173	-0.705355	0.007790	0.007563	-0.017643	-0.628906	0.392334	0.274658	0.338593	-0.654668	-0.324930	-0.592609
62264		9.735457	-0.606472	-0.596589	-0.007489	0.001277	-0.017657	-0.629639	0.385498	0.271484	0.338470	-0.654744	-0.324835	-0.592647
62265		9.792715	-0.692320	-0.631635	0.006992	-0.004324	-0.022593	-0.631592	0.395508	0.275391	0.338356	-0.654778	-0.324879	-0.592650
62266		9.761301	-0.601058	-0.708345	0.013891	-0.000555	-0.022490	-0.633789	0.388428	0.270996	0.338383	-0.654753	-0.325005	-0.592594
62267		9.753430	-0.593090	-0.640193	0.013577	-0.003878	-0.016590	-0.629883	0.385986	0.274414	0.338382	-0.654771	-0.325064	-0.592542
62268		9.783246	-0.616535	-0.612681	-0.007420	-0.005345	-0.021384	-0.639160	0.384766	0.272217	0.338151	-0.654887	-0.324986	-0.592589
62269		9.795837	-0.620881	-0.675016	0.003447	0.003830	-0.020997	-0.636230	0.386230	0.275635	0.338013	-0.654876	-0.324936	-0.592706
62270		9.752447	-0.613253	-0.702693	0.007145	0.006230	-0.022790	-0.632080	0.393799	0.272949	0.337916	-0.654838	-0.324916	-0.592815
62271		9.763000	-0.585294	-0.626780	-0.003712	-0.001032	-0.018428	-0.633789	0.391602	0.266846	0.337823	-0.654899	-0.324885	-0.592817
62272		9.817689	-0.636687	-0.641876	0.002331	-0.004553	-0.018073	-0.634033	0.392578	0.270508	0.337770	-0.654940	-0.324930	-0.592778
62273		9.765412	-0.625555	-0.690690	0.029492	-0.001065	-0.014803	-0.636230	0.386475	0.280762	0.337971	-0.654865	-0.325121	-0.592641
62274		9.753756	-0.598183	-0.644919	0.015519	-0.004425	-0.012449	-0.627686	0.382324	0.272705	0.337958	-0.654932	-0.325096	-0.592589
62275		9.737126	-0.586120	-0.596491	0.010297	-0.002603	-0.017986	-0.629395	0.395264	0.272949	0.337896	-0.654964	-0.325105	-0.592583
62276		9.779144	-0.610327	-0.711717	0.001112	-0.002250	-0.020537	-0.641602	0.389404	0.274902	0.337846	-0.655006	-0.325147	-0.592543
62277		9.788218	-0.618138	-0.640460	-0.001776	0.001602	-0.023577	-0.629395	0.388672	0.274658	0.337662	-0.655023	-0.325106	-0.592651
62278		9.762681	-0.598165	-0.669280	0.002933	-0.001168	-0.020541	-0.637939	0.381836	0.273438	0.337572	-0.655063	-0.325107	-0.592658
62279		9.778168	-0.653207	-0.677176	0.002151	-0.001181	-0.021855	-0.639404	0.386230	0.267822	0.337381	-0.655096	-0.325062	-0.592754
62280		9.773622	-0.663857	-0.673642	0.009808	0.004626	-0.021897	-0.631348	0.389648	0.269775	0.337337	-0.655023	-0.325116	-0.592831
62281		9.732901	-0.583928	-0.693728	0.012116	0.003607	-0.022510	-0.635254	0.386719	0.272949	0.337355	-0.654955	-0.325220	-0.592838
62282		9.740488	-0.627990	-0.655109	0.001434	-0.001049	-0.018736	-0.633301	0.389893	0.279541	0.337240	-0.654998	-0.325186	-0.592876
62283		9.806079	-0.624799	-0.685026	0.007110	-0.000884	-0.022914	-0.631348	0.387451	0.276611	0.337145	-0.655024	-0.325208	-0.592888
62284		9.758444	-0.619551	-0.668657	0.022574	-0.002773	-0.022486	-0.633301	0.400146	0.278076	0.337175	-0.654993	-0.325358	-0.592823
62285		9.750404	-0.595251	-0.704244	0.017426	-0.000879	-0.017408	-0.643555	0.387207	0.271484	0.337299	-0.654980	-0.325487	-0.592695
62286		9.759366	-0.595829	-0.685053	0.001700	-0.002010	-0.019903	-0.638672	0.395264	0.274414	0.337156	-0.655009	-0.325470	-0.592755
62287		9.780405	-0.620595	-0.710769	0.007311	0.008941	-0.018870	-0.633301	0.387695	0.284180	0.337185	-0.654945	-0.325482	-0.592803
62288		9.738919	-0.564036	-0.691843	0.022339	0.002327	-0.019777	-0.634277	0.388916	0.271729	0.337213	-0.654919	-0.325535	-0.592786
62289		9.752855	-0.541025	-0.697904	0.020834	-0.002604	-0.019629	-0.637939	0.388916	0.274414	0.337276	-0.654879	-0.325687	-0.592710
62290		9.778640	-0.572409	-0.630697	-0.000996	-0.002422	-0.025450	-0.636475	0.384521	0.281494	0.337091	-0.654916	-0.325699	-0.592769
62291		9.752671	-0.551167	-0.717879	0.002450	0.005097	-0.024560	-0.642822	0.386475	0.272705	0.336907	-0.654924	-0.325625	-0.592905
62292		9.748018	-0.561355	-0.743242	0.000122	0.001879	-0.019254	-0.637695	0.390625	0.269043	0.336771	-0.654938	-0.325572	-0.592996
62293		9.786739	-0.612601	-0.626454	-0.015997	0.004059	-0.012182	-0.639404	0.387695	0.282715	0.336638	-0.655015	-0.325395	-0.593084
62294		9.774605	-0.576060	-0.661569	-0.004596	-0.001609	-0.016132	-0.626709	0.384277	0.270996	0.336444	-0.655136	-0.325237	-0.593147
62295		9.746338	-0.645447	-0.682041	0.014441	0.000508	-0.015415	-0.633789	0.391113	0.278320	0.336506	-0.655120	-0.325297	-0.593096
62296		9.739198	-0.593321	-0.690784	0.007488	0.000470	-0.016670	-0.633057	0.391602	0.280273	0.336488	-0.655153	-0.325286	-0.593076
62297		9.796382	-0.593661	-0.658184	-0.002929	0.003080	-0.021701	-0.635010	0.394531	0.273926	0.336354	-0.655200	-0.325218	-0.593137
62298		9.770152	-0.604083	-0.653585	0.008338	0.007993	-0.018692	-0.640137	0.380127	0.273193	0.336408	-0.655139	-0.325253	-0.593155
62299		9.752496	-0.619456	-0.658319	0.013122	0.006589	-0.019029	-0.635010	0.396973	0.282471	0.336362	-0.655071	-0.325245	-0.593260
62300		9.791520	-0.639066	-0.660912	0.007357	0.002063	-0.020754	-0.630615	0.379150	0.275146	0.336339	-0.655092	-0.325259	-0.593242
62301		9.771577	-0.568100	-0.688779	0.015349	0.000071	-0.017743	-0.631592	0.387939	0.272705	0.336314	-0.655087	-0.325282	-0.593250
62302		9.771730	-0.579289	-0.642801	0.012535	0.003179	-0.016528	-0.633545	0.392822	0.276367	0.336367	-0.655057	-0.325327	-0.593229
62303		9.759680	-0.550018	-0.625150	0.002965	0.004011	-0.020549	-0.638184	0.388428	0.277344	0.336324	-0.655057	-0.325325	-0.593253
62304		9.741318	-0.571068	-0.725118	0.009100	0.004923	-0.020444	-0.637451	0.394287	0.268311	0.336280	-0.655029	-0.325326	-0.593309
62305		9.788420	-0.624433	-0.705468	-0.005294	0.003822	-0.019301	-0.631104	0.394775	0.279053	0.336223	-0.655026	-0.325319	-0.593349
62306		9.785817	-0.570631	-0.670775	-0.006762	0.009241	-0.017651	-0.637451	0.393066	0.272949	0.336158	-0.655053	-0.325197	-0.593422
62307		9.777025	-0.575785	-0.702075	0.009781	0.001439	-0.018690	-0.632324	0.387451	0.272949	0.336186	-0.655030	-0.325267	-0.593394
62308		9.750877	-0.595088	-0.645926	0.002128	0.005721	-0.015384	-0.631348	0.382812	0.273682	0.336168	-0.655029	-0.325212	-0.593435
62309		9.734206	-0.559019	-0.693258	-0.001480	0.002663	-0.021666	-0.631592	0.391357	0.276611	0.336023	-0.655050	-0.325163	-0.593521
62310		9.768618	-0.593572	-0.693401	0.003354	0.001486	-0.023754	-0.626953	0.391113	0.277100	0.335954	-0.655057	-0.325202	-0.593532
62311		9.786436	-0.590325	-0.677453	0.001352	-0.003555	-0.019798	-0.630615	0.394775	0.267578	0.335893	-0.655131	-0.325220	-0.593474
62312		9.777764	-0.618906	-0.583315	-0.004601	0.004491	-0.016055	-0.638672	0.379639	0.275635	0.335910	-0.655132	-0.325215	-0.593465
62313		9.769659	-0.580404	-0.662863	0.020868	0.005772	-0.016534	-0.627441	0.389404	0.275879	0.335936	-0.655063	-0.325233	-0.593518
62314		9.766479	-0.527049	-0.686889	0.013465	0.003819	-0.014284	-0.637207	0.389160	0.270996	0.336037	-0.655048	-0.325264	-0.593459
62315		9.744771	-0.530740	-0.691483	0.003894	0.010766	-0.012136	-0.637695	0.383301	0.279785	0.336086	-0.655001	-0.325192	-0.593523
62316		9.762892	-0.507568	-0.684097	0.004555	-0.005248	-0.014834	-0.645752	0.396484	0.272461	0.335959	-0.655106	-0.325115	-0.593522
62317		9.771392	-0.530625	-0.655840	-0.006313	-0.000403	-0.014882	-0.640381	0.399414	0.270996	0.335879	-0.655165	-0.325056	-0.593534
62318		9.757367	-0.574082	-0.705144	-0.000374	0.000797	-0.015503	-0.625977	0.391602	0.275146	0.335905	-0.655181	-0.325082	-0.593488
62319		9.778963	-0.599591	-0.701617	-0.005424	0.005329	-0.017202	-0.630615	0.397217	0.271973	0.335868	-0.655216	-0.325018	-0.593505
62320		9.752830	-0.611493	-0.696774	-0.000757	0.008586	-0.012392	-0.635498	0.376953	0.272705	0.335966	-0.655200	-0.324986	-0.593484
62321		9.757744	-0.592652	-0.698531	0.013683	0.001560	-0.012080	-0.627686	0.382812	0.278320	0.335944	-0.655206	-0.324933	-0.593520
62322		9.775234	-0.614134	-0.643005	0.018869	0.000742	-0.012553	-0.634033	0.391113	0.274658	0.336021	-0.655215	-0.324948	-0.593457
62323		9.784872	-0.579057	-0.619197	0.018343	0.002859	-0.018092	-0.630127	0.381104	0.271729	0.336126	-0.655157	-0.325061	-0.593400
62324		9.766821	-0.609232	-0.696118	0.029220	0.006377	-0.015070	-0.630859	0.388184	0.277588	0.336293	-0.655043	-0.325174	-0.593370
62325		9.732540	-0.573506	-0.730170	0.020042	0.001324	-0.011368	-0.632812	0.395508	0.267822	0.336425	-0.655038	-0.325214	-0.593279
62326		9.768226	-0.561170	-0.625626	0.009305	0.000396	-0.008820	-0.629639	0.386719	0.266846	0.336585	-0.655040	-0.325267	-0.593156
62327		9.790110	-0.558065	-0.655277	0.025247	-0.004560	-0.019586	-0.634766	0.394775	0.269287	0.336711	-0.654979	-0.325497	-0.593026
62328		9.751244	-0.521781	-0.732699	0.021017	0.004382	-0.020261	-0.636475	0.387207	0.273438	0.336876	-0.654862	-0.325694	-0.592954
62329		9.764367	-0.550888	-0.667174	0.002594	0.000252	-0.011113	-0.634277	0.406006	0.273682	0.336841	-0.654920	-0.325610	-0.592955
62330		9.755451	-0.565954	-0.677206	0.001321	-0.001862	-0.007167	-0.635986	0.388672	0.270752	0.337008	-0.654986	-0.325637	-0.592772
62331		9.772168	-0.623586	-0.684156	0.015955	0.001421	-0.012490	-0.649170	0.380615	0.270020	0.337101	-0.654961	-0.325685	-0.592722
62332		9.772913	-0.598836	-0.634592	0.006579	0.001922	-0.015797	-0.631836	0.390625	0.265381	0.336953	-0.654963	-0.325594	-0.592853
62333		9.798462	-0.652059	-0.673352	0.008540	0.003647	-0.014925	-0.637207	0.389893	0.277588	0.337039	-0.654918	-0.325657	-0.592820
62334		9.763747	-0.630613	-0.750095	0.008995	0.004419	-0.010689	-0.633301	0.385742	0.273438	0.337079	-0.654933	-0.325590	-0.592817
62335		9.751444	-0.618890	-0.628338	0.010990	0.004159	-0.008362	-0.642334	0.392334	0.280273	0.337143	-0.654944	-0.325522	-0.592805
62336		9.778383	-0.586423	-0.588420	0.012933	0.000601	-0.013481	-0.634766	0.387695	0.273438	0.337166	-0.654965	-0.325512	-0.592775
62337		9.786919	-0.587208	-0.685870	0.028451	-0.000949	-0.014710	-0.635010	0.393066	0.269531	0.337316	-0.654910	-0.325656	-0.592671
62338		9.734952	-0.534685	-0.783029	0.009757	-0.000846	-0.015357	-0.631592	0.391113	0.273193	0.337376	-0.654905	-0.325729	-0.592603
62339		9.734836	-0.590480	-0.660215	-0.011470	-0.003858	-0.009731	-0.632568	0.382324	0.272705	0.337271	-0.655056	-0.325582	-0.592576
62340		9.795808	-0.633925	-0.596362	-0.004514	-0.001579	-0.011651	-0.628174	0.390137	0.271729	0.337128	-0.655165	-0.325427	-0.592622
62341		9.774390	-0.579606	-0.696209	0.026819	0.006056	-0.011038	-0.622314	0.386475	0.278564	0.337382	-0.655071	-0.325545	-0.592517
62342		9.735034	-0.582855	-0.746996	0.016639	0.001032	-0.007643	-0.630859	0.385742	0.277832	0.337513	-0.655112	-0.325520	-0.592410
62343		9.739412	-0.609714	-0.672639	0.001549	-0.005222	-0.003362	-0.636475	0.379639	0.270996	0.337482	-0.655275	-0.325353	-0.592340
62344		9.800337	-0.654103	-0.609079	0.010608	-0.004788	-0.011121	-0.635742	0.395752	0.275146	0.337411	-0.655341	-0.325297	-0.592338
62345		9.743611	-0.625080	-0.710362	0.033410	-0.003708	-0.018775	-0.638916	0.394287	0.276855	0.337619	-0.655262	-0.325564	-0.592160
62346		9.739416	-0.622933	-0.695582	0.033489	-0.012966	-0.015698	-0.640137	0.390625	0.267334	0.337774	-0.655272	-0.325816	-0.591921
62347		9.774410	-0.615638	-0.689279	0.049836	-0.019566	-0.017177	-0.631592	0.389160	0.273682	0.338025	-0.655220	-0.326258	-0.591593
62348		9.770309	-0.619923	-0.624755	0.067802	-0.019361	-0.027381	-0.636475	0.398926	0.274414	0.338339	-0.655085	-0.326880	-0.591219
62349		9.765405	-0.622716	-0.736188	0.062035	-0.021993	-0.030508	-0.636963	0.387451	0.279541	0.338640	-0.654965	-0.327550	-0.590809
62350		9.752691	-0.591839	-0.723526	0.039584	-0.014154	-0.026227	-0.633789	0.391846	0.279785	0.338680	-0.654944	-0.327863	-0.590636
62351		9.757434	-0.577433	-0.706012	0.028722	-0.006038	-0.025057	-0.633057	0.393555	0.269531	0.338728	-0.654909	-0.328089	-0.590521
62352		9.766245	-0.604847	-0.739927	0.042320	0.016574	-0.031560	-0.632080	0.389404	0.273193	0.338999	-0.654574	-0.328455	-0.590534
62353		9.754909	-0.636870	-0.568218	0.059055	0.048065	-0.039531	-0.633789	0.393311	0.269531	0.339423	-0.653930	-0.328820	-0.590801
62354		9.825400	-0.634758	-0.669842	0.074550	0.019619	-0.042354	-0.636963	0.382324	0.273193	0.339879	-0.653399	-0.329485	-0.590755
62355		9.768895	-0.588755	-0.812933	0.063769	0.000097	-0.030849	-0.639404	0.395752	0.274902	0.340110	-0.653144	-0.329941	-0.590649
62356		9.769918	-0.588383	-0.699559	0.029350	0.015843	-0.030262	-0.628418	0.386475	0.267578	0.340238	-0.652908	-0.330148	-0.590721
62357		9.775470	-0.571873	-0.586479	0.024603	0.028211	-0.027722	-0.638672	0.392578	0.269531	0.340392	-0.652600	-0.330253	-0.590914
62358		9.771565	-0.604527	-0.654818	0.038778	0.017781	-0.025693	-0.641602	0.389648	0.267578	0.340636	-0.652313	-0.330495	-0.590955
62359		9.776382	-0.604967	-0.703681	0.043467	0.002964	-0.029316	-0.644531	0.403076	0.272949	0.340796	-0.652098	-0.330847	-0.590903
62360		9.794301	-0.549137	-0.728865	0.025915	0.005613	-0.030406	-0.637451	0.396484	0.270020	0.340902	-0.651936	-0.331114	-0.590870
62361		9.777510	-0.561794	-0.674406	0.007839	0.009301	-0.029344	-0.637451	0.389404	0.260010	0.340869	-0.651831	-0.331214	-0.590950
62362		9.778134	-0.598685	-0.652192	0.010511	0.006524	-0.025093	-0.631836	0.392334	0.266846	0.340859	-0.651718	-0.331328	-0.591017
62363		9.778623	-0.607090	-0.663610	0.019414	0.003008	-0.028780	-0.629150	0.390869	0.267334	0.340902	-0.651608	-0.331541	-0.590994
62364		9.779068	-0.593078	-0.685459	0.021973	0.002992	-0.031942	-0.635742	0.393555	0.266602	0.340940	-0.651480	-0.331792	-0.590972
62365		9.770842	-0.566022	-0.661893	0.021235	0.003105	-0.034974	-0.639160	0.387451	0.261963	0.340951	-0.651331	-0.332072	-0.590973
62366		9.771448	-0.580030	-0.680127	0.016725	0.002427	-0.034254	-0.640869	0.389893	0.268311	0.340873	-0.651199	-0.332291	-0.591040
62367		9.767668	-0.588508	-0.704949	0.015417	0.003402	-0.033387	-0.634521	0.386963	0.267090	0.340788	-0.651091	-0.332467	-0.591109
62368		9.768024	-0.543432	-0.672205	0.010417	0.001698	-0.035126	-0.642578	0.390381	0.258545	0.340650	-0.651014	-0.332628	-0.591183
62369		9.790508	-0.549101	-0.654946	0.011575	0.003378	-0.035554	-0.638428	0.389160	0.273926	0.340564	-0.650868	-0.332860	-0.591263
62370		9.756392	-0.582386	-0.666325	0.013138	0.002421	-0.031326	-0.635254	0.386963	0.281250	0.340460	-0.650813	-0.332976	-0.591318
62371		9.778478	-0.553883	-0.675597	0.016401	0.003294	-0.025227	-0.636719	0.393555	0.270996	0.340392	-0.650802	-0.333008	-0.591351
62372		9.782692	-0.488012	-0.669171	0.010047	0.003461	-0.025987	-0.632324	0.390869	0.275879	0.340372	-0.650755	-0.333108	-0.591357
62373		9.752001	-0.433895	-0.678989	0.005677	0.002236	-0.028888	-0.638672	0.384521	0.273193	0.340264	-0.650752	-0.333166	-0.591390
62374		9.792117	-0.463715	-0.664452	0.002365	0.004484	-0.031958	-0.630859	0.396729	0.267090	0.340043	-0.650728	-0.333179	-0.591536
62375		9.775257	-0.477555	-0.699113	-0.006440	0.001806	-0.028230	-0.635742	0.387695	0.268799	0.339944	-0.650735	-0.333245	-0.591549
62376		9.780140	-0.483649	-0.698657	-0.009490	0.000778	-0.027512	-0.640869	0.386719	0.268066	0.339714	-0.650782	-0.333211	-0.591649
62377		9.780781	-0.498265	-0.688483	-0.017685	0.000710	-0.028137	-0.642334	0.385498	0.275391	0.339387	-0.650856	-0.333112	-0.591810
62378		9.790169	-0.509410	-0.652180	-0.018030	0.002563	-0.026846	-0.636719	0.379395	0.267578	0.339032	-0.650954	-0.332941	-0.592002
62379		9.764883	-0.540990	-0.667516	-0.008671	0.001003	-0.027913	-0.641846	0.394043	0.267090	0.338745	-0.650996	-0.332879	-0.592155
62380		9.756282	-0.514956	-0.674035	0.003527	0.001787	-0.032012	-0.637207	0.385254	0.271729	0.338647	-0.650936	-0.333027	-0.592193
62381		9.808488	-0.467532	-0.703425	0.000998	0.003022	-0.032174	-0.641113	0.391357	0.266357	0.338457	-0.650912	-0.333080	-0.592299
62382		9.783204	-0.490791	-0.682740	-0.013918	0.002645	-0.027360	-0.636475	0.389893	0.264648	0.338245	-0.650939	-0.333051	-0.592407
62383		9.766221	-0.490293	-0.675336	-0.016639	0.005318	-0.023789	-0.638672	0.385498	0.273926	0.338066	-0.650967	-0.332976	-0.592519
62384		9.757477	-0.465937	-0.651934	-0.006863	0.003406	-0.017362	-0.636475	0.381836	0.269775	0.337922	-0.651040	-0.332845	-0.592596
62385		9.774559	-0.426817	-0.661280	-0.006431	0.005330	-0.014779	-0.639893	0.387939	0.270996	0.337803	-0.651096	-0.332694	-0.592687
62386		9.792563	-0.440167	-0.714957	-0.014477	0.007070	-0.010089	-0.635986	0.382080	0.272705	0.337698	-0.651185	-0.332464	-0.592778
62387		9.780497	-0.477427	-0.666838	-0.008783	0.009633	-0.012948	-0.638184	0.385742	0.276611	0.337586	-0.651237	-0.332251	-0.592904
62388		9.793544	-0.454375	-0.642096	-0.001708	0.009264	-0.015200	-0.633301	0.385010	0.272217	0.337523	-0.651262	-0.332107	-0.592993
62389		9.768384	-0.489533	-0.655899	-0.007404	0.006695	-0.012336	-0.644043	0.387939	0.271729	0.337456	-0.651327	-0.331940	-0.593053
62390		9.769403	-0.522850	-0.686629	-0.006136	0.004354	-0.015907	-0.640869	0.379883	0.278564	0.337346	-0.651377	-0.331821	-0.593128
62391		9.734695	-0.515975	-0.659515	0.009560	0.004826	-0.019401	-0.637695	0.382324	0.269775	0.337256	-0.651383	-0.331764	-0.593204
62392		9.796348	-0.518414	-0.648149	0.023414	0.005067	-0.022754	-0.644531	0.377686	0.273926	0.337327	-0.651277	-0.331909	-0.593199
62393		9.783086	-0.489709	-0.659826	0.032628	0.006344	-0.017362	-0.638672	0.386475	0.266846	0.337432	-0.651165	-0.332007	-0.593208
62394		9.782758	-0.457201	-0.661629	0.023272	0.006794	-0.014691	-0.634521	0.382324	0.267822	0.337611	-0.651063	-0.332115	-0.593157
62395		9.769882	-0.452291	-0.692736	0.014919	0.003753	-0.011274	-0.643555	0.382080	0.264404	0.337711	-0.651046	-0.332122	-0.593115
62396		9.774215	-0.440634	-0.672203	0.013023	0.004411	-0.011004	-0.643555	0.385010	0.264404	0.337774	-0.651014	-0.332113	-0.593120
62397		9.782627	-0.413255	-0.684239	0.013392	0.006033	-0.012736	-0.636230	0.381104	0.265381	0.337858	-0.650957	-0.332129	-0.593125
62398		9.783174	-0.424157	-0.666236	0.003260	0.005219	-0.015831	-0.636230	0.385742	0.274658	0.337825	-0.650951	-0.332084	-0.593176
62399		9.776230	-0.488619	-0.630952	-0.008047	0.007226	-0.012779	-0.644775	0.385010	0.270264	0.337726	-0.651027	-0.331887	-0.593259
62400		9.777126	-0.515295	-0.625678	-0.003846	0.005554	-0.005828	-0.638428	0.391602	0.266846	0.337687	-0.651101	-0.331681	-0.593314
62401		9.763835	-0.496916	-0.644114	0.008507	0.005967	-0.007449	-0.639648	0.382080	0.271729	0.337835	-0.651094	-0.331650	-0.593256
62402		9.773097	-0.506453	-0.658700	0.008070	0.005091	-0.011611	-0.636963	0.388184	0.265381	0.337835	-0.651111	-0.331563	-0.593285
62403		9.777106	-0.480303	-0.654683	0.000712	0.004161	-0.011092	-0.643066	0.381348	0.275391	0.337866	-0.651134	-0.331502	-0.593276
62404		9.791522	-0.523692	-0.629221	0.008123	0.009943	-0.009347	-0.643555	0.385742	0.261230	0.337865	-0.651140	-0.331343	-0.593360
62405		9.761422	-0.527127	-0.682270	0.017516	0.007517	-0.002773	-0.635498	0.387695	0.273193	0.338080	-0.651082	-0.331325	-0.593311
62406		9.756291	-0.491213	-0.661586	0.012339	0.006014	-0.005248	-0.640381	0.384277	0.256104	0.338217	-0.651105	-0.331239	-0.593256
62407		9.777812	-0.467525	-0.669821	0.004260	0.008660	-0.008220	-0.635498	0.386963	0.271973	0.338307	-0.651053	-0.331188	-0.593289
62408		9.769692	-0.482871	-0.647778	0.002802	0.008992	-0.008235	-0.645264	0.387207	0.266357	0.338353	-0.651078	-0.331045	-0.593315
62409		9.805847	-0.519644	-0.644614	0.007653	0.009038	-0.005744	-0.641113	0.384277	0.265381	0.338443	-0.651062	-0.330935	-0.593343
62410		9.797138	-0.519903	-0.580984	0.000372	0.004954	-0.008224	-0.642334	0.389404	0.269043	0.338434	-0.651099	-0.330805	-0.593381
62411		9.732037	-0.532645	-0.534268	0.001199	0.003987	-0.013089	-0.634521	0.383545	0.271729	0.338412	-0.651129	-0.330727	-0.593404
62412		9.768566	-0.575548	-0.568263	0.008831	0.001518	-0.015860	-0.634277	0.388916	0.270752	0.338392	-0.651157	-0.330703	-0.593399
62413		9.786779	-0.588341	-0.593570	0.024903	-0.000765	-0.012942	-0.647705	0.386963	0.271484	0.338565	-0.651134	-0.330821	-0.593258
62414		9.772348	-0.525610	-0.634368	0.022093	-0.005371	-0.012781	-0.636475	0.385742	0.262451	0.338620	-0.651158	-0.330892	-0.593161
62415		9.775954	-0.491390	-0.626259	0.015828	-0.004932	-0.017008	-0.643799	0.384277	0.267090	0.338673	-0.651154	-0.331023	-0.593062
62416		9.763731	-0.513876	-0.626597	0.006502	-0.003265	-0.017694	-0.637695	0.385010	0.272705	0.338585	-0.651193	-0.331030	-0.593065
62417		9.781661	-0.518318	-0.647046	0.009212	-0.007169	-0.017911	-0.641357	0.387451	0.269287	0.338508	-0.651277	-0.331055	-0.593004
62418		9.799090	-0.501448	-0.707654	0.014748	-0.008739	-0.021130	-0.640137	0.383301	0.270020	0.338467	-0.651314	-0.331184	-0.592914
62419		9.733313	-0.483251	-0.696440	0.007887	-0.002879	-0.023550	-0.637207	0.383301	0.269043	0.338346	-0.651335	-0.331234	-0.592933
62420		9.790718	-0.492718	-0.677546	-0.004763	-0.007038	-0.024788	-0.635010	0.386719	0.263672	0.338114	-0.651431	-0.331231	-0.592960
62421		9.774951	-0.536938	-0.681366	-0.011320	-0.005474	-0.021857	-0.634033	0.387939	0.265381	0.337925	-0.651526	-0.331213	-0.592974
62422		9.766992	-0.549696	-0.691949	-0.002472	-0.003486	-0.019627	-0.641113	0.394775	0.272217	0.337841	-0.651583	-0.331233	-0.592948
62423		9.765504	-0.487456	-0.729694	0.005260	-0.001978	-0.020272	-0.642822	0.390869	0.267334	0.337816	-0.651614	-0.331288	-0.592898
62424		9.773576	-0.457873	-0.714344	-0.003798	-0.001296	-0.014354	-0.637451	0.386475	0.280762	0.337750	-0.651682	-0.331234	-0.592891
62425		9.773464	-0.447028	-0.708226	-0.016708	0.000366	-0.012211	-0.627441	0.382080	0.271973	0.337525	-0.651869	-0.330962	-0.592965
62426		9.761481	-0.476318	-0.654992	-0.012412	0.004804	-0.014067	-0.636475	0.390625	0.271484	0.337389	-0.651967	-0.330772	-0.593041
62427		9.774421	-0.461426	-0.667731	-0.011856	0.000429	-0.009721	-0.632080	0.391602	0.272949	0.337307	-0.652094	-0.330603	-0.593042
62428		9.784683	-0.499225	-0.679797	-0.018228	0.001575	-0.012084	-0.635254	0.388428	0.268555	0.337182	-0.652237	-0.330409	-0.593065
62429		9.768363	-0.524493	-0.692169	-0.019049	0.001331	-0.011655	-0.635742	0.382812	0.274170	0.337034	-0.652367	-0.330211	-0.593115
62430		9.768981	-0.535733	-0.675241	-0.000648	0.002670	-0.011339	-0.640137	0.384521	0.271240	0.336972	-0.652441	-0.330078	-0.593143
62431		9.786096	-0.518340	-0.645708	0.006351	0.000791	-0.014544	-0.633545	0.385742	0.270264	0.336945	-0.652470	-0.330049	-0.593143
62432		9.761466	-0.553621	-0.661241	0.005937	-0.001155	-0.017105	-0.639160	0.381836	0.274414	0.336929	-0.652501	-0.330073	-0.593105
62433		9.810430	-0.568504	-0.667206	0.016345	-0.000202	-0.016719	-0.635498	0.385254	0.276367	0.336932	-0.652502	-0.330108	-0.593082
62434		9.756084	-0.503969	-0.665062	0.028011	0.000667	-0.017029	-0.636230	0.384521	0.271973	0.337065	-0.652453	-0.330243	-0.592985
62435		9.780887	-0.454445	-0.672295	0.014326	-0.001261	-0.015716	-0.644043	0.382568	0.274414	0.337098	-0.652463	-0.330294	-0.592927
62436		9.760490	-0.488646	-0.675293	0.000318	-0.003421	-0.009976	-0.636230	0.383789	0.272461	0.336990	-0.652582	-0.330163	-0.592932
62437		9.756511	-0.494352	-0.666009	-0.000880	-0.001971	-0.014291	-0.631592	0.381104	0.269775	0.336898	-0.652669	-0.330086	-0.592930
62438		9.773922	-0.484069	-0.673398	0.006424	-0.004825	-0.018617	-0.632080	0.381592	0.266846	0.336832	-0.652722	-0.330123	-0.592889
62439		9.797338	-0.515793	-0.706303	0.004448	-0.005719	-0.019340	-0.638916	0.384766	0.275879	0.336758	-0.652772	-0.330177	-0.592846
62440		9.789063	-0.521186	-0.681283	-0.006187	-0.004172	-0.017604	-0.636963	0.386719	0.275146	0.336572	-0.652895	-0.330079	-0.592870
62441		9.746347	-0.540438	-0.672379	-0.006206	-0.005381	-0.014302	-0.633057	0.382324	0.278076	0.336435	-0.653036	-0.329980	-0.592849
62442		9.738245	-0.547423	-0.706059	0.003228	-0.005481	-0.020346	-0.636230	0.386475	0.266357	0.336298	-0.653130	-0.329968	-0.592828
62443		9.794957	-0.535721	-0.697645	0.005128	-0.006132	-0.020601	-0.635010	0.378418	0.266113	0.336249	-0.653161	-0.330067	-0.592767
62444		9.803794	-0.527574	-0.701714	0.001250	-0.000465	-0.020407	-0.641846	0.381836	0.276855	0.336137	-0.653175	-0.330075	-0.592811
62445		9.751790	-0.527663	-0.698563	0.004306	-0.000463	-0.019515	-0.639893	0.386719	0.273682	0.336006	-0.653221	-0.330035	-0.592857
62446		9.760945	-0.527642	-0.708255	0.009359	-0.000613	-0.016317	-0.641357	0.380127	0.274902	0.336002	-0.653240	-0.330059	-0.592825
62447		9.777206	-0.488510	-0.718723	0.011773	-0.000045	-0.015865	-0.630615	0.391602	0.267822	0.335961	-0.653259	-0.330049	-0.592833
62448		9.775916	-0.447995	-0.716077	0.006655	0.000989	-0.018923	-0.637695	0.382812	0.268555	0.336027	-0.653239	-0.330148	-0.592762
62449		9.764443	-0.477717	-0.721808	0.002869	-0.001202	-0.017937	-0.639404	0.380615	0.280273	0.335959	-0.653265	-0.330157	-0.592767
62450		9.761201	-0.495627	-0.695695	0.002298	-0.002766	-0.022917	-0.635986	0.377686	0.269775	0.335763	-0.653339	-0.330119	-0.592818
62451		9.788612	-0.510143	-0.731182	0.006594	0.000640	-0.023187	-0.638672	0.379150	0.283936	0.335660	-0.653324	-0.330164	-0.592867
62452		9.767698	-0.519638	-0.714300	0.005951	0.001200	-0.023622	-0.631592	0.379639	0.270020	0.335482	-0.653368	-0.330113	-0.592948
62453		9.776191	-0.503174	-0.681571	0.006008	0.001541	-0.019342	-0.635742	0.382568	0.274414	0.335444	-0.653364	-0.330140	-0.592959
62454		9.767570	-0.494930	-0.701163	0.007087	-0.001786	-0.020289	-0.640381	0.387451	0.272461	0.335376	-0.653392	-0.330172	-0.592948
62455		9.758945	-0.486419	-0.720920	0.006994	0.000147	-0.021731	-0.638672	0.388428	0.267822	0.335335	-0.653384	-0.330237	-0.592944
62456		9.776094	-0.467008	-0.720935	0.008024	0.001345	-0.024719	-0.644531	0.385742	0.289307	0.335324	-0.653328	-0.330370	-0.592938
62457		9.793217	-0.447709	-0.720960	0.001177	0.000373	-0.020219	-0.636230	0.390137	0.278320	0.335135	-0.653426	-0.330251	-0.593004
62458		9.773273	-0.479244	-0.693960	-0.010135	0.001053	-0.021628	-0.637207	0.386719	0.274658	0.334967	-0.653509	-0.330166	-0.593053
62459		9.744848	-0.514491	-0.693148	-0.008984	-0.000729	-0.021591	-0.637451	0.382324	0.276123	0.334795	-0.653585	-0.330108	-0.593100
62460		9.785229	-0.523661	-0.718865	0.000878	0.000106	-0.023481	-0.634033	0.385742	0.273193	0.334655	-0.653615	-0.330108	-0.593147
62461		9.783320	-0.473639	-0.680616	0.000704	0.001734	-0.021502	-0.630371	0.386719	0.278809	0.334589	-0.653626	-0.330125	-0.593161
62462		9.757140	-0.464352	-0.686999	-0.001786	0.000847	-0.018527	-0.634521	0.381104	0.281494	0.334517	-0.653692	-0.330080	-0.593154
62463		9.769836	-0.447279	-0.670677	-0.002095	0.001823	-0.017399	-0.634277	0.382812	0.279785	0.334388	-0.653770	-0.329971	-0.593202
62464		9.771944	-0.480067	-0.702238	-0.005631	-0.000466	-0.017410	-0.640381	0.380127	0.282227	0.334243	-0.653870	-0.329866	-0.593232
62465		9.767610	-0.471138	-0.738056	-0.004614	0.001977	-0.016000	-0.638672	0.378662	0.278809	0.334074	-0.653962	-0.329711	-0.593312
62466		9.776734	-0.469999	-0.718179	-0.005180	0.000400	-0.020963	-0.633301	0.386719	0.280029	0.333872	-0.654034	-0.329619	-0.593398
62467		9.794047	-0.457877	-0.695516	-0.007295	0.000079	-0.018134	-0.639160	0.376953	0.280273	0.333743	-0.654131	-0.329525	-0.593416
62468		9.769994	-0.492391	-0.681553	-0.000434	0.001263	-0.016649	-0.638916	0.380859	0.280029	0.333599	-0.654199	-0.329417	-0.593481
62469		9.767156	-0.512655	-0.713329	0.008266	0.000264	-0.016401	-0.637207	0.375977	0.279297	0.333554	-0.654235	-0.329394	-0.593480
62470		9.757381	-0.483499	-0.743115	0.014765	-0.000364	-0.019162	-0.641602	0.370850	0.280029	0.333517	-0.654237	-0.329434	-0.593475
62471		9.777511	-0.441240	-0.740375	0.014904	0.001478	-0.021589	-0.638916	0.378418	0.279541	0.333420	-0.654218	-0.329458	-0.593538
62472		9.791315	-0.445200	-0.713520	0.007626	0.002003	-0.020107	-0.634521	0.384277	0.273682	0.333337	-0.654228	-0.329449	-0.593579
62473		9.781055	-0.488780	-0.701922	0.001778	0.003255	-0.020181	-0.642578	0.389404	0.269775	0.333295	-0.654226	-0.329458	-0.593600
62474		9.769442	-0.505088	-0.752966	0.009695	0.000978	-0.017934	-0.645508	0.382568	0.270752	0.333347	-0.654192	-0.329550	-0.593556
62475		9.760270	-0.489541	-0.736544	0.011864	0.001651	-0.016493	-0.638916	0.377686	0.280518	0.333373	-0.654156	-0.329609	-0.593549
62476		9.772632	-0.465729	-0.742383	0.002754	0.006732	-0.020339	-0.637207	0.386475	0.275391	0.333260	-0.654155	-0.329537	-0.593654
62477		9.791080	-0.474435	-0.678614	-0.000068	0.005423	-0.018934	-0.642090	0.377441	0.275391	0.333216	-0.654156	-0.329506	-0.593694
62478		9.775088	-0.491790	-0.683447	0.005261	0.004201	-0.015166	-0.634521	0.380127	0.283447	0.333167	-0.654159	-0.329451	-0.593749
62479		9.793370	-0.496514	-0.701342	0.008991	0.006261	-0.014433	-0.631592	0.380859	0.274170	0.333165	-0.654175	-0.329375	-0.593775
62480		9.757993	-0.479296	-0.748689	0.010334	0.009132	-0.011466	-0.639648	0.381348	0.283447	0.333271	-0.654134	-0.329344	-0.593778
62481		9.774092	-0.447408	-0.734387	0.004878	0.006065	-0.013907	-0.642334	0.379395	0.270752	0.333225	-0.654168	-0.329229	-0.593830
62482		9.786559	-0.430468	-0.687706	0.004374	0.004837	-0.014606	-0.638672	0.379150	0.275146	0.333211	-0.654150	-0.329199	-0.593874
62483		9.762809	-0.465752	-0.672063	0.008239	0.008739	-0.016300	-0.640137	0.376709	0.279785	0.333221	-0.654103	-0.329170	-0.593937
62484		9.784436	-0.453472	-0.664038	0.016818	0.003482	-0.014712	-0.637451	0.385742	0.278809	0.333246	-0.654087	-0.329169	-0.593940
62485		9.758477	-0.447166	-0.728614	0.014831	0.001158	-0.018108	-0.641602	0.379883	0.263916	0.333286	-0.654079	-0.329230	-0.593893
62486		9.786906	-0.475893	-0.717044	0.011356	0.004026	-0.019314	-0.640137	0.382568	0.277832	0.333333	-0.653988	-0.329344	-0.593904
62487		9.788288	-0.492418	-0.676356	0.012982	0.003335	-0.016871	-0.635986	0.376465	0.276123	0.333354	-0.653971	-0.329364	-0.593900
62488		9.779039	-0.476939	-0.659648	0.021998	0.001380	-0.017715	-0.638428	0.378662	0.268799	0.333422	-0.653924	-0.329465	-0.593857
62489		9.753238	-0.476937	-0.672199	0.024604	0.000559	-0.013271	-0.636230	0.380859	0.274170	0.333584	-0.653854	-0.329606	-0.593764
62490		9.760710	-0.448879	-0.685442	0.022402	0.000902	-0.016272	-0.634766	0.387939	0.273926	0.333697	-0.653806	-0.329725	-0.593688
62491		9.782856	-0.444775	-0.714205	0.015808	0.001001	-0.016076	-0.637695	0.381104	0.271973	0.333805	-0.653782	-0.329819	-0.593601
62492		9.792096	-0.445126	-0.723372	0.012308	0.001281	-0.016691	-0.639648	0.384277	0.282471	0.333839	-0.653761	-0.329877	-0.593573
62493		9.802160	-0.459712	-0.715602	0.003826	0.003424	-0.013579	-0.638672	0.381348	0.271729	0.333793	-0.653819	-0.329772	-0.593594
62494		9.751870	-0.490603	-0.678145	-0.003211	0.003846	-0.013117	-0.636719	0.379150	0.277100	0.333737	-0.653856	-0.329676	-0.593637
62495		9.745998	-0.527792	-0.705541	0.006863	0.002052	-0.015354	-0.635986	0.384521	0.277344	0.333705	-0.653882	-0.329639	-0.593648
62496		9.779160	-0.488861	-0.728387	0.017569	0.003319	-0.019315	-0.632324	0.373047	0.278564	0.333770	-0.653837	-0.329726	-0.593612
62497		9.786159	-0.452469	-0.734859	0.008419	0.003429	-0.016049	-0.638672	0.380615	0.278320	0.333723	-0.653854	-0.329677	-0.593647
62498		9.779201	-0.473647	-0.719962	0.007010	0.005287	-0.015101	-0.638428	0.373779	0.277832	0.333702	-0.653861	-0.329619	-0.593683
62499		9.783654	-0.468498	-0.705336	0.006912	0.007453	-0.010601	-0.639648	0.376953	0.272461	0.333688	-0.653870	-0.329496	-0.593750
62500		9.757403	-0.462290	-0.710422	0.008856	0.005790	-0.009276	-0.636719	0.380371	0.275391	0.333735	-0.653862	-0.329431	-0.593768
62501		9.769203	-0.433605	-0.738938	0.006897	0.006035	-0.013266	-0.639404	0.384766	0.279053	0.333751	-0.653859	-0.329375	-0.593793
62502		9.783226	-0.439528	-0.740348	0.002492	0.005541	-0.016011	-0.638672	0.378662	0.277832	0.333702	-0.653883	-0.329294	-0.593840
62503		9.767401	-0.461693	-0.663359	-0.003820	0.005676	-0.018511	-0.640381	0.383545	0.271729	0.333559	-0.653916	-0.329178	-0.593948
62504		9.779171	-0.497933	-0.673837	0.000734	0.004385	-0.016017	-0.635986	0.382812	0.276611	0.333524	-0.653920	-0.329138	-0.593986
62505		9.771631	-0.505929	-0.704856	0.009287	0.005217	-0.015468	-0.637939	0.380859	0.280762	0.333551	-0.653909	-0.329122	-0.593991
62506		9.770825	-0.487756	-0.691094	0.009730	0.003727	-0.012471	-0.645508	0.381836	0.276123	0.333555	-0.653939	-0.329053	-0.593994
62507		9.752250	-0.463367	-0.716957	0.009195	0.003522	-0.014735	-0.639404	0.380371	0.277344	0.333543	-0.653938	-0.329024	-0.594018
62508		9.778231	-0.455233	-0.673593	0.007974	0.003733	-0.015743	-0.639160	0.377930	0.275879	0.333520	-0.653945	-0.328989	-0.594043
62509		9.780113	-0.473759	-0.691238	0.007490	0.005080	-0.017036	-0.640381	0.383789	0.272217	0.333486	-0.653932	-0.328960	-0.594092
62510		9.779811	-0.463110	-0.683712	0.005056	0.004597	-0.009864	-0.631836	0.384033	0.275879	0.333531	-0.653944	-0.328897	-0.594088
62511		9.771969	-0.472134	-0.685750	0.001593	0.002680	-0.005658	-0.640137	0.384277	0.270996	0.333580	-0.654023	-0.328769	-0.594045
62512		9.741760	-0.475424	-0.682021	0.002154	0.001600	-0.007752	-0.632324	0.384521	0.274658	0.333614	-0.654072	-0.328690	-0.594016
62513		9.771908	-0.461539	-0.707804	0.007476	0.001334	-0.013166	-0.640137	0.378906	0.274170	0.333657	-0.654099	-0.328682	-0.593966
62514		9.794807	-0.470308	-0.690070	0.010009	0.004919	-0.018393	-0.641113	0.383545	0.269287	0.333641	-0.654062	-0.328696	-0.594008
62515		9.778516	-0.481035	-0.688930	0.004587	0.000915	-0.011651	-0.640381	0.386719	0.271973	0.333664	-0.654081	-0.328679	-0.593983
62516		9.749416	-0.498850	-0.698252	0.004382	-0.001176	-0.005839	-0.633301	0.385010	0.268799	0.333725	-0.654153	-0.328612	-0.593907
62517		9.769598	-0.473472	-0.679285	0.008134	0.001040	-0.006793	-0.640869	0.375000	0.273926	0.333850	-0.654176	-0.328601	-0.593817
62518		9.772102	-0.441163	-0.699400	0.003491	0.001785	-0.011819	-0.635010	0.378418	0.271240	0.333789	-0.654219	-0.328510	-0.593856
62519		9.796875	-0.474035	-0.730042	0.004102	0.002258	-0.012942	-0.643555	0.387451	0.275146	0.333782	-0.654238	-0.328472	-0.593859
62520		9.786729	-0.512018	-0.712105	0.004460	0.000246	-0.012484	-0.635986	0.373779	0.275635	0.333774	-0.654283	-0.328429	-0.593837
62521		9.747484	-0.510087	-0.699084	0.005972	0.001496	-0.011486	-0.640137	0.386719	0.275879	0.333735	-0.654328	-0.328347	-0.593855
62522		9.754113	-0.534701	-0.710633	0.009345	0.001720	-0.014955	-0.643555	0.384766	0.279053	0.333759	-0.654337	-0.328353	-0.593829
62523		9.780268	-0.527441	-0.696978	0.009345	0.001718	-0.014952	-0.637939	0.379150	0.274170	0.333740	-0.654360	-0.328324	-0.593830
62524		9.789594	-0.528114	-0.706002	0.012844	0.001450	-0.014321	-0.640625	0.379639	0.276367	0.333770	-0.654355	-0.328343	-0.593809
62525		9.762401	-0.507329	-0.728860	0.020296	0.003173	-0.013928	-0.631592	0.390869	0.271973	0.333850	-0.654316	-0.328387	-0.593781
62526		9.774127	-0.483699	-0.705753	0.014354	0.002696	-0.013316	-0.636475	0.383301	0.267822	0.334004	-0.654288	-0.328467	-0.593682
62527		9.774317	-0.480648	-0.705197	0.009384	0.000683	-0.013373	-0.635986	0.384521	0.270508	0.334070	-0.654277	-0.328514	-0.593631
62528		9.779507	-0.483435	-0.727153	0.013413	0.002932	-0.016994	-0.643799	0.382568	0.281006	0.334144	-0.654230	-0.328597	-0.593595
62529		9.767693	-0.492903	-0.742119	0.017037	0.003331	-0.015520	-0.639648	0.379883	0.277100	0.334163	-0.654218	-0.328598	-0.593597
62530		9.776199	-0.484836	-0.715393	0.007308	0.001655	-0.015529	-0.635254	0.377441	0.278076	0.334116	-0.654244	-0.328559	-0.593617
62531		9.775829	-0.473716	-0.708470	0.001575	0.003530	-0.014815	-0.627930	0.388428	0.271484	0.334031	-0.654290	-0.328456	-0.593671
62532		9.767899	-0.479896	-0.681170	0.003202	0.004020	-0.015635	-0.640381	0.378906	0.273438	0.334082	-0.654288	-0.328468	-0.593637
62533		9.792937	-0.511933	-0.711526	0.008201	0.001006	-0.016057	-0.633789	0.380615	0.276367	0.334047	-0.654296	-0.328464	-0.593649
62534		9.769852	-0.488274	-0.721553	0.005722	0.003862	-0.016988	-0.639404	0.385254	0.268555	0.334016	-0.654304	-0.328435	-0.593675
62535		9.771656	-0.506028	-0.710304	-0.000136	0.001343	-0.013257	-0.642822	0.383545	0.283691	0.334004	-0.654330	-0.328405	-0.593670
62536		9.758351	-0.499799	-0.683861	0.002590	0.003541	-0.014503	-0.632324	0.377441	0.285400	0.333909	-0.654393	-0.328277	-0.593725
62537		9.780620	-0.495698	-0.712303	0.006046	0.001723	-0.014831	-0.631348	0.384766	0.275391	0.333825	-0.654467	-0.328171	-0.593749
62538		9.776121	-0.486740	-0.718293	0.006737	0.003878	-0.016677	-0.629150	0.379150	0.276367	0.333844	-0.654465	-0.328174	-0.593739
62539		9.790629	-0.498559	-0.696875	-0.000625	0.005252	-0.015147	-0.636963	0.384766	0.272949	0.333790	-0.654497	-0.328083	-0.593785
62540		9.744833	-0.521784	-0.698826	0.001040	0.000717	-0.016451	-0.635010	0.377197	0.276123	0.333744	-0.654530	-0.328063	-0.593785
62541		9.797779	-0.518342	-0.707373	0.011658	0.004336	-0.017564	-0.638184	0.379883	0.270264	0.333739	-0.654505	-0.328073	-0.593810
62542		9.782920	-0.490004	-0.690820	0.013854	0.005172	-0.017811	-0.636230	0.386475	0.280518	0.333790	-0.654434	-0.328142	-0.593820
62543		9.754028	-0.447649	-0.724140	0.006373	0.002156	-0.013267	-0.643311	0.387451	0.275391	0.333789	-0.654482	-0.328083	-0.593802
62544		9.756194	-0.472135	-0.690199	0.003118	-0.000267	-0.014276	-0.638428	0.385498	0.279297	0.333751	-0.654530	-0.328045	-0.593790
62545		9.771616	-0.492312	-0.705032	0.003802	0.003027	-0.019371	-0.635010	0.382080	0.273926	0.333681	-0.654550	-0.328016	-0.593824
62546		9.783858	-0.474676	-0.688237	0.005715	0.003838	-0.016953	-0.635742	0.385742	0.274414	0.333671	-0.654544	-0.328011	-0.593839
62547		9.792622	-0.466990	-0.690715	0.000915	0.002603	-0.017869	-0.628418	0.381348	0.273926	0.333624	-0.654563	-0.327990	-0.593855
62548		9.778465	-0.500068	-0.708565	-0.004002	0.000995	-0.013724	-0.638428	0.386475	0.273682	0.333567	-0.654633	-0.327909	-0.593855
62549		9.739185	-0.549978	-0.693622	0.002909	0.001089	-0.018222	-0.637939	0.378418	0.271484	0.333529	-0.654649	-0.327917	-0.593855
62550		9.768724	-0.526150	-0.712989	0.013725	0.003063	-0.021264	-0.636230	0.375977	0.273926	0.333531	-0.654586	-0.328010	-0.593871
62551		9.788416	-0.490494	-0.716711	0.013608	-0.000185	-0.021491	-0.637207	0.380859	0.275635	0.333496	-0.654561	-0.328095	-0.593872
62552		9.786309	-0.509330	-0.718633	0.007541	0.002660	-0.019686	-0.643066	0.388428	0.275879	0.333454	-0.654552	-0.328112	-0.593896
62553		9.756345	-0.510376	-0.714578	0.010022	0.003824	-0.016702	-0.638672	0.382568	0.278564	0.333482	-0.654531	-0.328134	-0.593892
62554		9.766766	-0.471937	-0.708587	0.015807	0.000952	-0.015832	-0.636230	0.381104	0.268311	0.333519	-0.654527	-0.328173	-0.593854
62555		9.770062	-0.451433	-0.711694	0.014897	0.003860	-0.021786	-0.630615	0.385498	0.275146	0.333570	-0.654437	-0.328310	-0.593848
62556		9.771042	-0.454005	-0.717025	0.006970	0.002294	-0.020236	-0.640869	0.373047	0.276611	0.333572	-0.654427	-0.328362	-0.593829
62557		9.784339	-0.497062	-0.733788	0.005056	0.002909	-0.020001	-0.642822	0.378418	0.270996	0.333442	-0.654435	-0.328318	-0.593917
62558		9.750686	-0.506455	-0.719788	0.008555	0.002664	-0.019359	-0.638672	0.380859	0.272461	0.333402	-0.654404	-0.328353	-0.593956
