// Start Time: Unknown
// Update Rate: 40.0Hz
// Filter Profile: human (46.1)
// Firmware Version: 4.6.0
PacketCounter	SampleTimeFine	Acc_X	Acc_Y	Acc_Z	Gyr_X	Gyr_Y	Gyr_Z	Mag_X	Mag_Y	Mag_Z	Quat_q0	Quat_q1	Quat_q2	Quat_q3
61648		9.587823	1.801303	0.843992	0.007015	-0.007815	-0.012685	-0.503662	-0.639404	-0.169922	0.618167	0.466288	-0.489309	0.401274
61649		9.626675	1.805575	0.793411	0.000416	-0.007251	-0.015442	-0.504150	-0.634521	-0.178223	0.618198	0.466422	-0.489273	0.401115
61650		9.611941	1.721505	0.753624	0.023395	0.000128	-0.016442	-0.510254	-0.640869	-0.171387	0.618150	0.466692	-0.489061	0.401133
61651		9.596734	1.793743	0.744413	0.008639	0.000320	-0.018920	-0.505859	-0.638672	-0.181885	0.618193	0.466873	-0.488909	0.401042
61652		9.580810	1.829630	0.812574	-0.003100	-0.004640	-0.022485	-0.499268	-0.643311	-0.177734	0.618287	0.467013	-0.488839	0.400821
61653		9.589047	1.771294	0.773608	0.003239	0.003192	-0.020945	-0.509277	-0.635254	-0.183350	0.618383	0.467156	-0.488685	0.400694
61654		9.585574	1.840081	0.747742	0.000299	0.001711	-0.020639	-0.499756	-0.643799	-0.180176	0.618478	0.467282	-0.488567	0.400543
61655		9.601472	1.852980	0.795750	-0.007522	0.004057	-0.019119	-0.498779	-0.640625	-0.177246	0.618617	0.467336	-0.488486	0.400363
61656		9.581075	1.828768	0.784853	-0.008214	0.005250	-0.016482	-0.496582	-0.632568	-0.176514	0.618753	0.467369	-0.488416	0.400201
61657		9.568083	1.805893	0.805457	-0.019662	0.001832	-0.020139	-0.502686	-0.633057	-0.189453	0.618947	0.467356	-0.488415	0.399918
61658		9.584492	1.771329	0.837618	-0.005617	0.004024	-0.018016	-0.501953	-0.640381	-0.180908	0.619055	0.467426	-0.488346	0.399752
61659		9.576788	1.828501	0.843850	-0.003303	0.001241	-0.019462	-0.494141	-0.646484	-0.194092	0.619135	0.467532	-0.488282	0.399583
61660		9.615792	1.795694	0.836430	0.003407	0.001470	-0.018916	-0.496338	-0.638184	-0.181641	0.619181	0.467676	-0.488184	0.399462
61661		9.615372	1.806296	0.760787	0.001540	0.002687	-0.018667	-0.502930	-0.637207	-0.185059	0.619239	0.467794	-0.488091	0.399347
61662		9.571489	1.813268	0.822652	0.002167	0.001895	-0.017748	-0.497803	-0.636475	-0.180176	0.619263	0.467916	-0.488031	0.399240
61663		9.545382	1.849081	0.836618	0.007173	0.002754	-0.017947	-0.497559	-0.633545	-0.191895	0.619269	0.468074	-0.487930	0.399170
61664		9.567049	1.855229	0.797749	0.008498	-0.001756	-0.019774	-0.499512	-0.637695	-0.181396	0.619263	0.468255	-0.487855	0.399060
61665		9.594127	1.817755	0.749853	0.006108	-0.002478	-0.018002	-0.496338	-0.641113	-0.175781	0.619239	0.468436	-0.487798	0.398953
61666		9.604266	1.859601	0.823639	0.001415	-0.001979	-0.019663	-0.500000	-0.647217	-0.185791	0.619240	0.468608	-0.487748	0.398811
61667		9.581833	1.891643	0.824199	0.000767	0.000376	-0.015698	-0.500488	-0.647461	-0.180664	0.619237	0.468722	-0.487723	0.398713
61668		9.578502	1.897217	0.800353	0.002733	-0.001031	-0.013388	-0.503662	-0.633057	-0.182129	0.619199	0.468862	-0.487696	0.398640
61669		9.563337	1.874971	0.796105	-0.019121	0.000428	-0.010885	-0.497070	-0.646729	-0.180664	0.619303	0.468780	-0.487806	0.398440
61670		9.580811	1.852847	0.809289	-0.009596	0.003920	-0.008315	-0.501221	-0.638672	-0.175537	0.619359	0.468780	-0.487810	0.398348
61671		9.596022	1.877933	0.778474	-0.005686	0.002275	-0.006691	-0.492188	-0.641846	-0.176758	0.619357	0.468805	-0.487836	0.398291
61672		9.593465	1.797633	0.816408	-0.004026	0.000485	-0.007280	-0.498047	-0.635742	-0.171631	0.619369	0.468868	-0.487826	0.398209
61673		9.596791	1.795615	0.804327	0.002089	0.005222	-0.006201	-0.497803	-0.644531	-0.181396	0.619330	0.468940	-0.487794	0.398225
61674		9.588329	1.812615	0.791552	0.001681	0.005043	-0.011647	-0.504395	-0.643066	-0.185059	0.619334	0.469020	-0.487731	0.398200
61675		9.580118	1.853654	0.816973	0.001342	0.004858	-0.012769	-0.500488	-0.637939	-0.181885	0.619329	0.469070	-0.487712	0.398174
61676		9.546896	1.855806	0.801375	-0.000515	0.003535	-0.012638	-0.494141	-0.635498	-0.171143	0.619346	0.469105	-0.487703	0.398117
61677		9.587213	1.859379	0.813936	-0.002828	0.003779	-0.011308	-0.494141	-0.649658	-0.182129	0.619355	0.469183	-0.487658	0.398067
61678		9.568649	1.885996	0.802753	-0.004053	0.001660	-0.010264	-0.505371	-0.640869	-0.189209	0.619381	0.469250	-0.487613	0.398002
61679		9.579023	1.916699	0.820726	-0.008589	0.000585	-0.008158	-0.503662	-0.636230	-0.184570	0.619420	0.469154	-0.487729	0.397911
61680		9.579791	1.840098	0.806148	-0.012863	-0.001279	-0.004492	-0.504639	-0.630615	-0.178955	0.619453	0.469026	-0.487894	0.397810
61681		9.571436	1.886480	0.791240	-0.006813	-0.000045	-0.003092	-0.502197	-0.636230	-0.183105	0.619411	0.468945	-0.488041	0.397790
61682		9.551246	1.905213	0.796025	-0.012820	0.003780	0.000065	-0.500732	-0.640137	-0.177490	0.619448	0.468779	-0.488177	0.397760
61683		9.582147	1.838362	0.832303	-0.012632	0.002019	0.002063	-0.492676	-0.638672	-0.184814	0.619416	0.468708	-0.488279	0.397768
61684		9.571367	1.809122	0.815785	-0.009114	0.001556	0.001344	-0.504395	-0.641846	-0.184326	0.619490	0.468594	-0.488347	0.397705
61685		9.583482	1.889701	0.834131	-0.008469	-0.001772	0.002138	-0.501465	-0.643799	-0.180176	0.619441	0.468494	-0.488500	0.397709
61686		9.577165	1.848623	0.843419	-0.009975	-0.001555	0.006496	-0.505371	-0.631348	-0.185547	0.619361	0.468431	-0.488629	0.397752
61687		9.574280	1.780350	0.801340	-0.002098	-0.002699	0.006311	-0.502197	-0.640869	-0.191650	0.619283	0.468257	-0.488855	0.397801
61688		9.604901	1.796592	0.775245	-0.007382	-0.000242	0.005075	-0.500732	-0.638428	-0.181641	0.619331	0.468036	-0.489022	0.397779
61689		9.586810	1.858863	0.819842	-0.008940	0.002331	0.003463	-0.501465	-0.639404	-0.184814	0.619305	0.467931	-0.489124	0.397818
61690		9.597489	1.862772	0.800010	-0.022789	-0.000294	0.006457	-0.502197	-0.638184	-0.181152	0.619363	0.467675	-0.489343	0.397759
61691		9.590707	1.721563	0.793482	-0.020415	0.002975	0.004815	-0.499023	-0.641357	-0.184082	0.619381	0.467485	-0.489505	0.397757
61692		9.584341	1.734869	0.841123	-0.008805	0.002928	-0.000509	-0.496582	-0.643311	-0.182861	0.619410	0.467412	-0.489547	0.397745
61693		9.577512	1.802554	0.828761	-0.002971	0.002219	-0.002564	-0.504883	-0.635986	-0.180908	0.619410	0.467445	-0.489511	0.397750
61694		9.618345	1.795529	0.783943	-0.007743	0.001746	-0.003785	-0.501709	-0.638184	-0.186768	0.619352	0.467382	-0.489615	0.397786
61695		9.582001	1.776712	0.839007	-0.004635	0.000123	-0.005197	-0.506104	-0.635498	-0.182617	0.619381	0.467296	-0.489693	0.397746
61696		9.595284	1.795874	0.823582	0.002851	0.004045	-0.004497	-0.504395	-0.637939	-0.183350	0.619289	0.467270	-0.489746	0.397855
61697		9.581952	1.869991	0.800560	-0.006180	0.004050	-0.003700	-0.503174	-0.633789	-0.178467	0.619270	0.467188	-0.489815	0.397897
61698		9.576996	1.790748	0.815103	-0.002484	0.004353	-0.002308	-0.511475	-0.633301	-0.185303	0.619158	0.467185	-0.489865	0.398012
61699		9.583369	1.754669	0.827923	-0.001971	0.001417	-0.002299	-0.498291	-0.642822	-0.185791	0.619071	0.467018	-0.490065	0.398098
61700		9.589317	1.780599	0.837943	-0.005710	-0.000048	-0.005026	-0.497559	-0.641602	-0.181152	0.619123	0.467010	-0.490058	0.398034
61701		9.604316	1.790475	0.824886	-0.003783	-0.002629	-0.004064	-0.509521	-0.642090	-0.187012	0.619069	0.467110	-0.490041	0.398024
61702		9.589407	1.797247	0.819023	-0.005299	0.001110	-0.004336	-0.500732	-0.642090	-0.188721	0.619044	0.467000	-0.490155	0.398051
61703		9.582237	1.819750	0.826553	-0.002560	0.003379	-0.001872	-0.512451	-0.636719	-0.183594	0.619115	0.466901	-0.490170	0.398038
61704		9.589479	1.813200	0.801819	-0.000040	0.003716	-0.002860	-0.498291	-0.638672	-0.179199	0.618984	0.466807	-0.490304	0.398186
61705		9.604729	1.791614	0.790901	0.000060	0.003509	-0.000310	-0.497314	-0.645996	-0.185303	0.618888	0.466899	-0.490255	0.398287
61706		9.588992	1.768119	0.823803	-0.004225	0.005168	-0.001276	-0.502930	-0.626953	-0.188721	0.618946	0.466920	-0.490162	0.398289
61707		9.597177	1.768611	0.820098	0.001479	0.004858	-0.004110	-0.501465	-0.635498	-0.192871	0.619018	0.466657	-0.490316	0.398295
61708		9.577567	1.825983	0.844463	-0.003442	0.002435	-0.004464	-0.504639	-0.641602	-0.179688	0.619185	0.466400	-0.490425	0.398202
61709		9.601380	1.773923	0.829561	0.003113	0.003258	-0.002935	-0.501709	-0.630371	-0.184814	0.619019	0.466536	-0.490382	0.398353
61710		9.588286	1.740738	0.828390	0.003645	0.002668	-0.004573	-0.503906	-0.638916	-0.184814	0.618989	0.466455	-0.490451	0.398410
61711		9.590140	1.801489	0.850467	0.001642	0.004275	-0.005100	-0.496582	-0.639648	-0.181641	0.618960	0.466441	-0.490449	0.398473
61712		9.585319	1.768799	0.844627	0.001837	0.003503	-0.007861	-0.500244	-0.644287	-0.185791	0.618948	0.466578	-0.490324	0.398486
61713		9.597091	1.766873	0.827323	0.004678	0.001679	-0.006078	-0.497314	-0.641357	-0.179688	0.618947	0.466666	-0.490234	0.398494
61714		9.579741	1.799606	0.835845	0.001424	-0.002536	-0.007028	-0.504883	-0.637939	-0.188477	0.618850	0.466877	-0.490148	0.398504
61715		9.585296	1.803180	0.806794	0.005810	0.000481	-0.005035	-0.497559	-0.639648	-0.185303	0.618845	0.466793	-0.490211	0.398534
61716		9.597492	1.823795	0.827155	0.002009	-0.000610	-0.004223	-0.500000	-0.635986	-0.184082	0.618859	0.466822	-0.490183	0.398511
61717		9.587106	1.788278	0.849147	-0.002177	0.000838	-0.002642	-0.504883	-0.635498	-0.182861	0.618851	0.466769	-0.490234	0.398524
61718		9.592099	1.807121	0.838093	-0.001291	-0.002103	-0.003280	-0.499512	-0.634033	-0.175781	0.618750	0.466733	-0.490351	0.398579
61719		9.581702	1.793850	0.801351	-0.001824	-0.001514	-0.001643	-0.509033	-0.625488	-0.179199	0.618554	0.466868	-0.490378	0.398692
61720		9.586640	1.766536	0.810239	-0.002151	-0.000345	0.000340	-0.504395	-0.636719	-0.183350	0.618350	0.466714	-0.490648	0.398856
61721		9.583548	1.754156	0.805670	-0.005331	0.001296	-0.002566	-0.497314	-0.639160	-0.185303	0.618321	0.466631	-0.490740	0.398885
61722		9.615670	1.786568	0.821257	-0.001792	-0.001701	-0.003412	-0.500000	-0.637207	-0.198242	0.618366	0.466632	-0.490732	0.398823
61723		9.616262	1.770980	0.803651	-0.006275	0.000727	-0.001617	-0.510498	-0.643311	-0.184814	0.618700	0.466207	-0.490891	0.398607
61724		9.601016	1.708571	0.779520	-0.005520	-0.001817	-0.003034	-0.502441	-0.633545	-0.188232	0.618617	0.466162	-0.491009	0.398644
61725		9.567654	1.778269	0.818102	-0.005053	0.002851	-0.002653	-0.509277	-0.635254	-0.186279	0.618703	0.465951	-0.491121	0.398618
61726		9.582610	1.787974	0.805933	0.002772	0.003080	-0.004056	-0.510498	-0.640137	-0.185547	0.618638	0.465842	-0.491222	0.398721
61727		9.610918	1.770307	0.797668	-0.009735	0.000815	-0.004432	-0.501709	-0.633301	-0.186523	0.618615	0.465718	-0.491360	0.398733
61728		9.607536	1.713086	0.813272	0.000210	0.001577	-0.004405	-0.505859	-0.639160	-0.179443	0.618637	0.465628	-0.491413	0.398737
61729		9.603270	1.748727	0.825237	-0.002115	0.000466	-0.006179	-0.511230	-0.632324	-0.185791	0.618487	0.465752	-0.491413	0.398825
61730		9.578830	1.802970	0.841238	-0.005064	0.001502	-0.005757	-0.505371	-0.633301	-0.191650	0.618440	0.465574	-0.491596	0.398882
61731		9.604761	1.757035	0.810509	-0.004991	0.002478	-0.006189	-0.498779	-0.642822	-0.180420	0.618587	0.465302	-0.491734	0.398801
61732		9.572949	1.764190	0.814956	-0.005078	-0.000845	-0.004112	-0.505859	-0.638428	-0.179932	0.618535	0.465465	-0.491660	0.398784
61733		9.599224	1.741067	0.821939	-0.003766	-0.000279	-0.005706	-0.503906	-0.631348	-0.181885	0.618400	0.465561	-0.491681	0.398853
61734		9.597217	1.805368	0.856529	0.001357	0.002729	-0.005006	-0.513184	-0.633545	-0.184570	0.618307	0.465560	-0.491721	0.398949
61735		9.599656	1.750418	0.843449	0.000209	0.001580	-0.004403	-0.501953	-0.632324	-0.191895	0.618188	0.465450	-0.491878	0.399069
61736		9.596819	1.753609	0.820397	0.008896	0.005290	-0.003089	-0.514404	-0.633057	-0.190674	0.618302	0.465259	-0.491913	0.399072
61737		9.604539	1.739857	0.835168	-0.000148	0.003932	-0.005400	-0.506592	-0.631836	-0.183838	0.618320	0.464991	-0.492099	0.399128
61738		9.601988	1.712333	0.813415	0.004552	0.003436	-0.003745	-0.501953	-0.625977	-0.185059	0.618221	0.464967	-0.492138	0.399260
61739		9.602017	1.782301	0.832046	0.000833	-0.000566	-0.006597	-0.502930	-0.635742	-0.177246	0.618198	0.464886	-0.492225	0.399281
61740		9.610887	1.722032	0.828405	-0.004415	-0.008063	-0.006557	-0.514648	-0.638672	-0.187012	0.617992	0.465104	-0.492245	0.399324
61741		9.610715	1.723570	0.827202	-0.000726	-0.002873	-0.006684	-0.510010	-0.641602	-0.183594	0.617917	0.465023	-0.492394	0.399350
61742		9.598693	1.743766	0.825482	-0.002477	-0.003409	-0.008758	-0.506348	-0.634277	-0.183350	0.617836	0.465090	-0.492436	0.399345
61743		9.609805	1.712567	0.844195	-0.012178	-0.008670	-0.008689	-0.505859	-0.635498	-0.184082	0.617801	0.465055	-0.492596	0.399243
61744		9.647509	1.748579	0.829758	0.013684	-0.001984	-0.008327	-0.505859	-0.631592	-0.186768	0.617677	0.465184	-0.492565	0.399323
61745		9.587834	1.850171	0.784419	0.008828	0.000441	-0.005884	-0.502686	-0.625488	-0.187744	0.617644	0.465131	-0.492617	0.399371
61746		9.584351	1.770296	0.761435	0.001055	0.003711	-0.004790	-0.505615	-0.638184	-0.183105	0.617718	0.464925	-0.492719	0.399371
61747		9.577836	1.754903	0.809703	-0.003184	0.002643	-0.007646	-0.506104	-0.641357	-0.187988	0.617709	0.464949	-0.492703	0.399377
61748		9.573147	1.722437	0.803693	0.002325	0.003119	-0.007717	-0.500732	-0.633057	-0.180176	0.617777	0.464921	-0.492676	0.399337
61749		9.646300	1.672873	0.795589	-0.002683	0.003246	-0.012257	-0.511963	-0.640137	-0.181152	0.617762	0.465024	-0.492597	0.399338
61750		9.620030	1.707335	0.809997	-0.000748	0.001672	-0.016041	-0.504883	-0.637451	-0.189697	0.617679	0.465148	-0.492564	0.399363
61751		9.577669	1.795305	0.834722	-0.000554	0.000907	-0.018795	-0.499512	-0.639404	-0.182617	0.617841	0.465101	-0.492543	0.399193
61752		9.558982	1.769590	0.786062	-0.007469	0.001419	-0.016572	-0.508545	-0.635986	-0.193359	0.617936	0.465203	-0.492441	0.399054
61753		9.560485	1.756439	0.829106	-0.003609	0.001150	-0.016170	-0.504150	-0.635498	-0.182617	0.618132	0.464998	-0.492527	0.398882
61754		9.622393	1.711189	0.801954	0.000955	0.002066	-0.020033	-0.498779	-0.640137	-0.179199	0.618142	0.465122	-0.492439	0.398831
61755		9.607712	1.683259	0.837121	0.001690	0.002064	-0.021319	-0.505615	-0.636230	-0.184326	0.618141	0.465406	-0.492230	0.398759
61756		9.558147	1.552045	0.986022	0.009065	-0.007565	-0.029417	-0.501953	-0.644043	-0.178711	0.618115	0.465642	-0.492155	0.398616
61757		9.504170	1.586033	1.026478	0.041116	-0.017631	-0.036349	-0.499023	-0.626953	-0.184082	0.617812	0.466425	-0.491825	0.398578
61758		9.497769	1.578687	0.932644	0.028682	-0.039306	-0.052786	-0.498535	-0.640137	-0.176758	0.617653	0.467015	-0.491801	0.398163
61759		9.703558	1.647532	0.809430	0.114375	-0.039291	-0.048919	-0.504150	-0.635254	-0.182861	0.616860	0.468512	-0.491213	0.398359
61760		9.570937	2.344760	0.664577	0.100860	-0.030654	-0.040361	-0.499756	-0.642090	-0.182861	0.616268	0.469517	-0.490854	0.398534
61761		9.532440	2.218085	0.552713	0.044695	-0.035765	-0.019837	-0.509033	-0.637695	-0.169922	0.615948	0.470036	-0.490852	0.398420
61762		9.549811	1.952603	0.728037	0.013147	-0.032060	-0.010848	-0.511963	-0.649170	-0.173584	0.615482	0.470403	-0.491074	0.398434
61763		9.653463	1.770580	0.707760	0.021668	-0.004355	-0.002941	-0.503418	-0.644531	-0.176514	0.615182	0.470639	-0.491052	0.398645
61764		9.576095	1.970616	0.782744	0.024916	-0.009483	0.004595	-0.507324	-0.646973	-0.170654	0.614917	0.470817	-0.491075	0.398816
61765		9.672223	1.823396	0.788025	0.017624	-0.014855	0.009433	-0.497314	-0.645996	-0.171631	0.614519	0.471044	-0.491185	0.399025
61766		9.673284	1.841055	0.689065	0.064734	-0.002027	0.018286	-0.504883	-0.645020	-0.177246	0.613980	0.471540	-0.490926	0.399587
61767		9.736524	1.628676	0.620453	0.006904	-0.021334	0.014465	-0.494873	-0.644287	-0.174316	0.613746	0.471524	-0.491201	0.399628
61768		9.582197	1.593753	0.700128	0.012015	-0.010663	0.001916	-0.507324	-0.635742	-0.170166	0.613638	0.471680	-0.491184	0.399630
61769		9.610736	1.473763	0.784837	0.011510	-0.010230	-0.016060	-0.502930	-0.648682	-0.177002	0.613466	0.471851	-0.491239	0.399625
61770		9.574176	1.821959	0.793225	0.035798	-0.003887	-0.022726	-0.506592	-0.644043	-0.166260	0.613383	0.472231	-0.490968	0.399636
61771		9.587844	1.819633	0.663428	0.020268	-0.006602	-0.030056	-0.500000	-0.634766	-0.166748	0.613216	0.472662	-0.490786	0.399606
61772		9.644908	1.782906	0.683832	-0.013459	-0.004858	-0.029909	-0.503418	-0.643311	-0.166016	0.613310	0.472756	-0.490784	0.399354
61773		9.699392	1.892449	0.737431	-0.023293	-0.003386	-0.027292	-0.503418	-0.645752	-0.170654	0.613425	0.472821	-0.490797	0.399085
61774		9.619804	1.983552	0.756830	-0.060375	-0.018546	-0.023599	-0.505615	-0.635742	-0.164795	0.613719	0.472594	-0.491136	0.398484
61775		9.600774	1.624561	0.652443	-0.013953	-0.005403	-0.025279	-0.507324	-0.641846	-0.179688	0.613708	0.472670	-0.491214	0.398315
61776		9.626538	1.757653	0.637319	0.015048	-0.010171	-0.026770	-0.502441	-0.649658	-0.167725	0.613727	0.472785	-0.491209	0.398154
61777		9.579424	2.005332	0.782988	-0.000775	-0.018755	-0.027149	-0.505615	-0.643555	-0.175537	0.613638	0.473132	-0.491184	0.397910
61778		9.575608	1.830240	0.681990	0.000320	-0.001465	-0.023284	-0.505615	-0.637695	-0.170654	0.613731	0.473156	-0.491164	0.397763
61779		9.577840	1.727514	0.668428	0.004576	-0.002069	-0.027036	-0.500488	-0.638916	-0.163574	0.613736	0.473264	-0.491136	0.397662
61780		9.587873	1.733033	0.684812	0.020479	-0.012294	-0.032967	-0.500244	-0.646240	-0.176270	0.613535	0.473743	-0.490984	0.397589
61781		9.542106	1.901470	0.682673	0.028911	-0.010585	-0.036848	-0.503418	-0.637207	-0.174805	0.613523	0.474135	-0.490760	0.397417
61782		9.540390	1.872725	0.660509	0.013440	-0.007137	-0.038328	-0.504883	-0.651367	-0.167236	0.613589	0.474306	-0.490687	0.397201
61783		9.539646	1.889408	0.679287	0.015294	-0.002275	-0.038792	-0.506592	-0.643311	-0.172363	0.613564	0.474708	-0.490436	0.397070
61784		9.578812	1.876991	0.651242	0.018619	-0.001906	-0.036758	-0.510742	-0.648926	-0.164795	0.613572	0.474942	-0.490287	0.396961
61785		9.615971	2.016054	0.640025	0.027179	0.008527	-0.030459	-0.490723	-0.641602	-0.176025	0.613433	0.475289	-0.490019	0.397091
61786		9.549119	2.095086	0.646515	0.019273	0.011461	-0.021947	-0.494629	-0.652100	-0.165283	0.613604	0.475367	-0.489759	0.397054
61787		9.530916	1.920201	0.656693	0.000134	0.004344	-0.016020	-0.496582	-0.654297	-0.166992	0.613643	0.475533	-0.489598	0.396995
61788		9.617317	1.797408	0.726326	0.004896	0.004901	-0.014807	-0.497803	-0.652100	-0.168945	0.613665	0.475700	-0.489428	0.396970
61789		9.584370	1.902538	0.673953	0.017748	0.004845	-0.015180	-0.502686	-0.645020	-0.171387	0.613628	0.475908	-0.489230	0.397021
61790		9.570360	1.917520	0.652812	0.001579	0.004350	-0.018575	-0.493408	-0.647461	-0.177246	0.613700	0.475888	-0.489198	0.396973
61791		9.571644	1.845940	0.676420	-0.007143	0.005561	-0.019651	-0.496582	-0.652832	-0.160400	0.613973	0.475785	-0.489124	0.396767
61792		9.578515	1.964754	0.730026	0.000359	0.008249	-0.017766	-0.497559	-0.644531	-0.165283	0.613966	0.475986	-0.488941	0.396762
61793		9.555353	1.933894	0.675586	-0.004557	0.006115	-0.014593	-0.498535	-0.645752	-0.171875	0.614005	0.476000	-0.488895	0.396741
61794		9.575918	1.931930	0.617634	-0.000599	0.004353	-0.014723	-0.501709	-0.649658	-0.169189	0.614092	0.475961	-0.488866	0.396689
61795		9.562101	1.964318	0.710784	-0.015297	-0.000462	-0.013873	-0.500488	-0.647217	-0.171387	0.614182	0.475880	-0.488944	0.396551
61796		9.546121	1.897709	0.705016	-0.015694	0.007102	-0.008659	-0.507812	-0.645508	-0.167969	0.614323	0.475687	-0.489009	0.396483
61797		9.564816	1.941211	0.663946	-0.015552	0.006710	-0.007881	-0.504395	-0.649170	-0.160156	0.614365	0.475496	-0.489134	0.396495
61798		9.605397	1.930191	0.697640	-0.021404	0.013338	-0.006096	-0.501221	-0.647461	-0.161377	0.614397	0.475374	-0.489169	0.396546
61799		9.580601	1.952327	0.718728	-0.028308	0.013928	-0.002149	-0.489990	-0.650635	-0.173828	0.614484	0.475165	-0.489246	0.396568
61800		9.559795	1.946673	0.689463	-0.025372	0.016641	-0.001131	-0.500244	-0.641846	-0.180908	0.614780	0.474882	-0.489220	0.396481
61801		9.546682	1.927647	0.710722	-0.025891	0.015059	0.003892	-0.499023	-0.643066	-0.168457	0.615059	0.474361	-0.489399	0.396451
61802		9.587042	1.877242	0.762978	-0.030545	0.010792	0.005546	-0.493408	-0.642334	-0.170898	0.615176	0.474017	-0.489576	0.396462
61803		9.575345	1.817911	0.727282	-0.020997	0.010203	0.001407	-0.494385	-0.641357	-0.175293	0.615309	0.473776	-0.489651	0.396451
61804		9.591595	1.870164	0.720583	-0.013969	0.009407	-0.000008	-0.506104	-0.641602	-0.171631	0.615447	0.473534	-0.489717	0.396444
61805		9.625058	1.855675	0.722256	-0.017780	0.007094	-0.000514	-0.496826	-0.645996	-0.176514	0.615480	0.473279	-0.489882	0.396493
61806		9.574903	1.943760	0.738202	-0.021147	0.010608	0.000645	-0.496338	-0.638428	-0.174805	0.615665	0.472989	-0.489967	0.396447
61807		9.557773	1.845366	0.711835	-0.018246	0.012158	0.000349	-0.494629	-0.642822	-0.169922	0.615809	0.472700	-0.490052	0.396463
61808		9.546188	1.884504	0.715834	-0.015736	0.010376	0.002770	-0.496582	-0.652100	-0.175537	0.615863	0.472541	-0.490089	0.396523
61809		9.569416	1.878360	0.720118	-0.010493	0.012885	0.002475	-0.498047	-0.645996	-0.168457	0.615974	0.472389	-0.490064	0.396563
61810		9.607587	1.866805	0.730065	-0.010866	0.009375	0.003441	-0.498047	-0.649658	-0.175049	0.615953	0.472301	-0.490086	0.396674
61811		9.598160	1.881428	0.755662	-0.011524	0.011683	0.007359	-0.498291	-0.643799	-0.178711	0.616014	0.472111	-0.490119	0.396763
61812		9.583658	1.847161	0.733404	-0.011853	0.007814	0.004820	-0.500977	-0.641357	-0.183105	0.616100	0.471868	-0.490215	0.396799
61813		9.551766	1.888732	0.759131	-0.011370	0.007601	0.006706	-0.505371	-0.636230	-0.175781	0.616205	0.471538	-0.490368	0.396841
61814		9.560673	1.834414	0.756087	-0.008017	0.007775	0.006977	-0.503174	-0.643311	-0.182861	0.616166	0.471285	-0.490526	0.397006
61815		9.595999	1.891041	0.723069	-0.009902	0.008954	0.007220	-0.495605	-0.644531	-0.179443	0.616254	0.470975	-0.490660	0.397073
61816		9.591897	1.818139	0.736832	-0.014542	0.011703	0.008215	-0.503418	-0.639404	-0.179199	0.616381	0.470704	-0.490728	0.397113
61817		9.559713	1.882648	0.801611	-0.005363	0.011274	0.006461	-0.502930	-0.649170	-0.171143	0.616399	0.470464	-0.490811	0.397266
61818		9.555583	1.838941	0.777538	-0.002727	0.012774	0.011085	-0.500488	-0.640381	-0.180420	0.616315	0.470378	-0.490813	0.397497
61819		9.597644	1.903682	0.737366	-0.010227	0.011451	0.012260	-0.497803	-0.630615	-0.176758	0.616367	0.470076	-0.490928	0.397632
61820		9.604995	1.804757	0.731951	-0.016150	0.012100	0.010011	-0.500244	-0.637939	-0.172119	0.616418	0.469752	-0.491061	0.397768
61821		9.594651	1.834107	0.775703	-0.017448	0.011513	0.011595	-0.500732	-0.642334	-0.188721	0.616408	0.469515	-0.491170	0.397932
61822		9.591507	1.811192	0.753462	-0.019039	0.008212	0.011950	-0.505615	-0.638184	-0.177490	0.616591	0.469082	-0.491370	0.397911
61823		9.591727	1.764075	0.812657	-0.029096	0.004028	0.009705	-0.505859	-0.639648	-0.178711	0.616642	0.468727	-0.491629	0.397930
61824		9.606084	1.749166	0.800193	-0.019935	0.005944	0.006318	-0.503174	-0.640869	-0.180420	0.616682	0.468454	-0.491802	0.397976
61825		9.612912	1.786008	0.756219	-0.016060	0.002027	0.005280	-0.506348	-0.645752	-0.179443	0.616716	0.468237	-0.491963	0.397980
61826		9.595370	1.762978	0.765436	-0.016210	0.001096	0.001433	-0.508545	-0.637939	-0.180176	0.616745	0.468079	-0.492099	0.397954
61827		9.594435	1.726275	0.783412	-0.016161	0.000745	-0.002073	-0.504883	-0.642578	-0.185791	0.616767	0.467889	-0.492264	0.397937
61828		9.602057	1.787659	0.837949	-0.013994	0.008147	-0.003025	-0.501709	-0.640381	-0.182129	0.616920	0.467656	-0.492336	0.397885
61829		9.601327	1.758122	0.781114	-0.007573	0.005761	-0.003722	-0.505371	-0.635986	-0.183838	0.616991	0.467543	-0.492362	0.397876
61830		9.625387	1.737928	0.765803	0.007853	0.005859	-0.006832	-0.501953	-0.640137	-0.180176	0.616975	0.467514	-0.492337	0.397967
61831		9.604340	1.757975	0.770827	-0.002393	0.004615	-0.009734	-0.502930	-0.640381	-0.177002	0.617012	0.467509	-0.492303	0.397957
61832		9.599972	1.763954	0.784608	0.009283	0.004724	-0.010715	-0.501221	-0.641113	-0.186523	0.616945	0.467638	-0.492195	0.398043
61833		9.582419	1.833752	0.776831	0.006879	0.002790	-0.010290	-0.500977	-0.640869	-0.185059	0.616997	0.467641	-0.492148	0.398016
61834		9.594957	1.839674	0.780049	-0.001558	0.000885	-0.008180	-0.509033	-0.632568	-0.178711	0.617061	0.467593	-0.492165	0.397953
61835		9.580762	1.801189	0.794374	0.000136	0.000454	-0.005690	-0.502930	-0.628174	-0.184326	0.616962	0.467563	-0.492234	0.398057
61836		9.590055	1.786611	0.771676	-0.007235	-0.002595	-0.006824	-0.506592	-0.641602	-0.180664	0.616982	0.467427	-0.492366	0.398021
61837		9.580258	1.818784	0.775758	-0.000928	0.003780	-0.005830	-0.503662	-0.639404	-0.185303	0.616972	0.467396	-0.492377	0.398060
61838		9.586408	1.814478	0.787710	-0.005525	0.004000	-0.004950	-0.518066	-0.638184	-0.190430	0.617048	0.467266	-0.492428	0.398031
61839		9.611690	1.763220	0.773138	-0.001212	0.002396	-0.003988	-0.502441	-0.642334	-0.184326	0.617059	0.467057	-0.492577	0.398075
61840		9.592338	1.796054	0.819102	-0.003664	0.002994	-0.003442	-0.496582	-0.639648	-0.183838	0.617114	0.466969	-0.492614	0.398047
61841		9.576488	1.810166	0.774839	-0.000839	0.005915	-0.004934	-0.499756	-0.639893	-0.182617	0.617194	0.466915	-0.492580	0.398027
61842		9.580918	1.844089	0.746073	-0.001944	0.002387	-0.002707	-0.505615	-0.638428	-0.181641	0.617217	0.466864	-0.492601	0.398027
61843		9.593239	1.759259	0.765886	-0.006631	0.000473	-0.002722	-0.502930	-0.637939	-0.180908	0.617207	0.466777	-0.492686	0.398038
61844		9.610576	1.752515	0.795945	-0.001411	0.001818	-0.004328	-0.499512	-0.634766	-0.179688	0.617187	0.466752	-0.492709	0.398070
61845		9.603854	1.759097	0.785815	0.001189	0.004335	-0.004408	-0.500732	-0.640625	-0.183594	0.617162	0.466752	-0.492683	0.398142
61846		9.581873	1.823815	0.770526	0.006491	0.004300	-0.004813	-0.499512	-0.642334	-0.183838	0.617165	0.466760	-0.492640	0.398181
61847		9.565784	1.764411	0.819907	-0.001411	0.001818	-0.004328	-0.498779	-0.633301	-0.177979	0.617212	0.466721	-0.492650	0.398141
61848		9.616837	1.787719	0.792935	0.002997	0.005863	-0.002777	-0.501709	-0.630859	-0.178711	0.617158	0.466737	-0.492603	0.398265
61849		9.587289	1.873209	0.785214	0.003457	0.009331	0.000554	-0.503662	-0.641357	-0.180664	0.617092	0.466693	-0.492570	0.398460
61850		9.567597	1.748205	0.770195	-0.001767	0.006656	-0.000918	-0.502930	-0.629395	-0.181396	0.617094	0.466633	-0.492568	0.398530
61851		9.596101	1.753316	0.801059	-0.003745	0.003517	0.001816	-0.504150	-0.644287	-0.177002	0.617051	0.466511	-0.492648	0.398641
61852		9.587679	1.767850	0.788126	-0.003691	0.003169	-0.001689	-0.500000	-0.638672	-0.184570	0.617011	0.466517	-0.492649	0.398694
61853		9.591049	1.802269	0.795641	-0.003070	0.002547	0.000966	-0.511719	-0.639648	-0.181885	0.617039	0.466415	-0.492701	0.398706
61854		9.607843	1.787431	0.805156	-0.009027	-0.000138	0.000772	-0.502930	-0.641602	-0.180420	0.617002	0.466281	-0.492844	0.398743
61855		9.580778	1.795607	0.817055	-0.009002	-0.002498	0.002401	-0.507812	-0.640625	-0.185303	0.616975	0.466205	-0.492955	0.398736
61856		9.595469	1.729885	0.801182	-0.014086	-0.005571	0.001700	-0.510010	-0.640625	-0.184326	0.616988	0.466034	-0.493160	0.398663
61857		9.607111	1.704520	0.780518	-0.008646	-0.007333	-0.001010	-0.503174	-0.634033	-0.181152	0.616951	0.465938	-0.493339	0.398610
61858		9.594491	1.745895	0.816580	-0.007658	-0.005763	-0.002376	-0.502930	-0.639648	-0.192383	0.616906	0.465890	-0.493461	0.398585
61859		9.620818	1.716057	0.802185	-0.005340	-0.002443	-0.003994	-0.506592	-0.631592	-0.192383	0.617010	0.465742	-0.493570	0.398462
61860		9.590314	1.847556	0.772326	-0.003170	-0.004427	-0.002701	-0.506836	-0.638916	-0.185303	0.617038	0.465581	-0.493727	0.398412
61861		9.628470	1.710364	0.774601	-0.015453	-0.009796	-0.002440	-0.512451	-0.643555	-0.182617	0.617054	0.465452	-0.493941	0.398272
61862		9.620409	1.658343	0.777353	0.000015	-0.005011	-0.004527	-0.504395	-0.638916	-0.184082	0.616982	0.465458	-0.494034	0.398262
61863		9.616818	1.752330	0.773103	0.003064	-0.001681	-0.007427	-0.505127	-0.638428	-0.178223	0.616966	0.465485	-0.494045	0.398240
61864		9.605398	1.726788	0.791188	-0.002361	-0.004931	-0.009237	-0.502930	-0.631348	-0.183350	0.616908	0.465559	-0.494077	0.398205
61865		9.595558	1.774619	0.774748	0.001781	-0.007286	-0.010373	-0.494629	-0.637451	-0.186279	0.616853	0.465617	-0.494123	0.398165
61866		9.598318	1.751799	0.758794	-0.000328	-0.002997	-0.009016	-0.506592	-0.634766	-0.182129	0.616923	0.465631	-0.494121	0.398043
61867		9.595622	1.785927	0.793720	0.000467	-0.000681	-0.007648	-0.508057	-0.635254	-0.183838	0.616886	0.465638	-0.494146	0.398062
61868		9.591918	1.767986	0.768242	-0.001590	0.001073	-0.006417	-0.506104	-0.637939	-0.180176	0.616877	0.465591	-0.494187	0.398078
61869		9.638005	1.684542	0.767240	-0.008623	-0.005316	-0.006132	-0.505127	-0.636719	-0.181152	0.616852	0.465572	-0.494285	0.398018
61870		9.629630	1.716151	0.830277	0.007968	-0.002865	-0.008518	-0.506104	-0.635986	-0.181885	0.616768	0.465673	-0.494269	0.398050
61871		9.586081	1.822297	0.759076	0.004498	-0.001479	-0.008231	-0.510498	-0.640137	-0.186768	0.616713	0.465724	-0.494271	0.398074
61872		9.584328	1.780372	0.755308	-0.000345	0.002013	-0.004490	-0.503174	-0.639404	-0.181641	0.616732	0.465638	-0.494327	0.398075
61873		9.598988	1.761314	0.780513	-0.003903	0.001266	-0.005098	-0.496826	-0.632324	-0.186279	0.616752	0.465608	-0.494348	0.398053
61874		9.611447	1.706845	0.762285	0.004419	0.001228	-0.006353	-0.504883	-0.640381	-0.183838	0.616778	0.465604	-0.494323	0.398048
61875		9.618407	1.739402	0.755813	0.000296	-0.003619	-0.006360	-0.508545	-0.629150	-0.187256	0.616767	0.465612	-0.494370	0.397999
61876		9.597495	1.758888	0.759022	-0.000156	-0.002243	-0.006918	-0.498291	-0.647461	-0.175049	0.616743	0.465548	-0.494449	0.398012
61877		9.592177	1.765224	0.808069	0.007776	0.001399	-0.006086	-0.511719	-0.630859	-0.179932	0.616693	0.465708	-0.494348	0.398028
61878		9.592415	1.743603	0.769541	0.008569	0.000202	-0.004415	-0.502930	-0.635010	-0.189941	0.616545	0.465754	-0.494361	0.398186
61879		9.608259	1.738341	0.739016	0.001821	0.002224	-0.006575	-0.505859	-0.635254	-0.180664	0.616613	0.465673	-0.494380	0.398152
61880		9.633203	1.725640	0.743230	-0.003062	-0.000276	-0.006928	-0.508301	-0.636475	-0.185791	0.616595	0.465661	-0.494412	0.398154
61881		9.606390	1.728351	0.795066	-0.000188	0.003633	-0.008846	-0.500732	-0.638672	-0.181641	0.616636	0.465606	-0.494420	0.398146
61882		9.606588	1.767193	0.778791	0.002433	0.002470	-0.010372	-0.512207	-0.629150	-0.177002	0.616665	0.465653	-0.494362	0.398119
61883		9.604780	1.740618	0.756418	0.004020	0.000075	-0.007032	-0.513428	-0.633301	-0.185303	0.616520	0.465710	-0.494372	0.398264
61884		9.598607	1.755197	0.766286	0.004154	0.001866	-0.009638	-0.508057	-0.643555	-0.177734	0.616492	0.465686	-0.494394	0.398308
61885		9.595539	1.744626	0.762255	-0.002248	0.005384	-0.007615	-0.513672	-0.636963	-0.181396	0.616501	0.465695	-0.494359	0.398326
61886		9.593142	1.755694	0.760439	-0.002477	0.003654	-0.009277	-0.504883	-0.637695	-0.182373	0.616497	0.465655	-0.494381	0.398352
61887		9.614116	1.746817	0.778220	-0.004280	0.003449	-0.007831	-0.502441	-0.631104	-0.183105	0.616543	0.465610	-0.494384	0.398329
61888		9.590419	1.753703	0.777921	-0.002301	0.000890	-0.006881	-0.510742	-0.643799	-0.183594	0.616552	0.465575	-0.494405	0.398330
61889		9.594022	1.751582	0.765396	-0.000405	0.001035	-0.004057	-0.506348	-0.629395	-0.191162	0.616548	0.465532	-0.494451	0.398329
61890		9.624973	1.785422	0.781150	0.000469	0.000648	-0.004566	-0.509277	-0.637939	-0.180420	0.616579	0.465411	-0.494528	0.398328
61891		9.595537	1.744608	0.768980	0.000919	0.002788	-0.004311	-0.507324	-0.635742	-0.187744	0.616537	0.465399	-0.494540	0.398392
61892		9.614760	1.743826	0.783632	-0.002553	0.004166	-0.004026	-0.508789	-0.633789	-0.179443	0.616591	0.465278	-0.494587	0.398391
61893		9.598921	1.728484	0.776768	-0.002074	0.002621	-0.005217	-0.512695	-0.635742	-0.183350	0.616547	0.465258	-0.494605	0.398459
61894		9.597937	1.722790	0.756936	0.003679	0.004741	-0.005368	-0.505615	-0.626221	-0.173340	0.616512	0.465225	-0.494611	0.398546
61895		9.635201	1.766301	0.765518	0.001195	0.004179	-0.006145	-0.505371	-0.632080	-0.187744	0.616395	0.465290	-0.494560	0.398713
61896		9.625859	1.730992	0.788201	-0.000494	0.002419	-0.005253	-0.507080	-0.631348	-0.181885	0.616433	0.465199	-0.494603	0.398709
61897		9.585322	1.766645	0.760133	-0.001709	0.002629	-0.005855	-0.506104	-0.632812	-0.185303	0.616416	0.465159	-0.494624	0.398753
61898		9.596744	1.728142	0.759854	-0.006247	0.000299	-0.005101	-0.510498	-0.634521	-0.177490	0.616450	0.465060	-0.494702	0.398721
61899		9.595908	1.766834	0.779760	-0.009122	-0.000101	-0.003490	-0.506592	-0.633789	-0.177246	0.616401	0.465010	-0.494780	0.398759
61900		9.626187	1.719111	0.773030	-0.007805	0.005168	-0.004043	-0.509766	-0.635986	-0.179199	0.616393	0.464958	-0.494789	0.398820
61901		9.623874	1.743856	0.753240	-0.002114	0.009824	-0.004067	-0.509766	-0.631348	-0.185547	0.616392	0.464904	-0.494754	0.398928
61902		9.633289	1.714024	0.751824	-0.003042	0.009230	-0.003130	-0.511963	-0.630371	-0.181396	0.616437	0.464760	-0.494778	0.398996
61903		9.581172	1.729774	0.800936	-0.005914	0.003994	-0.004290	-0.512451	-0.631592	-0.186523	0.616421	0.464667	-0.494838	0.399056
61904		9.610704	1.720308	0.813888	0.002972	0.004563	-0.005834	-0.513184	-0.635986	-0.180420	0.616414	0.464596	-0.494867	0.399113
61905		9.605141	1.725854	0.767853	-0.002958	0.006528	-0.005004	-0.514160	-0.630371	-0.192139	0.616399	0.464542	-0.494871	0.399193
61906		9.602142	1.773957	0.785940	0.000007	0.005546	-0.005418	-0.514893	-0.634033	-0.178955	0.616458	0.464375	-0.494951	0.399199
61907		9.617507	1.717016	0.792456	-0.007155	0.004372	-0.003144	-0.508789	-0.639893	-0.193115	0.616417	0.464299	-0.495003	0.399284
61908		9.595273	1.692147	0.793683	0.001677	0.003961	-0.004258	-0.502930	-0.640869	-0.182861	0.616502	0.464179	-0.495047	0.399238
61909		9.590970	1.771019	0.809951	-0.001003	0.002820	-0.005378	-0.510986	-0.641113	-0.186523	0.616532	0.464175	-0.495025	0.399225
61910		9.622618	1.692860	0.804141	-0.007943	0.002055	-0.004511	-0.505859	-0.632080	-0.193848	0.616595	0.464059	-0.495101	0.399169
61911		9.627588	1.659920	0.793207	0.002577	0.003409	-0.006514	-0.500732	-0.632324	-0.186768	0.616674	0.463951	-0.495134	0.399129
61912		9.612129	1.726698	0.809535	0.001950	0.004039	-0.009159	-0.510010	-0.630371	-0.188721	0.616731	0.463939	-0.495092	0.399109
61913		9.603764	1.779884	0.779885	-0.002963	0.005213	-0.008071	-0.507324	-0.624268	-0.188965	0.616789	0.463834	-0.495119	0.399107
61914		9.609458	1.694527	0.768772	-0.000728	0.005533	-0.004138	-0.513428	-0.631104	-0.183838	0.616807	0.463719	-0.495152	0.399172
61915		9.604508	1.722120	0.821180	-0.000390	0.004392	-0.006097	-0.504150	-0.637207	-0.188232	0.616776	0.463676	-0.495167	0.399252
61916		9.597678	1.729000	0.811382	-0.000756	0.004384	-0.005459	-0.505127	-0.638672	-0.185059	0.616847	0.463603	-0.495173	0.399218
61917		9.597308	1.759796	0.774821	0.002237	0.004553	-0.004550	-0.500732	-0.637695	-0.189453	0.616869	0.463580	-0.495153	0.399236
61918		9.604349	1.702845	0.785642	-0.006755	0.000694	-0.005231	-0.507568	-0.636719	-0.184814	0.616979	0.463471	-0.495215	0.399117
61919		9.612500	1.689698	0.800207	0.000851	0.004017	-0.007241	-0.510010	-0.625244	-0.186523	0.616998	0.463454	-0.495199	0.399127
61920		9.609921	1.760095	0.819424	-0.002953	0.001698	-0.007770	-0.507568	-0.634766	-0.183105	0.616984	0.463399	-0.495235	0.399167
61921		9.603974	1.714348	0.808404	-0.001032	0.002990	-0.003626	-0.502441	-0.632080	-0.184570	0.616965	0.463369	-0.495247	0.399217
61922		9.610178	1.724847	0.800907	-0.001280	0.000112	-0.006612	-0.509033	-0.628906	-0.180908	0.616970	0.463363	-0.495256	0.399205
61923		9.605597	1.663529	0.771588	-0.003032	-0.000434	-0.008666	-0.502441	-0.633789	-0.180664	0.616917	0.463386	-0.495269	0.399245
61924		9.623838	1.701633	0.805243	0.001842	0.002082	-0.008300	-0.514160	-0.636475	-0.182129	0.616894	0.463447	-0.495213	0.399278
61925		9.609054	1.715791	0.821319	-0.000500	0.009301	-0.007581	-0.508545	-0.637451	-0.178711	0.616901	0.463414	-0.495166	0.399363
61926		9.617755	1.695004	0.780185	-0.001036	0.008547	-0.009032	-0.508301	-0.627686	-0.177246	0.616909	0.463437	-0.495078	0.399434
61927		9.585766	1.768278	0.827656	0.007564	0.004384	-0.006692	-0.506348	-0.633057	-0.183838	0.616784	0.463537	-0.494996	0.399611
61928		9.613566	1.723680	0.796977	0.005565	0.003591	-0.005594	-0.511475	-0.627930	-0.185303	0.616748	0.463559	-0.494960	0.399687
61929		9.604875	1.724748	0.802211	-0.000796	-0.000115	-0.004733	-0.507568	-0.630615	-0.182129	0.616703	0.463508	-0.495029	0.399729
61930		9.598485	1.657418	0.788935	0.000966	0.002470	-0.007789	-0.502441	-0.628662	-0.181641	0.616673	0.463525	-0.495011	0.399780
61931		9.600284	1.731577	0.815482	0.003686	-0.000070	-0.008117	-0.506592	-0.635498	-0.187012	0.616622	0.463589	-0.494978	0.399824
61932		9.606325	1.743086	0.807615	0.004154	0.001907	-0.009604	-0.509277	-0.632568	-0.188232	0.616640	0.463604	-0.494952	0.399811
61933		9.631650	1.671510	0.790734	-0.003270	0.002671	-0.007554	-0.513672	-0.631592	-0.184814	0.616691	0.463518	-0.494995	0.399778
61934		9.616488	1.759622	0.808972	-0.005583	0.002850	-0.006245	-0.509277	-0.632324	-0.187012	0.616698	0.463433	-0.495054	0.399793
61935		9.628972	1.683760	0.789333	-0.013786	-0.000019	-0.008630	-0.506592	-0.640137	-0.180176	0.616785	0.463302	-0.495156	0.399685
61936		9.617667	1.672919	0.789461	-0.002546	-0.001974	-0.009851	-0.504395	-0.635254	-0.187012	0.616765	0.463371	-0.495139	0.399656
61937		9.623896	1.750812	0.823270	-0.003329	-0.002977	-0.008152	-0.500732	-0.625488	-0.182129	0.616794	0.463352	-0.495186	0.399577
61938		9.612528	1.673351	0.780842	0.000521	0.000334	-0.008044	-0.502930	-0.635742	-0.180420	0.616764	0.463385	-0.495167	0.399608
61939		9.610180	1.684606	0.777416	0.006067	-0.002774	-0.009552	-0.510986	-0.635498	-0.175537	0.616691	0.463519	-0.495110	0.399634
61940		9.603392	1.759163	0.807633	-0.000360	-0.005264	-0.011628	-0.513428	-0.639160	-0.182373	0.616580	0.463659	-0.495100	0.399657
61941		9.618432	1.697215	0.790606	-0.000801	-0.007405	-0.011886	-0.508545	-0.635742	-0.182129	0.616521	0.463738	-0.495149	0.399597
61942		9.629061	1.698052	0.808155	0.007185	-0.001589	-0.010139	-0.505615	-0.637695	-0.178955	0.616452	0.463842	-0.495110	0.399629
61943		9.609531	1.738799	0.777503	0.005511	0.004663	-0.010269	-0.508545	-0.632080	-0.187744	0.616418	0.463946	-0.494995	0.399703
61944		9.591275	1.697249	0.783895	0.001564	-0.000616	-0.009525	-0.508057	-0.626465	-0.185303	0.616430	0.463929	-0.495026	0.399666
61945		9.607702	1.700470	0.773493	0.000614	-0.003677	-0.012977	-0.508545	-0.632812	-0.176758	0.616418	0.463949	-0.495069	0.399609
61946		9.622743	1.705218	0.799297	-0.002404	-0.003688	-0.012139	-0.500977	-0.631348	-0.183350	0.616352	0.464044	-0.495065	0.399606
61947		9.636647	1.696010	0.784148	0.000224	-0.000166	-0.012634	-0.506104	-0.622314	-0.182617	0.616376	0.464092	-0.495026	0.399561
61948		9.588729	1.768222	0.804247	-0.002040	0.005659	-0.010726	-0.510742	-0.641357	-0.187256	0.616407	0.464043	-0.495020	0.399578
61949		9.593283	1.714839	0.791736	-0.001456	0.002731	-0.010724	-0.506348	-0.631592	-0.182861	0.616464	0.464020	-0.495009	0.399528
61950		9.605707	1.721382	0.794935	0.002657	-0.000575	-0.011428	-0.508057	-0.634277	-0.190918	0.616443	0.464074	-0.494990	0.399523
61951		9.628574	1.719505	0.795638	0.002486	-0.001317	-0.013512	-0.505859	-0.636230	-0.186523	0.616498	0.464065	-0.495011	0.399421
61952		9.608602	1.724262	0.781299	-0.003062	-0.002887	-0.013028	-0.511475	-0.631348	-0.184570	0.616545	0.464073	-0.495034	0.399312
61953		9.602147	1.739604	0.790403	0.004505	-0.002721	-0.011247	-0.512695	-0.635498	-0.190430	0.616496	0.464120	-0.495057	0.399306
61954		9.599278	1.729812	0.784339	0.000321	-0.006213	-0.012458	-0.512451	-0.635742	-0.180664	0.616510	0.464108	-0.495147	0.399184
61955		9.615666	1.733437	0.773470	0.000852	-0.002101	-0.013047	-0.513672	-0.632080	-0.177246	0.616467	0.464182	-0.495141	0.399173
61956		9.619234	1.718517	0.778898	-0.004477	-0.003258	-0.013963	-0.509277	-0.628174	-0.181885	0.616411	0.464247	-0.495162	0.399157
61957		9.609470	1.678174	0.779665	-0.006866	-0.001862	-0.015587	-0.510254	-0.635010	-0.183350	0.616437	0.464248	-0.495197	0.399073
61958		9.616071	1.720156	0.794169	-0.000786	-0.000838	-0.017680	-0.508545	-0.627441	-0.193115	0.616463	0.464307	-0.495173	0.398994
61959		9.617567	1.751776	0.780307	0.005487	0.002075	-0.016373	-0.510498	-0.640381	-0.185547	0.616546	0.464274	-0.495181	0.398896
61960		9.597195	1.771974	0.747999	0.004245	0.002444	-0.015229	-0.513428	-0.631592	-0.182373	0.616578	0.464329	-0.495121	0.398855
61961		9.592016	1.720818	0.776261	-0.001596	0.001675	-0.016274	-0.505371	-0.638916	-0.184570	0.616591	0.464354	-0.495107	0.398824
61962		9.574422	1.724080	0.786644	-0.000333	0.002457	-0.016096	-0.505371	-0.633057	-0.185547	0.616659	0.464396	-0.495044	0.398748
61963		9.594906	1.644409	0.838274	0.003355	0.006188	-0.016753	-0.511719	-0.628174	-0.180176	0.616729	0.464427	-0.494953	0.398716
61964		9.622371	1.655289	0.868506	0.011243	0.001478	-0.024356	-0.506348	-0.629639	-0.184082	0.616683	0.464620	-0.494818	0.398729
61965		9.598213	1.563745	0.842130	0.049100	0.007484	-0.026061	-0.509766	-0.642578	-0.184570	0.616520	0.465056	-0.494443	0.398939
61966		9.646965	1.347369	0.602958	0.048624	0.001035	-0.044918	-0.512695	-0.636230	-0.185791	0.616434	0.465647	-0.493995	0.398937
61967		9.592057	1.603174	0.698628	0.047808	-0.013445	-0.062093	-0.509277	-0.643066	-0.179688	0.616341	0.466366	-0.493610	0.398718
61968		9.572502	1.526206	0.734595	0.001536	-0.029953	-0.087774	-0.503418	-0.644531	-0.179443	0.616519	0.467038	-0.493374	0.397947
61969		9.561879	1.447318	0.803438	0.007654	-0.034859	-0.110649	-0.504150	-0.641113	-0.176758	0.616761	0.467931	-0.492994	0.396993
61970		9.579587	1.546136	0.799647	-0.005696	-0.024858	-0.132454	-0.494141	-0.640381	-0.180176	0.617216	0.468809	-0.492481	0.395884
61971		9.644068	1.531599	0.850773	-0.000127	-0.021318	-0.152139	-0.499756	-0.644775	-0.173340	0.617808	0.469811	-0.491792	0.394629
61972		9.513101	1.448065	0.854116	-0.002625	-0.018333	-0.182291	-0.491943	-0.649170	-0.170654	0.618504	0.471013	-0.490896	0.393218
61973		9.634284	1.214711	0.827054	0.043551	-0.021513	-0.223101	-0.494873	-0.650391	-0.174072	0.619105	0.472874	-0.489511	0.391763
61974		9.671517	1.172497	1.074372	0.046551	-0.042085	-0.277633	-0.487061	-0.650391	-0.172852	0.619839	0.475126	-0.488001	0.389756
61975		9.574273	0.656806	1.013156	0.123844	-0.054307	-0.353631	-0.491699	-0.656738	-0.170166	0.620406	0.478490	-0.485743	0.387553
61976		9.513109	0.322264	1.105671	0.131588	-0.126118	-0.465408	-0.483398	-0.663574	-0.171387	0.620990	0.482903	-0.483359	0.384110
61977		9.559171	-0.497800	1.042664	0.091944	-0.176877	-0.614973	-0.466797	-0.667236	-0.159180	0.622237	0.488090	-0.480652	0.378898
61978		9.626090	-1.158697	1.371301	0.018496	-0.212893	-0.831956	-0.461914	-0.672607	-0.153809	0.624635	0.494224	-0.477124	0.371385
61979		9.240369	-0.954548	1.621073	0.069045	-0.269889	-1.080063	-0.442139	-0.693604	-0.165039	0.627401	0.502402	-0.472234	0.361879
61980		8.585917	0.994228	1.749864	0.256650	-0.344486	-1.282200	-0.428955	-0.714600	-0.143311	0.629444	0.513357	-0.465757	0.351191
61981		8.816810	0.736437	1.899415	0.140247	-0.438563	-1.512693	-0.410645	-0.727783	-0.126709	0.632374	0.525092	-0.458802	0.337465
61982		8.683119	1.145914	0.506274	0.339357	-0.409992	-1.706269	-0.381348	-0.750000	-0.114990	0.634627	0.539197	-0.449276	0.323522
61983		6.918564	5.184982	-1.730183	0.299041	-0.388535	-1.699470	-0.358887	-0.764648	-0.107422	0.636944	0.552603	-0.439538	0.309417
61984		6.138049	8.311021	-2.988580	0.019056	-0.325339	-1.489826	-0.313477	-0.777832	-0.093994	0.640501	0.562073	-0.431743	0.295687
61985		10.201521	3.795348	-1.645367	0.179419	-0.159320	-1.279862	-0.304932	-0.792480	-0.084717	0.642860	0.571033	-0.423174	0.285615
61986		9.275879	5.585464	-1.333134	0.865428	-0.070776	-1.180686	-0.277588	-0.802979	-0.068848	0.640315	0.584381	-0.412171	0.280376
61987		6.100612	12.569749	-0.493672	0.698217	-0.113493	-0.900594	-0.267578	-0.808594	-0.050537	0.637670	0.594911	-0.404066	0.276021
61988		7.766581	14.720254	-0.026741	0.594952	-0.078186	-0.191798	-0.263672	-0.806885	-0.044678	0.633450	0.600833	-0.401268	0.276991
61989		11.646362	17.984778	-1.761424	0.334880	-0.053042	0.534211	-0.278564	-0.797363	-0.034424	0.628759	0.600933	-0.404601	0.282559
61990		12.530210	19.992902	-1.978033	0.046325	0.013255	1.270523	-0.302246	-0.799561	-0.041260	0.623870	0.594715	-0.413901	0.292893
61991		18.507364	12.354807	0.068558	-0.378652	0.240825	1.787031	-0.334717	-0.782715	-0.044189	0.621183	0.581447	-0.426666	0.306606
61992		16.129694	6.205012	0.710460	-0.576435	0.409551	1.945365	-0.363281	-0.764893	-0.065674	0.619853	0.564803	-0.439764	0.321541
61993		8.984177	1.923274	-0.244894	-1.174872	0.682782	2.164486	-0.397461	-0.735352	-0.098877	0.622844	0.540739	-0.454318	0.336544
61994		4.285638	-4.040858	-2.445398	-1.918096	0.440949	2.201500	-0.436768	-0.703857	-0.123779	0.628585	0.511050	-0.473586	0.345579
61995		4.427496	-5.889489	0.269428	-0.396779	0.238444	1.517308	-0.450439	-0.689209	-0.130127	0.625803	0.497787	-0.483092	0.356652
61996		1.085017	0.384173	0.851914	0.164967	0.402653	0.519832	-0.465332	-0.676758	-0.124756	0.624818	0.494088	-0.482486	0.364261
61997		-0.539535	1.470462	0.220457	-0.820345	-0.166562	-0.046120	-0.465820	-0.682617	-0.149658	0.629004	0.488651	-0.487270	0.357970
61998		0.630463	-1.848247	0.813319	-0.800061	-0.150607	-0.234138	-0.458252	-0.674316	-0.164307	0.633938	0.484392	-0.490638	0.350373
61999		0.810155	-1.447671	1.026111	-0.139195	-0.090407	-0.458205	-0.457520	-0.682861	-0.159180	0.636174	0.486443	-0.489238	0.345400
62000		1.292256	-1.809787	1.150723	0.159520	-0.050125	-0.693358	-0.434814	-0.677246	-0.158691	0.637818	0.492107	-0.484762	0.340624
62001		0.272931	-0.322588	0.878843	0.049547	-0.036627	-0.966356	-0.427490	-0.710938	-0.161377	0.641312	0.498435	-0.478911	0.333056
62002		0.785134	-2.019088	4.420065	-0.027977	-0.230259	-1.576842	-0.397461	-0.718018	-0.153564	0.646501	0.508467	-0.470997	0.318840
62003		13.075543	-10.018140	-8.092863	2.145132	-0.746603	-2.620400	-0.359375	-0.757812	-0.108887	0.638271	0.543676	-0.451411	0.305377
62004		20.109905	1.837251	-3.129158	1.609023	-0.429052	-1.508988	-0.337402	-0.773926	-0.068359	0.630377	0.566403	-0.438315	0.299487
62005		21.362724	18.664605	1.524889	0.650613	-0.442533	-1.509545	-0.303223	-0.792725	-0.060303	0.628802	0.581283	-0.428642	0.288070
62006		16.786433	31.400789	-1.847494	0.833572	-0.133191	-0.573885	-0.302490	-0.802979	-0.041992	0.624005	0.591296	-0.422545	0.287126
62007		15.539353	29.902901	-5.414335	-0.452387	0.040454	0.820215	-0.323486	-0.792969	-0.047363	0.624534	0.583210	-0.429955	0.291483
62008		20.363181	15.970711	-3.066535	-0.959176	0.443987	1.799703	-0.344482	-0.771973	-0.076904	0.627100	0.564203	-0.443040	0.303539
62009		16.816793	5.109395	0.666122	-1.117927	0.760796	2.323978	-0.383545	-0.748047	-0.105225	0.629987	0.539335	-0.457557	0.320742
62010		6.335364	-4.053373	-3.383644	-1.926177	0.886159	2.852269	-0.431885	-0.712646	-0.147461	0.635944	0.503744	-0.477163	0.337836
62011		6.790790	-10.494044	0.836449	0.200366	0.429267	2.020911	-0.461426	-0.681152	-0.146973	0.628454	0.491264	-0.485563	0.357678
62012		-0.232729	3.799774	-0.168774	0.851409	0.355429	-0.006874	-0.462402	-0.682373	-0.137451	0.625324	0.496331	-0.478975	0.364978
62013		0.217766	-0.086597	0.579240	-0.415298	-0.393339	-0.622122	-0.456299	-0.688965	-0.139404	0.628300	0.498536	-0.480147	0.355191
62014		0.183815	-0.095724	0.999761	-0.062519	-0.396164	-0.808809	-0.439209	-0.702148	-0.140869	0.629813	0.504586	-0.478550	0.346003
62015		0.807953	-0.778439	0.816874	0.055821	-0.364664	-0.938494	-0.432129	-0.709961	-0.128418	0.631246	0.512134	-0.475310	0.336641
62016		0.895682	-1.064149	1.455850	0.187590	-0.221281	-1.046333	-0.403320	-0.720703	-0.128418	0.633024	0.520678	-0.469598	0.328105
62017		0.611689	-0.182948	1.530930	-0.187761	-0.246612	-1.215845	-0.381104	-0.739014	-0.132324	0.637666	0.527235	-0.464428	0.315773
62018		0.270330	-1.054909	0.806507	-0.345686	-0.390418	-1.303337	-0.372559	-0.749268	-0.132812	0.642688	0.533462	-0.460322	0.300789
62019		0.345358	-0.773494	1.548978	-0.287113	-0.539774	-1.361715	-0.346436	-0.763916	-0.136475	0.646461	0.540886	-0.456643	0.284619
62020		2.660357	-3.029494	1.842214	-0.134123	-0.300482	-1.635161	-0.315430	-0.782959	-0.131592	0.651294	0.550042	-0.448461	0.268612
62021		9.493220	3.462329	-4.957839	2.251815	-0.533372	-1.991015	-0.284180	-0.801270	-0.089600	0.639001	0.580880	-0.431275	0.261262
62022		16.451408	9.989094	-4.100733	-0.070888	-0.775040	-1.332922	-0.261230	-0.814941	-0.092529	0.639535	0.589872	-0.428026	0.244620
62023		29.145667	13.191662	-2.929832	0.530603	-0.430889	-0.782332	-0.254150	-0.822266	-0.084717	0.635623	0.599507	-0.424169	0.238025
62024		27.037077	26.007048	0.113189	0.735176	0.130796	-0.339703	-0.243164	-0.827881	-0.066895	0.631750	0.606658	-0.418516	0.240211
62025		18.479921	33.128993	0.000655	-0.210234	0.324682	0.742903	-0.258789	-0.821533	-0.069336	0.632745	0.600049	-0.422299	0.247465
62026		18.307779	17.885273	-4.489071	-1.121130	0.511889	1.811859	-0.283203	-0.802979	-0.096436	0.637979	0.579771	-0.435223	0.259671
62027		15.445232	5.245697	-0.582620	-1.534670	0.392501	2.539222	-0.331787	-0.775391	-0.135986	0.642514	0.552008	-0.455259	0.274230
62028		9.455116	-13.312120	-1.737700	-1.511549	0.719985	2.738012	-0.384277	-0.732178	-0.161865	0.647110	0.521334	-0.473275	0.292354
62029		7.339825	-10.796921	2.907564	1.376012	0.672395	1.346492	-0.391602	-0.725586	-0.133301	0.636940	0.521828	-0.471497	0.315744
62030		1.743344	2.670050	0.293009	1.719466	0.803745	-0.044005	-0.395264	-0.732666	-0.110840	0.630401	0.532431	-0.457919	0.330790
62031		-1.383146	4.775273	0.080984	0.450011	0.306409	0.212788	-0.400391	-0.732422	-0.103760	0.628204	0.533448	-0.455080	0.337187
62032		-1.396700	4.090262	-0.679432	0.040643	0.573860	0.834895	-0.419189	-0.723389	-0.106934	0.627567	0.526527	-0.455965	0.347885
62033		-0.930510	2.415329	-0.318931	-0.998051	0.308214	1.216124	-0.429199	-0.700928	-0.129883	0.630413	0.510292	-0.465834	0.353808
62034		-0.199528	0.415706	0.062394	-1.543980	0.210032	1.190119	-0.445557	-0.677490	-0.152588	0.635976	0.490083	-0.478504	0.355510
62035		0.771044	-2.051273	0.068399	-1.380382	0.049572	1.023214	-0.472656	-0.666016	-0.184814	0.639974	0.472632	-0.490436	0.355704
62036		0.834701	-2.676107	-0.237460	-0.433895	0.098429	0.627440	-0.477783	-0.657227	-0.184082	0.640266	0.464812	-0.495312	0.358714
62037		0.874538	-2.883711	-0.354476	0.314695	-0.002258	0.180239	-0.479004	-0.655518	-0.191406	0.637541	0.466196	-0.494991	0.362197
62038		0.889652	-2.507172	0.944115	0.575063	-0.183600	-0.454873	-0.468018	-0.663086	-0.182373	0.635038	0.474355	-0.491233	0.361115
62039		6.662478	-0.405187	4.805550	0.399652	-0.108127	-1.259499	-0.450195	-0.689941	-0.176025	0.637561	0.485635	-0.482806	0.352950
62040		8.329434	17.897557	-10.389199	1.313883	-1.352717	-3.682369	-0.388916	-0.730713	-0.132324	0.636777	0.523590	-0.464828	0.322962
62041		14.142206	2.587785	-3.981084	-3.095980	-1.288896	-1.573814	-0.369141	-0.734375	-0.180420	0.655172	0.512711	-0.476852	0.283705
62042		22.548324	6.351581	-0.892813	0.052809	-0.890058	-0.699712	-0.367676	-0.750488	-0.170654	0.651907	0.520377	-0.479516	0.272560
62043		40.273756	-8.680427	12.393300	-0.540474	-0.179644	-1.651156	-0.346680	-0.762451	-0.168457	0.659769	0.526319	-0.472062	0.254656
62044		-1.056890	34.685533	-5.715592	4.156238	0.562802	-0.260109	-0.334229	-0.777588	-0.105469	0.635604	0.559566	-0.451843	0.280590
62045		4.104688	18.606576	-6.377886	-1.308395	0.089548	0.539775	-0.347656	-0.772217	-0.131592	0.643228	0.545673	-0.459511	0.278116
62046		14.032697	-2.368274	1.191959	0.698899	0.597089	0.981515	-0.362549	-0.762207	-0.128418	0.638344	0.543456	-0.459029	0.294048
62047		8.686705	7.564517	0.037508	0.930639	0.752650	0.945094	-0.374023	-0.758789	-0.118652	0.632722	0.542531	-0.456067	0.311972
62048		6.210003	6.324810	0.786537	-0.094325	0.508111	1.143998	-0.385742	-0.742920	-0.132568	0.631699	0.533160	-0.460239	0.323846
62049		7.909553	3.654845	2.447602	-0.251977	0.417071	1.153983	-0.407715	-0.731934	-0.147705	0.631042	0.522704	-0.465745	0.334137
62050		9.548587	-2.516592	1.273626	-0.262928	0.330091	0.905670	-0.416260	-0.711914	-0.156006	0.630877	0.513844	-0.470278	0.341756
62051		10.120229	-3.295523	0.501593	-0.062379	0.187377	0.523220	-0.431641	-0.707275	-0.162354	0.630155	0.509367	-0.472568	0.346597
62052		10.388867	-3.066917	0.709941	0.182965	0.025702	0.208597	-0.423828	-0.712158	-0.157715	0.628246	0.509359	-0.473047	0.349408
62053		10.340133	0.618123	0.489683	0.374225	0.125430	0.089978	-0.434570	-0.708252	-0.153076	0.626231	0.511119	-0.471138	0.353018
62054		9.080982	4.709121	0.237924	0.682017	0.120939	0.119014	-0.433350	-0.711182	-0.137207	0.622023	0.515123	-0.468040	0.358710
62055		8.735543	5.422128	0.531886	0.929521	0.239425	0.165154	-0.439697	-0.708740	-0.128906	0.616629	0.520210	-0.463139	0.366950
62056		8.442021	5.008718	-0.081146	0.581521	0.302049	0.334021	-0.440918	-0.709229	-0.122559	0.613007	0.521290	-0.460393	0.374857
62057		7.882143	5.628624	0.730310	0.248799	0.298603	0.548678	-0.451660	-0.699219	-0.120361	0.610485	0.518561	-0.460600	0.382425
62058		7.734983	6.947139	0.792839	-0.778605	0.093962	0.579723	-0.464355	-0.693604	-0.139160	0.613215	0.508746	-0.467411	0.382977
62059		8.277786	4.348120	1.735707	-1.194203	-0.025921	0.645336	-0.467773	-0.683838	-0.158936	0.617445	0.495821	-0.477449	0.380745
62060		9.860088	-0.221752	1.962180	-0.870040	-0.005515	0.625940	-0.478027	-0.669434	-0.167236	0.619742	0.485299	-0.485550	0.380322
62061		10.170272	-0.793309	0.694385	-0.163784	0.025194	0.544661	-0.488281	-0.665039	-0.178223	0.618240	0.480552	-0.489481	0.383741
62062		9.810729	0.453723	-0.619820	-0.120294	0.000602	0.390927	-0.482910	-0.658936	-0.184326	0.617045	0.477170	-0.492458	0.386068
62063		10.055235	-0.130270	-0.046487	-0.130055	-0.019655	0.337472	-0.489746	-0.651367	-0.186279	0.616029	0.474128	-0.495313	0.387783
62064		9.777728	1.865179	1.150506	0.140455	0.097663	0.305276	-0.493896	-0.647217	-0.181396	0.614267	0.472797	-0.495742	0.391637
62065		9.800691	2.609706	0.856827	-0.004751	0.035115	0.282643	-0.501953	-0.644287	-0.182129	0.613071	0.470792	-0.497215	0.394051
62066		9.718350	1.397915	0.315008	0.047593	0.021654	0.275475	-0.507080	-0.637451	-0.182617	0.611510	0.469293	-0.498484	0.396652
62067		9.552662	1.456714	0.148238	-0.013453	-0.021930	0.247995	-0.510742	-0.646973	-0.189209	0.610165	0.467709	-0.500223	0.398402
62068		10.204642	1.088246	0.714467	-0.136266	-0.045132	0.192167	-0.516357	-0.633301	-0.189209	0.609665	0.465648	-0.502421	0.398815
62069		9.843842	0.546171	0.466422	-0.149907	0.020815	0.131654	-0.517822	-0.639404	-0.189697	0.609955	0.463530	-0.503828	0.399064
62070		9.640100	0.479339	0.014789	-0.105316	0.021711	0.071050	-0.516357	-0.628662	-0.199463	0.610291	0.462128	-0.504651	0.399136
62071		9.602548	0.245149	0.978426	-0.072501	-0.031972	0.006297	-0.513916	-0.632324	-0.183838	0.610420	0.461650	-0.505348	0.398609
62072		9.652218	0.933405	1.124933	0.126318	-0.030401	-0.046329	-0.518555	-0.639404	-0.195801	0.609671	0.463014	-0.504735	0.398950
62073		9.695931	1.454863	0.487656	0.130838	-0.037557	-0.081799	-0.512451	-0.637939	-0.183105	0.609027	0.464669	-0.503945	0.399009
62074		9.665072	1.923332	0.086699	0.077433	-0.026004	-0.096193	-0.515625	-0.633057	-0.185303	0.608835	0.465950	-0.503249	0.398687
62075		9.548267	2.112767	0.288003	-0.082078	-0.013404	-0.092767	-0.512695	-0.638672	-0.180176	0.609633	0.465930	-0.503274	0.397457
62076		9.472061	1.699223	0.926412	-0.048829	-0.001034	-0.073003	-0.510986	-0.638184	-0.182129	0.610216	0.465978	-0.503154	0.396657
62077		9.580756	1.574195	0.930163	0.053169	0.017490	-0.055313	-0.504639	-0.634766	-0.187988	0.610233	0.466601	-0.502489	0.396742
62078		9.661679	1.824174	0.429177	0.094771	0.019133	-0.045352	-0.500977	-0.639893	-0.182129	0.609970	0.467469	-0.501661	0.397173
62079		9.650560	1.728519	0.462038	0.016020	0.005909	-0.051600	-0.501465	-0.639404	-0.178467	0.610112	0.467842	-0.501287	0.396986
62080		9.649267	1.468428	0.497112	-0.016625	0.008627	-0.068238	-0.512207	-0.637939	-0.180176	0.610545	0.468056	-0.500959	0.396482
62081		9.610628	1.608288	0.546477	-0.019730	0.004893	-0.074703	-0.508545	-0.638672	-0.186768	0.611004	0.468304	-0.500638	0.395887
62082		9.599113	1.935894	0.660166	-0.019992	0.003671	-0.071112	-0.506592	-0.639160	-0.184082	0.611440	0.468532	-0.500349	0.395309
62083		9.659910	1.898032	0.518250	0.017220	0.025566	-0.052203	-0.503418	-0.637207	-0.183594	0.611701	0.468819	-0.499818	0.395236
62084		9.562612	2.193112	0.625011	-0.026559	0.027284	-0.040184	-0.507568	-0.633057	-0.179199	0.612170	0.468688	-0.499561	0.394992
62085		9.636945	1.596025	0.600951	-0.025796	0.031044	-0.034076	-0.503174	-0.640869	-0.182617	0.612626	0.468505	-0.499309	0.394820
62086		9.701942	1.558470	0.545283	0.026569	0.042730	-0.036864	-0.495117	-0.644775	-0.179443	0.612862	0.468685	-0.498689	0.395023
62087		9.688286	1.734970	0.553735	0.013278	0.039787	-0.043550	-0.499756	-0.637695	-0.187988	0.613191	0.468821	-0.498116	0.395075
62088		9.576188	1.925263	0.647381	-0.006955	0.035214	-0.045494	-0.498291	-0.646484	-0.191406	0.613621	0.468831	-0.497672	0.394955
62089		9.583514	1.814050	0.696814	-0.049404	0.024342	-0.046183	-0.499268	-0.643555	-0.184326	0.614236	0.468574	-0.497515	0.394502
62090		9.567738	1.827412	0.757840	-0.000653	0.022112	-0.037290	-0.499023	-0.649414	-0.188477	0.614504	0.468650	-0.497185	0.394410
62091		9.595143	2.012107	0.662607	-0.028497	0.024123	-0.037390	-0.504639	-0.655029	-0.190674	0.614949	0.468501	-0.496976	0.394156
62092		9.622185	1.803815	0.538961	-0.025396	0.023401	-0.030146	-0.498779	-0.642334	-0.191406	0.615336	0.468335	-0.496800	0.393972
62093		9.577335	2.022538	0.710043	-0.029903	0.021391	-0.024217	-0.493408	-0.644531	-0.183594	0.615709	0.468104	-0.496700	0.393790
62094		9.610865	1.751438	0.816075	-0.048649	0.005334	-0.020863	-0.497803	-0.646240	-0.187988	0.616072	0.467793	-0.496830	0.393429
62095		9.623547	1.638096	0.802860	0.003959	-0.025211	-0.013930	-0.501465	-0.646240	-0.192627	0.615904	0.467991	-0.496978	0.393268
62096		9.635676	1.788657	0.684949	0.000265	-0.009701	-0.019629	-0.499023	-0.633545	-0.195312	0.615884	0.468117	-0.496995	0.393128
62097		9.595952	1.802380	0.677734	0.000797	0.005846	-0.023858	-0.502441	-0.647705	-0.185791	0.615981	0.468191	-0.496870	0.393046
62098		9.559120	1.885630	0.784537	-0.034520	0.013590	-0.026470	-0.495117	-0.645752	-0.188721	0.616339	0.467982	-0.496834	0.392779
62099		9.568261	1.776227	0.754570	-0.029797	0.020871	-0.025104	-0.500488	-0.648682	-0.199463	0.616710	0.467764	-0.496726	0.392593
62100		9.532955	1.920952	0.661849	0.047367	0.014233	-0.016918	-0.493896	-0.635742	-0.187012	0.616552	0.468116	-0.496344	0.392904
62101		9.565244	1.956460	0.667307	-0.033944	0.010378	-0.017457	-0.500488	-0.641846	-0.189209	0.616844	0.467867	-0.496385	0.392690
62102		9.613336	1.808591	0.752508	0.021923	0.016371	-0.008963	-0.499268	-0.637939	-0.190186	0.616805	0.467967	-0.496156	0.392922
62103		9.592678	1.946688	0.799782	-0.041234	0.019537	-0.010165	-0.498291	-0.650391	-0.192871	0.617161	0.467570	-0.496208	0.392769
62104		9.572394	1.771270	0.770508	-0.003943	0.040899	-0.006252	-0.494385	-0.642334	-0.185791	0.617413	0.467335	-0.495928	0.393006
62105		9.498370	1.871217	0.783724	-0.009912	0.024223	-0.007126	-0.499023	-0.640869	-0.197998	0.617597	0.467145	-0.495799	0.393106
62106		9.541890	1.789280	0.757171	-0.012580	0.023037	-0.008217	-0.506348	-0.640625	-0.196777	0.617802	0.466936	-0.495696	0.393162
62107		9.630653	1.836595	0.728310	-0.003061	0.020821	-0.011465	-0.495850	-0.652344	-0.191895	0.617951	0.466830	-0.495548	0.393241
62108		9.572974	1.967370	0.752789	-0.038673	0.025131	-0.011485	-0.494385	-0.645020	-0.193115	0.618331	0.466441	-0.495524	0.393135
62109		9.556673	1.852693	0.776071	-0.033423	0.025815	-0.005004	-0.503906	-0.646484	-0.198730	0.618654	0.466046	-0.495510	0.393112
62110		9.538859	1.957679	0.827652	-0.042505	0.024690	-0.000366	-0.506348	-0.634766	-0.197510	0.619002	0.465551	-0.495586	0.393056
62111		9.573757	1.816304	0.799679	-0.057966	0.031572	0.000788	-0.489990	-0.639160	-0.200439	0.619476	0.464889	-0.495699	0.392950
62112		9.623845	1.826050	0.801106	-0.033180	0.035180	0.002403	-0.497070	-0.639648	-0.194824	0.619824	0.464399	-0.495657	0.393034
62113		9.587305	1.866688	0.774306	-0.051001	0.028190	0.002375	-0.502930	-0.641602	-0.197998	0.620225	0.463809	-0.495756	0.392974
62114		9.579852	1.749982	0.792367	-0.043506	0.022141	0.001450	-0.494629	-0.641357	-0.204346	0.620549	0.463310	-0.495863	0.392916
62115		9.573505	1.739703	0.805791	-0.026657	0.012283	-0.002682	-0.493408	-0.642822	-0.199951	0.620741	0.463013	-0.495938	0.392867
62116		9.580203	1.855132	0.800133	-0.010181	0.014509	-0.001153	-0.503418	-0.636963	-0.199219	0.620840	0.462831	-0.495916	0.392953
62117		9.573007	1.901806	0.857572	-0.013803	0.011953	0.002503	-0.498291	-0.635498	-0.198486	0.620923	0.462603	-0.495967	0.393027
62118		9.566764	1.799490	0.815328	-0.011222	0.010284	0.006559	-0.497559	-0.638428	-0.205322	0.620961	0.462381	-0.496036	0.393140
62119		9.589379	1.843853	0.844268	-0.002763	0.009212	0.008206	-0.499756	-0.642578	-0.204834	0.620943	0.462215	-0.496084	0.393304
62120		9.587019	1.766281	0.810960	-0.022497	0.003221	0.006675	-0.501221	-0.646240	-0.206299	0.621007	0.461937	-0.496263	0.393303
62121		9.600521	1.605859	0.831684	-0.008191	0.005632	-0.002939	-0.502441	-0.642822	-0.210938	0.621050	0.461820	-0.496296	0.393331
62122		9.617291	1.770436	0.867441	0.004352	0.003745	-0.003595	-0.499512	-0.639893	-0.198975	0.621019	0.461804	-0.496287	0.393411
62123		9.621116	1.839600	0.846199	-0.010563	0.000376	-0.004756	-0.496582	-0.642578	-0.203857	0.621044	0.461712	-0.496358	0.393389
62124		9.576847	1.817177	0.845039	0.001451	0.001248	-0.001198	-0.491455	-0.637451	-0.205078	0.620995	0.461684	-0.496382	0.393470
62125		9.574228	1.742143	0.809485	0.004606	-0.001196	-0.002178	-0.506348	-0.640625	-0.203369	0.620921	0.461695	-0.496405	0.393543
62126		9.583857	1.855617	0.822802	0.012522	-0.002880	-0.000247	-0.502197	-0.639648	-0.195557	0.620775	0.461761	-0.496425	0.393672
62127		9.592438	1.856228	0.816503	-0.005995	-0.007816	0.001834	-0.503906	-0.644531	-0.205078	0.620686	0.461707	-0.496574	0.393689
62128		9.577023	1.733005	0.808476	-0.002792	-0.007148	0.001347	-0.503906	-0.643555	-0.193848	0.620596	0.461667	-0.496705	0.393710
62129		9.599813	1.708135	0.841517	0.001399	-0.012608	-0.002005	-0.497559	-0.645996	-0.205811	0.620450	0.461724	-0.496826	0.393722
62130		9.590142	1.815830	0.817286	0.016744	-0.014721	-0.000397	-0.499756	-0.631104	-0.205322	0.620211	0.461890	-0.496898	0.393812
62131		9.572108	1.844405	0.786295	0.004029	-0.011167	0.002543	-0.499756	-0.644287	-0.199951	0.620059	0.461901	-0.497051	0.393846
62132		9.589064	1.731538	0.814720	0.002248	-0.012702	0.000935	-0.508545	-0.639160	-0.196045	0.619903	0.461941	-0.497185	0.393875
62133		9.623121	1.741178	0.813499	0.013360	-0.005219	0.000063	-0.498047	-0.640137	-0.211914	0.619728	0.462028	-0.497218	0.394007
62134		9.606903	1.789296	0.809848	0.009407	-0.008064	0.000910	-0.502197	-0.640625	-0.202881	0.619581	0.462077	-0.497301	0.394077
62135		9.590641	1.830348	0.784934	0.014324	-0.008839	0.003261	-0.496826	-0.637939	-0.208740	0.619374	0.462165	-0.497372	0.394209
62136		9.598779	1.774305	0.767727	0.001347	-0.012215	0.003166	-0.494629	-0.634277	-0.205566	0.619234	0.462160	-0.497538	0.394225
62137		9.597441	1.767540	0.780881	0.012761	-0.006558	0.004199	-0.495850	-0.640137	-0.201416	0.619055	0.462212	-0.497607	0.394357
62138		9.593120	1.720453	0.802956	0.004435	-0.008019	0.002414	-0.500488	-0.644043	-0.198975	0.618916	0.462232	-0.497705	0.394429
62139		9.605124	1.733083	0.764073	0.020009	-0.008814	0.000511	-0.500977	-0.635986	-0.205811	0.618685	0.462394	-0.497717	0.394588
62140		9.645560	1.723965	0.732155	0.012271	-0.005304	0.001951	-0.499023	-0.634033	-0.204102	0.618527	0.462445	-0.497774	0.394702
62141		9.612860	1.784145	0.779765	0.008001	-0.008571	-0.001725	-0.509277	-0.642090	-0.200195	0.618391	0.462504	-0.497854	0.394745
62142		9.595822	1.698843	0.754977	0.007675	-0.007739	-0.003226	-0.502441	-0.635254	-0.196533	0.618257	0.462574	-0.497918	0.394793
62143		9.605238	1.728585	0.734376	0.013567	-0.006147	-0.006051	-0.502197	-0.636963	-0.195557	0.618110	0.462705	-0.497918	0.394869
62144		9.612055	1.809550	0.775954	0.019142	-0.000220	-0.004740	-0.512451	-0.637695	-0.196289	0.617960	0.462845	-0.497848	0.395028
62145		9.601108	1.818775	0.776722	0.008234	-0.004880	-0.000896	-0.495605	-0.641602	-0.198730	0.617823	0.462889	-0.497908	0.395115
62146		9.604659	1.759795	0.753028	0.010876	-0.004686	0.000619	-0.497803	-0.647949	-0.192627	0.617676	0.462959	-0.497929	0.395237
62147		9.619458	1.664192	0.704432	0.012315	-0.004564	-0.001889	-0.502686	-0.636963	-0.198975	0.617519	0.463075	-0.497909	0.395372
62148		9.605987	1.724616	0.767009	0.002348	-0.000496	-0.006448	-0.509277	-0.634521	-0.192871	0.617482	0.463087	-0.497923	0.395398
62149		9.615844	1.662521	0.755272	-0.001713	-0.003456	-0.013217	-0.512451	-0.635254	-0.197510	0.617470	0.463126	-0.497948	0.395339
62150		9.622038	1.661054	0.765041	0.005910	-0.004685	-0.017939	-0.505371	-0.636475	-0.193848	0.617438	0.463247	-0.497930	0.395270
62151		9.598723	1.775204	0.760097	0.005891	-0.006930	-0.020545	-0.501709	-0.638184	-0.199707	0.617399	0.463413	-0.497891	0.395184
62152		9.586246	1.803337	0.741577	0.002874	-0.007022	-0.019711	-0.503662	-0.637207	-0.193848	0.617388	0.463543	-0.497874	0.395071
62153		9.603673	1.765744	0.725738	0.010115	-0.005632	-0.016044	-0.504150	-0.644775	-0.195312	0.617311	0.463709	-0.497828	0.395055
62154		9.598808	1.765917	0.715681	0.003146	-0.009702	-0.015659	-0.499756	-0.638916	-0.195312	0.617249	0.463846	-0.497837	0.394979
62155		9.637878	1.746614	0.739482	-0.004199	-0.005319	-0.016984	-0.503418	-0.632324	-0.203857	0.617268	0.463907	-0.497847	0.394865
62156		9.596134	1.774431	0.749923	-0.008029	-0.000962	-0.015582	-0.500732	-0.635742	-0.194092	0.617350	0.463870	-0.497891	0.394724
62157		9.591832	1.752742	0.739664	-0.013561	-0.004909	-0.017702	-0.500488	-0.629639	-0.193115	0.617427	0.463859	-0.497946	0.394548
62158		9.587673	1.822591	0.781955	-0.012149	-0.004519	-0.016774	-0.497314	-0.648193	-0.205566	0.617493	0.463843	-0.498009	0.394386
62159		9.632798	1.813231	0.702632	0.000432	-0.000875	-0.012635	-0.500732	-0.636475	-0.199951	0.617513	0.463883	-0.497981	0.394341
62160		9.568220	1.990351	0.774295	-0.013328	-0.005822	-0.003772	-0.502686	-0.634033	-0.198975	0.617527	0.463776	-0.498135	0.394251
62161		9.599177	1.691765	0.742061	-0.016510	-0.004253	-0.000670	-0.498779	-0.635986	-0.195557	0.617551	0.463615	-0.498316	0.394173
62162		9.604171	1.674243	0.746993	0.011992	-0.003699	-0.003399	-0.497070	-0.640381	-0.190186	0.617419	0.463708	-0.498315	0.394274
62163		9.591656	1.770030	0.720049	0.004625	-0.001566	-0.007323	-0.496826	-0.629150	-0.196289	0.617348	0.463781	-0.498285	0.394335
62164		9.590476	1.744193	0.733000	0.001602	-0.002788	-0.007792	-0.496338	-0.644775	-0.196045	0.617311	0.463802	-0.498319	0.394327
62165		9.607340	1.761290	0.764145	-0.005453	-0.002481	-0.009803	-0.502930	-0.639648	-0.195068	0.617320	0.463809	-0.498332	0.394286
62166		9.653581	1.693125	0.736618	0.003877	0.006858	-0.008401	-0.503174	-0.643066	-0.196533	0.617322	0.463819	-0.498261	0.394362
62167		9.610261	1.798450	0.700410	-0.003914	0.006107	-0.008746	-0.498779	-0.633057	-0.196777	0.617368	0.463777	-0.498228	0.394381
62168		9.587611	1.760939	0.696281	-0.006805	0.001232	-0.010659	-0.502930	-0.642578	-0.197510	0.617418	0.463733	-0.498252	0.394325
62169		9.584702	1.820554	0.779144	0.001314	0.002405	-0.005794	-0.503418	-0.638916	-0.198486	0.617399	0.463728	-0.498241	0.394374
62170		9.591358	1.775016	0.725953	-0.001698	0.001053	-0.007978	-0.505371	-0.634521	-0.191650	0.617403	0.463709	-0.498256	0.394370
62171		9.612728	1.710993	0.733792	0.011069	0.004031	-0.006525	-0.496582	-0.635254	-0.190186	0.617327	0.463775	-0.498193	0.394492
62172		9.625006	1.717787	0.736967	0.013360	0.001699	-0.010421	-0.508301	-0.645752	-0.196533	0.617243	0.463911	-0.498087	0.394596
62173		9.609545	1.781348	0.740017	0.003606	-0.001177	-0.012706	-0.502686	-0.637939	-0.198730	0.617216	0.463986	-0.498055	0.394592
62174		9.595591	1.801409	0.738697	0.002530	-0.001275	-0.010826	-0.500977	-0.635986	-0.197998	0.617199	0.464025	-0.498054	0.394574
62175		9.591603	1.778408	0.728665	0.011432	0.003943	-0.008861	-0.503662	-0.647461	-0.198975	0.617154	0.464094	-0.497981	0.394656
62176		9.606356	1.776162	0.735362	0.005439	0.005718	-0.008022	-0.499268	-0.636230	-0.194092	0.617146	0.464121	-0.497904	0.394732
62177		9.622658	1.730365	0.738212	-0.001467	0.004606	-0.008874	-0.505371	-0.645264	-0.199951	0.617170	0.464102	-0.497875	0.394754
62178		9.602841	1.739954	0.746241	-0.000585	0.004258	-0.009375	-0.508057	-0.642090	-0.197754	0.617197	0.464088	-0.497845	0.394766
62179		9.591682	1.813590	0.779442	-0.014729	0.002862	-0.012579	-0.504395	-0.643555	-0.195312	0.617307	0.463988	-0.497888	0.394658
62180		9.592222	1.702992	0.725821	0.001742	0.006288	-0.009774	-0.503906	-0.639160	-0.195068	0.617322	0.463998	-0.497818	0.394711
62181		9.616857	1.757492	0.700711	0.006155	0.004545	-0.012282	-0.496582	-0.634033	-0.202148	0.617315	0.464058	-0.497737	0.394754
62182		9.606668	1.823457	0.772744	0.002054	0.002094	-0.012177	-0.506348	-0.640869	-0.192871	0.617347	0.464070	-0.497712	0.394721
62183		9.579079	1.804084	0.762001	0.000247	0.000933	-0.008637	-0.507080	-0.641113	-0.199219	0.617323	0.464087	-0.497705	0.394746
62184		9.594596	1.822400	0.733546	-0.007765	-0.002273	-0.006791	-0.501709	-0.632568	-0.203369	0.617338	0.464023	-0.497792	0.394689
62185		9.623701	1.724774	0.729178	-0.012136	0.000081	-0.009831	-0.500244	-0.639404	-0.202637	0.617429	0.463905	-0.497889	0.394562
62186		9.601455	1.750026	0.755110	-0.002327	0.006949	-0.009186	-0.498291	-0.635742	-0.193359	0.617498	0.463847	-0.497861	0.394559
62187		9.581558	1.808836	0.751667	-0.008426	0.000514	-0.008485	-0.504639	-0.634277	-0.195312	0.617529	0.463800	-0.497893	0.394525
62188		9.640920	1.745250	0.727127	0.005035	0.002594	-0.007864	-0.495117	-0.640869	-0.202881	0.617494	0.463823	-0.497873	0.394579
62189		9.594259	1.795771	0.753124	-0.011108	-0.002796	-0.010471	-0.505127	-0.638916	-0.195068	0.617564	0.463763	-0.497938	0.394456
62190		9.595470	1.698748	0.739414	-0.003296	-0.001154	-0.012241	-0.500488	-0.636719	-0.201416	0.617572	0.463778	-0.497950	0.394411
62191		9.546555	1.773464	0.706896	-0.000471	-0.002738	-0.014707	-0.506104	-0.640625	-0.204834	0.617593	0.463815	-0.497960	0.394322
62192		9.587350	1.760188	0.716219	-0.009135	-0.003290	-0.016265	-0.498291	-0.642334	-0.195557	0.617676	0.463783	-0.498024	0.394150
62193		9.620794	1.682415	0.760607	0.000632	-0.001884	-0.020412	-0.503418	-0.640381	-0.206787	0.617704	0.463899	-0.497948	0.394066
62194		9.630775	1.735622	0.767981	0.004061	0.003363	-0.022204	-0.500732	-0.633545	-0.199219	0.617790	0.463967	-0.497863	0.393957
62195		9.621099	1.789958	0.761534	0.002607	-0.001250	-0.024901	-0.497314	-0.642334	-0.183105	0.617843	0.464085	-0.497791	0.393826
62196		9.591138	1.810473	0.733360	0.011435	-0.001101	-0.022589	-0.491943	-0.642578	-0.197021	0.617777	0.464346	-0.497600	0.393864
62197		9.589014	1.824087	0.693471	0.006666	0.000471	-0.021164	-0.499512	-0.638916	-0.202393	0.617800	0.464501	-0.497464	0.393817
62198		9.599835	1.855110	0.698742	0.014107	0.004583	-0.016288	-0.499023	-0.634766	-0.200195	0.617795	0.464619	-0.497340	0.393841
62199		9.595733	1.902999	0.740127	-0.001484	0.003253	-0.013569	-0.506348	-0.639160	-0.191650	0.617853	0.464606	-0.497324	0.393786
62200		9.594126	1.794262	0.759027	-0.005569	0.003027	-0.010868	-0.500244	-0.639893	-0.200684	0.617878	0.464582	-0.497322	0.393778
62201		9.600747	1.735456	0.760767	-0.005457	-0.003603	-0.011075	-0.502197	-0.643066	-0.197998	0.617903	0.464564	-0.497384	0.393681
62202		9.600966	1.772802	0.767208	-0.005274	-0.004267	-0.013744	-0.498779	-0.634521	-0.195312	0.617924	0.464583	-0.497420	0.393581
62203		9.599475	1.728821	0.717224	0.001093	-0.007341	-0.019917	-0.504883	-0.649902	-0.196045	0.617912	0.464703	-0.497418	0.393460
62204		9.608970	1.830923	0.712254	0.000634	0.001368	-0.018193	-0.502197	-0.639404	-0.193604	0.617945	0.464786	-0.497338	0.393413
62205		9.601799	1.797602	0.734164	-0.000954	0.002635	-0.016853	-0.495850	-0.636963	-0.197510	0.617981	0.464833	-0.497278	0.393375
62206		9.596249	1.770236	0.739726	0.000584	-0.003723	-0.017846	-0.502930	-0.639893	-0.197754	0.617997	0.464916	-0.497259	0.393276
62207		9.593612	1.824606	0.763839	0.001996	-0.003327	-0.016923	-0.501221	-0.642578	-0.197510	0.617995	0.464996	-0.497249	0.393197
62208		9.598599	1.831678	0.734446	0.002881	-0.002551	-0.016123	-0.506348	-0.640869	-0.199463	0.617991	0.465083	-0.497220	0.393138
62209		9.585234	1.824132	0.709401	0.007977	-0.005933	-0.015635	-0.501221	-0.645264	-0.204590	0.617936	0.465200	-0.497224	0.393080
62210		9.593318	1.766366	0.672775	-0.002094	-0.007034	-0.019815	-0.497803	-0.642822	-0.196045	0.617983	0.465262	-0.497256	0.392891
62211		9.611232	1.812704	0.749830	0.003951	-0.002555	-0.019694	-0.504395	-0.643066	-0.188232	0.617989	0.465389	-0.497188	0.392818
62212		9.585596	1.919422	0.724738	0.003744	-0.004996	-0.017500	-0.499512	-0.642578	-0.203125	0.617928	0.465541	-0.497140	0.392795
62213		9.602424	1.882200	0.746143	0.001797	-0.002532	-0.012535	-0.498779	-0.636719	-0.181641	0.617941	0.465566	-0.497162	0.392716
62214		9.596861	1.825597	0.764673	-0.011499	-0.005972	-0.010282	-0.500732	-0.646240	-0.189941	0.617904	0.465589	-0.497213	0.392684
62215		9.637897	1.790859	0.711408	-0.001054	-0.002833	-0.007547	-0.499023	-0.641846	-0.186523	0.617847	0.465635	-0.497217	0.392714
62216		9.619628	1.806325	0.701263	0.000157	-0.008473	-0.011737	-0.500732	-0.641113	-0.195068	0.617757	0.465753	-0.497229	0.392701
62217		9.563180	1.794073	0.736352	-0.011889	-0.012461	-0.014015	-0.495605	-0.634766	-0.197266	0.617760	0.465763	-0.497363	0.392514
62218		9.563178	1.734822	0.704167	-0.003893	-0.008323	-0.017974	-0.501709	-0.639648	-0.197998	0.617782	0.465818	-0.497420	0.392343
62219		9.579435	1.852372	0.674787	0.010277	-0.003855	-0.016024	-0.494873	-0.642334	-0.186768	0.617733	0.465947	-0.497389	0.392306
62220		9.573933	1.915345	0.696161	0.005175	0.000635	-0.015209	-0.500244	-0.638428	-0.197754	0.617693	0.466087	-0.497273	0.392349
62221		9.596043	1.846585	0.682739	0.000211	-0.000387	-0.013304	-0.500244	-0.638916	-0.192627	0.617714	0.466101	-0.497284	0.392285
62222		9.602128	1.823671	0.727364	0.002662	-0.003852	-0.012614	-0.499268	-0.636963	-0.186768	0.617672	0.466175	-0.497289	0.392257
62223		9.593196	1.826033	0.731312	-0.004057	-0.004558	-0.014823	-0.498779	-0.640381	-0.195068	0.617649	0.466241	-0.497298	0.392202
62224		9.569258	1.860397	0.715870	0.003022	-0.002815	-0.013645	-0.502197	-0.644287	-0.180420	0.617630	0.466312	-0.497290	0.392160
62225		9.575356	1.845346	0.684730	0.009062	0.001557	-0.015236	-0.500488	-0.630371	-0.197998	0.617534	0.466502	-0.497137	0.392279
62226		9.592552	1.829219	0.672804	0.012779	0.003008	-0.014309	-0.498291	-0.644043	-0.188232	0.617522	0.466563	-0.497101	0.392270
62227		9.568978	1.904612	0.686327	0.004988	0.002420	-0.011242	-0.502441	-0.650146	-0.186523	0.617478	0.466656	-0.497011	0.392343
62228		9.593317	1.882360	0.684938	0.007437	-0.002037	-0.010140	-0.501709	-0.645508	-0.197998	0.617369	0.466805	-0.496929	0.392441
62229		9.587231	1.874614	0.692647	-0.002450	0.001987	-0.007095	-0.500732	-0.644775	-0.189941	0.617390	0.466759	-0.496956	0.392429
62230		9.576995	1.862317	0.693316	0.001799	0.004177	-0.004753	-0.498535	-0.645020	-0.200928	0.617350	0.466765	-0.496921	0.392529
62231		9.592713	1.796586	0.670543	-0.002251	0.006664	-0.006696	-0.498047	-0.642578	-0.195312	0.617415	0.466685	-0.496917	0.392527
62232		9.590321	1.882759	0.704573	0.007842	0.010665	-0.005459	-0.501953	-0.642578	-0.187988	0.617415	0.466678	-0.496824	0.392653
62233		9.582889	1.882568	0.675177	-0.002595	0.008615	-0.006893	-0.496094	-0.644531	-0.198242	0.617430	0.466642	-0.496768	0.392743
62234		9.601837	1.862457	0.725225	0.001802	0.006408	-0.002164	-0.501709	-0.640625	-0.197754	0.617437	0.466585	-0.496753	0.392818
62235		9.605523	1.832153	0.727962	-0.003846	0.009274	-0.000661	-0.496826	-0.641846	-0.187256	0.617483	0.466437	-0.496789	0.392876
62236		9.591223	1.814695	0.722184	-0.000137	0.008619	-0.000617	-0.501465	-0.646729	-0.192627	0.617453	0.466397	-0.496735	0.393039
62237		9.574555	1.847642	0.741043	-0.003677	0.006628	-0.002502	-0.501465	-0.644775	-0.193115	0.617457	0.466332	-0.496721	0.393129
62238		9.601545	1.780093	0.737532	-0.004201	0.006887	-0.004328	-0.500488	-0.643311	-0.194092	0.617478	0.466263	-0.496707	0.393194
62239		9.605659	1.805989	0.712925	0.001110	0.008082	-0.005142	-0.495605	-0.643311	-0.196533	0.617488	0.466225	-0.496661	0.393283
62240		9.586050	1.842125	0.708133	0.000230	0.008302	-0.006346	-0.497070	-0.643799	-0.195557	0.617527	0.466185	-0.496603	0.393341
62241		9.582726	1.824399	0.720733	-0.002616	0.006868	-0.002663	-0.496094	-0.642822	-0.191406	0.617549	0.466111	-0.496590	0.393411
62242		9.602943	1.789153	0.788548	-0.007768	-0.001197	-0.005461	-0.500732	-0.643066	-0.188721	0.617544	0.466078	-0.496628	0.393409
62243		9.619153	1.744187	0.730653	-0.004921	0.003583	-0.005260	-0.501709	-0.644043	-0.193359	0.617532	0.466049	-0.496618	0.393475
62244		9.631963	1.805928	0.707029	0.002148	0.000998	-0.007546	-0.490479	-0.637939	-0.198975	0.617494	0.466078	-0.496601	0.393523
62245		9.601248	1.863971	0.744719	-0.006498	0.005594	-0.007741	-0.506592	-0.636719	-0.190430	0.617589	0.465983	-0.496608	0.393478
62246		9.579840	1.853134	0.727108	-0.007927	0.002209	-0.007432	-0.500732	-0.642090	-0.197266	0.617606	0.465900	-0.496676	0.393463
62247		9.555559	1.823273	0.719600	0.002499	0.002274	-0.005169	-0.506348	-0.644287	-0.187256	0.617586	0.465883	-0.496685	0.393503
62248		9.595762	1.823367	0.711001	-0.007590	-0.001734	-0.006417	-0.501465	-0.637451	-0.194824	0.617542	0.465873	-0.496725	0.393533
62249		9.594671	1.735094	0.731508	-0.003679	0.003169	-0.008080	-0.491699	-0.637207	-0.192871	0.617572	0.465813	-0.496758	0.393516
62250		9.604278	1.792440	0.760388	-0.001724	0.002836	-0.012145	-0.493896	-0.642822	-0.199463	0.617610	0.465829	-0.496711	0.393497
62251		9.598442	1.834387	0.720914	-0.007027	0.001402	-0.014735	-0.495605	-0.641357	-0.194824	0.617705	0.465809	-0.496697	0.393387
62252		9.569987	1.843377	0.732644	-0.001572	-0.003674	-0.010649	-0.497070	-0.642090	-0.185059	0.617692	0.465849	-0.496711	0.393345
62253		9.569351	1.811393	0.724805	0.008866	-0.000615	-0.009614	-0.498535	-0.641113	-0.192383	0.617576	0.466006	-0.496606	0.393473
62254		9.595535	1.829597	0.714751	0.008340	0.000760	-0.010144	-0.489990	-0.639648	-0.193848	0.617515	0.466101	-0.496542	0.393536
62255		9.592535	1.868703	0.698278	0.008342	0.002871	-0.009258	-0.504395	-0.639160	-0.191895	0.617485	0.466184	-0.496450	0.393602
62256		9.598807	1.838109	0.723050	-0.002451	0.000881	-0.008378	-0.497070	-0.642090	-0.196045	0.617475	0.466159	-0.496485	0.393601
62257		9.588654	1.826094	0.722603	-0.000877	-0.004236	-0.006375	-0.495850	-0.644531	-0.193604	0.617440	0.466169	-0.496536	0.393580
62258		9.603921	1.851271	0.714095	-0.005296	-0.003785	-0.006878	-0.505615	-0.643799	-0.199707	0.617420	0.466177	-0.496569	0.393562
62259		9.600592	1.805920	0.738411	-0.003524	0.001989	-0.003519	-0.499268	-0.647217	-0.194092	0.617431	0.466084	-0.496645	0.393558
62260		9.603034	1.791641	0.721234	0.000557	0.003139	-0.008315	-0.500244	-0.641602	-0.200684	0.617420	0.466115	-0.496586	0.393613
62261		9.591487	1.794936	0.703089	0.004094	0.002909	-0.009014	-0.492676	-0.642334	-0.194092	0.617436	0.466107	-0.496581	0.393604
62262		9.596844	1.841472	0.702872	0.002500	0.002049	-0.008566	-0.499756	-0.640381	-0.196045	0.617426	0.466150	-0.496524	0.393642
62263		9.597847	1.856405	0.708221	-0.005635	0.000041	-0.009589	-0.494873	-0.645264	-0.192383	0.617461	0.466107	-0.496568	0.393582
62264		9.597318	1.823884	0.701342	0.001256	0.001348	-0.007037	-0.494385	-0.647705	-0.193848	0.617428	0.466155	-0.496512	0.393646
62265		9.580120	1.830577	0.732270	-0.000861	0.001745	-0.008821	-0.496094	-0.639160	-0.192871	0.617423	0.466202	-0.496443	0.393686
62266		9.606153	1.820617	0.736613	-0.000687	0.001326	-0.008077	-0.499512	-0.644287	-0.194336	0.617420	0.466202	-0.496439	0.393696
62267		9.591902	1.845956	0.756455	-0.001756	-0.001905	-0.006690	-0.494385	-0.645020	-0.192627	0.617389	0.466213	-0.496461	0.393704
62268		9.605636	1.816854	0.715649	-0.004059	-0.000740	-0.004117	-0.506104	-0.647461	-0.193604	0.617362	0.466213	-0.496463	0.393744
62269		9.606883	1.823999	0.699954	0.003372	0.000955	-0.005251	-0.500977	-0.646484	-0.192383	0.617292	0.466247	-0.496448	0.393833
62270		9.581498	1.815550	0.694064	-0.010598	-0.000895	-0.005995	-0.497559	-0.638916	-0.197266	0.617297	0.466203	-0.496488	0.393825
62271		9.621486	1.801597	0.740945	-0.000869	0.002977	-0.005826	-0.497314	-0.639160	-0.199463	0.617318	0.466148	-0.496515	0.393824
62272		9.625647	1.862028	0.722414	0.004962	0.004044	-0.003113	-0.499512	-0.642578	-0.195068	0.617310	0.466106	-0.496528	0.393870
62273		9.615551	1.814517	0.715957	-0.011132	0.001707	-0.003533	-0.501221	-0.642334	-0.191650	0.617347	0.465996	-0.496599	0.393853
62274		9.578858	1.751191	0.719530	-0.010952	0.004278	-0.004012	-0.495117	-0.647949	-0.194824	0.617381	0.465894	-0.496634	0.393876
62275		9.587124	1.815638	0.709411	0.002141	0.004126	-0.007054	-0.495361	-0.639404	-0.194336	0.617363	0.465946	-0.496538	0.393964
62276		9.578545	1.878333	0.709122	-0.004228	0.005776	-0.005604	-0.508545	-0.643311	-0.195068	0.617403	0.465881	-0.496527	0.393992
62277		9.616949	1.775891	0.717040	-0.005289	0.006531	-0.005848	-0.496582	-0.642090	-0.195801	0.617431	0.465791	-0.496548	0.394026
62278		9.597026	1.784309	0.725280	0.002140	0.004128	-0.007051	-0.504883	-0.648438	-0.196289	0.617429	0.465800	-0.496502	0.394078
62279		9.603635	1.808834	0.723661	0.002142	0.006123	-0.007865	-0.505371	-0.645508	-0.202393	0.617420	0.465818	-0.496429	0.394163
62280		9.562852	1.873840	0.727286	0.001255	0.005461	-0.006960	-0.498291	-0.641113	-0.200439	0.617447	0.465771	-0.496426	0.394180
62281		9.591761	1.847845	0.714525	0.003728	0.005108	-0.005796	-0.502441	-0.644043	-0.194824	0.617462	0.465741	-0.496410	0.394213
62282		9.595380	1.797569	0.750755	-0.000342	0.004713	-0.004814	-0.500244	-0.645020	-0.194580	0.617449	0.465716	-0.496391	0.394286
62283		9.596685	1.832377	0.722366	0.004253	0.003850	-0.003566	-0.499756	-0.643311	-0.195312	0.617397	0.465737	-0.496345	0.394400
62284		9.587969	1.839217	0.748430	-0.005645	-0.000722	-0.005777	-0.496826	-0.631348	-0.190674	0.617394	0.465705	-0.496383	0.394395
62285		9.619696	1.776216	0.751510	-0.002112	0.003272	-0.004703	-0.508301	-0.639160	-0.197266	0.617397	0.465636	-0.496428	0.394415
62286		9.593093	1.810350	0.714143	0.002665	0.004867	-0.005632	-0.502930	-0.635498	-0.200684	0.617388	0.465580	-0.496459	0.394455
62287		9.626056	1.766955	0.743961	-0.000522	0.007243	-0.004670	-0.498535	-0.643555	-0.184570	0.617443	0.465453	-0.496514	0.394450
62288		9.590797	1.813641	0.753829	0.005140	0.008506	-0.006094	-0.500732	-0.641846	-0.200195	0.617373	0.465539	-0.496354	0.394660
62289		9.597521	1.831011	0.731758	0.005138	0.005514	-0.004873	-0.503418	-0.640869	-0.197021	0.617372	0.465513	-0.496335	0.394717
62290		9.583292	1.814598	0.724501	-0.004230	0.001673	-0.005674	-0.502441	-0.644531	-0.187744	0.617385	0.465447	-0.496387	0.394709
62291		9.595481	1.758786	0.734110	0.000373	-0.001412	-0.007008	-0.508545	-0.644531	-0.195801	0.617296	0.465526	-0.496349	0.394802
62292		9.607682	1.834209	0.751556	-0.005113	0.000894	-0.006468	-0.500488	-0.636719	-0.201172	0.617290	0.465480	-0.496396	0.394808
62293		9.591942	1.811943	0.760073	-0.003525	0.004867	-0.006433	-0.506836	-0.645020	-0.188477	0.617361	0.465363	-0.496455	0.394759
62294		9.595979	1.769416	0.720183	-0.004758	0.000938	-0.007087	-0.494385	-0.646484	-0.198730	0.617312	0.465381	-0.496441	0.394832
62295		9.592830	1.780183	0.717657	-0.002100	0.000937	-0.008984	-0.498047	-0.640625	-0.191895	0.617334	0.465406	-0.496395	0.394826
62296		9.602052	1.802958	0.738746	0.001969	0.000340	-0.009556	-0.499023	-0.638672	-0.190430	0.617299	0.465468	-0.496351	0.394865
62297		9.604355	1.830607	0.749178	-0.002637	0.002426	-0.007813	-0.500244	-0.634277	-0.198730	0.617290	0.465466	-0.496334	0.394902
62298		9.604044	1.763736	0.735488	0.004616	0.003562	-0.009273	-0.504395	-0.647949	-0.196045	0.617312	0.465436	-0.496351	0.394880
62299		9.602162	1.815685	0.724401	0.001442	0.000605	-0.011374	-0.499268	-0.633301	-0.190186	0.617288	0.465505	-0.496295	0.394906
62300		9.605749	1.794475	0.746158	0.002497	0.001962	-0.010242	-0.495605	-0.651855	-0.193604	0.617271	0.465526	-0.496283	0.394924
62301		9.594123	1.832422	0.734920	0.004614	0.002567	-0.008864	-0.498779	-0.643066	-0.198486	0.617217	0.465659	-0.496129	0.395045
62302		9.581283	1.850644	0.698123	0.002135	0.004028	-0.008736	-0.498779	-0.635986	-0.190430	0.617233	0.465667	-0.496085	0.395067
62303		9.597553	1.771533	0.730222	0.001598	0.005517	-0.007567	-0.500977	-0.640137	-0.193604	0.617227	0.465660	-0.496049	0.395130
62304		9.595514	1.829612	0.740936	-0.000702	0.006444	-0.008394	-0.499512	-0.635498	-0.204834	0.617248	0.465637	-0.496008	0.395174
62305		9.599292	1.773105	0.756867	0.002652	0.006875	-0.006434	-0.497070	-0.635498	-0.193115	0.617326	0.465525	-0.496052	0.395131
62306		9.614511	1.812791	0.695445	0.001067	0.004897	-0.007282	-0.499023	-0.637451	-0.199951	0.617334	0.465502	-0.496033	0.395167
62307		9.564605	1.896693	0.766044	-0.003178	0.004911	-0.007047	-0.497559	-0.641113	-0.197510	0.617401	0.465407	-0.496070	0.395129
62308		9.580287	1.777059	0.710793	-0.007794	0.008102	-0.004018	-0.497070	-0.645996	-0.196289	0.617478	0.465286	-0.496075	0.395146
62309		9.620339	1.783972	0.724676	0.001412	0.005169	-0.004504	-0.495117	-0.639404	-0.194092	0.617466	0.465294	-0.496008	0.395237
62310		9.623978	1.851266	0.727608	-0.001419	0.006472	-0.005455	-0.493164	-0.641357	-0.194336	0.617488	0.465261	-0.495965	0.395297
62311		9.595745	1.768482	0.760863	-0.009191	0.004479	-0.007112	-0.498779	-0.633545	-0.204834	0.617550	0.465204	-0.495944	0.395293
62312		9.588247	1.781921	0.771999	-0.000875	0.003876	-0.007913	-0.504150	-0.650879	-0.197998	0.617637	0.465085	-0.496024	0.395197
62313		9.617456	1.749780	0.738525	0.004071	0.006062	-0.008496	-0.493896	-0.640869	-0.194336	0.617623	0.465136	-0.495919	0.395291
62314		9.597155	1.793191	0.753958	0.000710	0.006743	-0.009164	-0.501221	-0.640625	-0.200684	0.617650	0.465153	-0.495826	0.395345
62315		9.601116	1.758189	0.735203	0.004609	0.004578	-0.009662	-0.500488	-0.643555	-0.193848	0.617671	0.465151	-0.495797	0.395351
62316		9.591791	1.856163	0.741563	0.000018	0.002435	-0.009697	-0.511719	-0.634277	-0.201660	0.617658	0.465190	-0.495745	0.395391
62317		9.596956	1.812895	0.761581	-0.006522	0.001374	-0.009484	-0.504883	-0.630371	-0.204590	0.617723	0.465045	-0.495892	0.395274
62318		9.587942	1.820504	0.787884	-0.001936	0.002632	-0.007345	-0.490234	-0.636475	-0.196533	0.617794	0.464895	-0.496031	0.395167
62319		9.606077	1.796065	0.755688	-0.006517	-0.000622	-0.008672	-0.498779	-0.630859	-0.202637	0.617843	0.464860	-0.496059	0.395096
62320		9.600542	1.746874	0.735622	-0.000333	0.000396	-0.008266	-0.502197	-0.649170	-0.199219	0.617889	0.464775	-0.496155	0.395003
62321		9.599474	1.796901	0.784983	-0.004060	0.004026	-0.009531	-0.491455	-0.644287	-0.197754	0.617936	0.464757	-0.496121	0.394994
62322		9.603523	1.789483	0.752016	-0.001039	0.000195	-0.008724	-0.497314	-0.635986	-0.196777	0.617955	0.464787	-0.496082	0.394978
62323		9.603429	1.729733	0.757876	0.001819	-0.004435	-0.011645	-0.497803	-0.645752	-0.202637	0.617930	0.464837	-0.496110	0.394921
62324		9.598549	1.763589	0.756012	0.011367	-0.002313	-0.014770	-0.495850	-0.642578	-0.193604	0.617909	0.464969	-0.496044	0.394883
62325		9.592111	1.813085	0.736143	0.011346	0.002684	-0.016792	-0.497803	-0.633545	-0.199951	0.617878	0.465142	-0.495882	0.394932
62326		9.574262	1.849325	0.753089	-0.002084	-0.000498	-0.015342	-0.497314	-0.643311	-0.203613	0.617943	0.465126	-0.495918	0.394803
62327		9.593449	1.839453	0.725055	-0.002951	-0.004274	-0.014920	-0.501221	-0.637451	-0.200928	0.618005	0.465135	-0.495961	0.394641
62328		9.616865	1.784514	0.752224	0.000766	-0.005788	-0.012768	-0.500244	-0.642334	-0.196045	0.618002	0.465156	-0.496036	0.394528
62329		9.605036	1.823044	0.739346	0.000578	-0.004256	-0.012218	-0.496338	-0.622314	-0.198486	0.617975	0.465219	-0.496045	0.394482
62330		9.574988	1.874036	0.718440	0.000718	0.001538	-0.010516	-0.501709	-0.639893	-0.198975	0.618006	0.465160	-0.496117	0.394415
62331		9.566681	1.834129	0.695378	-0.010574	-0.003265	-0.010268	-0.512939	-0.643799	-0.203125	0.618058	0.465087	-0.496221	0.394289
62332		9.602859	1.755647	0.740667	-0.001946	0.003416	-0.011128	-0.496582	-0.639648	-0.204102	0.618105	0.465018	-0.496272	0.394232
62333		9.611601	1.806611	0.748679	0.003542	0.002245	-0.010373	-0.502197	-0.643066	-0.194580	0.618156	0.464997	-0.496281	0.394165
62334		9.567693	1.818826	0.754330	0.000739	-0.001674	-0.012687	-0.498047	-0.644775	-0.200195	0.618131	0.465064	-0.496259	0.394152
62335		9.579845	1.820102	0.736441	-0.002807	-0.000471	-0.012400	-0.506104	-0.634521	-0.193115	0.618184	0.465062	-0.496268	0.394061
62336		9.603238	1.792453	0.751045	-0.004921	-0.001970	-0.011676	-0.499756	-0.646240	-0.197754	0.618161	0.465063	-0.496316	0.394035
62337		9.615627	1.786888	0.712616	0.007958	0.002721	-0.011959	-0.499756	-0.639404	-0.201660	0.618147	0.465146	-0.496233	0.394063
62338		9.581840	1.888208	0.717675	0.002468	0.003890	-0.012711	-0.496094	-0.640625	-0.197266	0.618200	0.465137	-0.496217	0.394012
62339		9.578985	1.837868	0.721680	-0.007760	-0.000676	-0.012623	-0.497803	-0.647461	-0.200195	0.618264	0.465112	-0.496242	0.393911
62340		9.605307	1.800973	0.739809	-0.003899	0.002607	-0.008370	-0.495605	-0.641846	-0.198975	0.618323	0.465067	-0.496248	0.393862
62341		9.601767	1.839631	0.724184	-0.003018	0.003280	-0.009268	-0.489990	-0.645264	-0.189453	0.618379	0.465030	-0.496244	0.393824
62342		9.610339	1.780815	0.726690	-0.003198	0.003702	-0.010007	-0.497803	-0.646973	-0.194580	0.618394	0.465081	-0.496143	0.393866
62343		9.605055	1.799559	0.781379	-0.005449	-0.002592	-0.011389	-0.501953	-0.653320	-0.198975	0.618405	0.465110	-0.496144	0.393813
62344		9.606038	1.808192	0.765376	-0.009695	-0.002596	-0.011156	-0.498779	-0.637695	-0.197510	0.618461	0.465084	-0.496185	0.393705
62345		9.580835	1.794273	0.737802	0.003405	-0.003637	-0.013755	-0.505859	-0.638184	-0.194092	0.618435	0.465157	-0.496189	0.393654
62346		9.618027	1.784844	0.759244	-0.008759	-0.009135	-0.012608	-0.503662	-0.641113	-0.199463	0.618403	0.465171	-0.496301	0.393548
62347		9.596969	1.775088	0.738286	0.006087	-0.007609	-0.014026	-0.496338	-0.639648	-0.197021	0.618342	0.465272	-0.496337	0.393478
62348		9.582122	1.837461	0.667190	0.009930	-0.001649	-0.016062	-0.502441	-0.634766	-0.196289	0.618308	0.465408	-0.496267	0.393458
62349		9.565784	1.851940	0.681623	0.002652	0.001164	-0.016226	-0.499512	-0.644775	-0.188721	0.618313	0.465460	-0.496240	0.393423
62350		9.579002	1.825059	0.737929	0.006000	0.002501	-0.016366	-0.499756	-0.641602	-0.191162	0.618272	0.465614	-0.496096	0.393487
62351		9.592400	1.915046	0.724462	0.014105	0.005691	-0.014040	-0.499512	-0.641113	-0.197754	0.618207	0.465772	-0.495931	0.393610
62352		9.591786	1.917897	0.725050	0.009871	0.004004	-0.007926	-0.499268	-0.642822	-0.196045	0.618170	0.465817	-0.495880	0.393679
62353		9.577542	1.826728	0.718564	-0.000175	0.000099	-0.005811	-0.498291	-0.640381	-0.196289	0.618147	0.465807	-0.495905	0.393695
62354		9.609985	1.792188	0.707960	0.009161	0.004016	-0.005000	-0.498047	-0.648438	-0.195557	0.618094	0.465838	-0.495865	0.393792
62355		9.615426	1.857754	0.733991	-0.000040	0.004676	-0.007092	-0.501953	-0.639160	-0.192383	0.618108	0.465835	-0.495819	0.393833
62356		9.575907	1.865618	0.728298	-0.007128	0.006058	-0.006120	-0.492432	-0.646729	-0.197754	0.618135	0.465756	-0.495829	0.393872
62357		9.572143	1.828228	0.714543	-0.007274	0.002588	-0.003552	-0.502686	-0.636963	-0.195068	0.618185	0.465674	-0.495857	0.393854
62358		9.585954	1.798115	0.771510	-0.001619	0.003012	-0.002866	-0.505127	-0.642822	-0.194824	0.618158	0.465608	-0.495907	0.393910
62359		9.582151	1.863139	0.742478	0.001890	0.005929	-0.003074	-0.506104	-0.629395	-0.188965	0.618125	0.465572	-0.495898	0.394018
62360		9.576135	1.799981	0.718611	-0.002878	0.005181	-0.004254	-0.503174	-0.635742	-0.193848	0.618080	0.465511	-0.495928	0.394122
62361		9.604272	1.768147	0.721268	0.003002	0.000863	-0.006284	-0.499512	-0.641846	-0.205078	0.618023	0.465518	-0.495948	0.394178
62362		9.604562	1.795831	0.768326	-0.001798	0.003328	-0.005295	-0.495361	-0.639893	-0.193604	0.618085	0.465412	-0.496016	0.394121
62363		9.590813	1.854291	0.759644	0.010209	0.005277	-0.005555	-0.491699	-0.639160	-0.197754	0.618025	0.465475	-0.495929	0.394249
62364		9.556061	1.852213	0.719400	0.002463	0.001450	-0.003026	-0.498779	-0.636719	-0.197021	0.618011	0.465452	-0.495945	0.394278
62365		9.577677	1.797273	0.724399	0.006517	0.002889	-0.004396	-0.498779	-0.643555	-0.202881	0.617967	0.465452	-0.495945	0.394347
62366		9.593347	1.821089	0.777198	0.006710	0.001360	-0.004943	-0.503662	-0.638916	-0.197021	0.617954	0.465440	-0.495966	0.394354
62367		9.585148	1.889234	0.760235	0.002089	0.003402	-0.003217	-0.499512	-0.646484	-0.196533	0.617923	0.465397	-0.495995	0.394419
62368		9.600183	1.831887	0.733942	0.004212	0.003125	0.000252	-0.505127	-0.640381	-0.201904	0.617871	0.465376	-0.495997	0.394522
62369		9.592927	1.843337	0.744269	0.011455	0.003543	0.002597	-0.500244	-0.638916	-0.186768	0.617786	0.465335	-0.496042	0.394647
62370		9.596475	1.820360	0.706650	0.006985	0.008163	0.003850	-0.497803	-0.642578	-0.185303	0.617664	0.465342	-0.495973	0.394916
62371		9.582464	1.910942	0.705820	0.006277	0.008066	0.005082	-0.498779	-0.636719	-0.193115	0.617540	0.465356	-0.495889	0.395198
62372		9.582977	1.881470	0.721779	-0.006492	0.011339	0.009617	-0.491455	-0.638428	-0.186279	0.617536	0.465153	-0.495944	0.395374
62373		9.584794	1.782424	0.724282	0.001437	0.013856	0.009929	-0.501709	-0.645264	-0.191406	0.617473	0.465063	-0.495870	0.395672
62374		9.615661	1.751825	0.773835	0.003041	0.012630	0.008611	-0.494873	-0.632324	-0.196777	0.617408	0.464972	-0.495822	0.395941
62375		9.625931	1.729428	0.769852	-0.004021	0.011794	0.007000	-0.496338	-0.638672	-0.193359	0.617440	0.464769	-0.495873	0.396066
62376		9.609454	1.719188	0.761305	0.002380	0.008993	0.002605	-0.501221	-0.639893	-0.193604	0.617410	0.464703	-0.495841	0.396228
62377		9.597485	1.761026	0.771670	-0.001261	0.002277	0.000301	-0.504150	-0.642822	-0.191650	0.617362	0.464654	-0.495874	0.396320
62378		9.587936	1.767893	0.737868	-0.002159	0.003602	0.000389	-0.497559	-0.645996	-0.198730	0.617308	0.464610	-0.495885	0.396442
62379		9.579128	1.773526	0.764350	0.005261	0.004379	-0.000302	-0.505615	-0.634033	-0.196533	0.617275	0.464597	-0.495858	0.396542
62380		9.570919	1.765865	0.749521	0.009826	0.007554	-0.000658	-0.498535	-0.642334	-0.190674	0.617213	0.464567	-0.495844	0.396692
62381		9.615282	1.749277	0.784245	0.010056	0.002805	-0.003375	-0.501465	-0.634033	-0.197510	0.617109	0.464658	-0.495758	0.396855
62382		9.604001	1.730449	0.800398	0.004910	0.005007	-0.005160	-0.496826	-0.633301	-0.201172	0.617099	0.464627	-0.495758	0.396907
62383		9.583952	1.759592	0.773707	0.007386	0.005455	-0.007777	-0.499023	-0.639648	-0.191650	0.617122	0.464609	-0.495739	0.396915
62384		9.574602	1.836555	0.717703	0.009507	0.005074	-0.005993	-0.501221	-0.639160	-0.196289	0.617056	0.464682	-0.495643	0.397052
62385		9.624095	1.960284	0.715669	-0.008671	0.000495	0.001389	-0.503174	-0.635254	-0.197266	0.617056	0.464555	-0.495752	0.397065
62386		9.609781	1.858776	0.785534	-0.019096	-0.001251	0.006664	-0.497803	-0.640625	-0.194824	0.617081	0.464303	-0.495983	0.397032
62387		9.617988	1.632808	0.784958	-0.023975	-0.008582	0.007562	-0.500488	-0.634521	-0.190674	0.617079	0.464088	-0.496245	0.396958
62388		9.631590	1.655936	0.812641	-0.010890	-0.007700	0.002503	-0.495850	-0.637451	-0.193848	0.617001	0.464010	-0.496409	0.396966
62389		9.596700	1.708295	0.743369	-0.008772	-0.005621	-0.005377	-0.507324	-0.638672	-0.198242	0.616991	0.463981	-0.496495	0.396908
62390		9.625975	1.792044	0.734740	-0.016913	-0.004708	-0.007640	-0.506104	-0.642822	-0.189453	0.617047	0.463859	-0.496652	0.396768
62391		9.599242	1.723187	0.710608	-0.007895	-0.004942	-0.006271	-0.502441	-0.638672	-0.199463	0.616989	0.463877	-0.496697	0.396780
62392		9.595037	1.754022	0.769738	-0.001056	0.001213	-0.009100	-0.507324	-0.643066	-0.193848	0.617014	0.463857	-0.496714	0.396744
62393		9.602749	1.763984	0.785451	0.012227	-0.001007	-0.007151	-0.502441	-0.636230	-0.199951	0.616892	0.463986	-0.496652	0.396861
62394		9.578656	1.789578	0.749612	0.010239	0.003067	-0.008112	-0.496826	-0.641113	-0.198242	0.616864	0.464023	-0.496619	0.396902
62395		9.605578	1.745695	0.747002	0.008461	0.003716	-0.007127	-0.506348	-0.640625	-0.205078	0.616845	0.464074	-0.496550	0.396959
62396		9.599343	1.744507	0.775809	0.003721	0.000856	-0.009198	-0.505371	-0.638672	-0.203613	0.616867	0.464053	-0.496583	0.396907
62397		9.602587	1.778589	0.770316	0.004064	0.001906	-0.010215	-0.497803	-0.645996	-0.198486	0.616893	0.464041	-0.496598	0.396862
62398		9.603278	1.814609	0.741071	-0.004393	-0.001133	-0.008562	-0.500000	-0.637695	-0.191650	0.616928	0.464032	-0.496612	0.396801
62399		9.597035	1.759048	0.736807	-0.000713	0.001475	-0.006333	-0.507568	-0.635742	-0.194336	0.616900	0.464045	-0.496595	0.396850
62400		9.593029	1.729184	0.742448	-0.001378	-0.001947	-0.008962	-0.500000	-0.633545	-0.202148	0.616867	0.464054	-0.496635	0.396842
62401		9.619820	1.766805	0.758435	-0.004741	-0.002076	-0.005853	-0.503418	-0.643066	-0.195068	0.616902	0.463966	-0.496747	0.396749
62402		9.591454	1.773660	0.769402	-0.004532	-0.004713	-0.007686	-0.500244	-0.636963	-0.198975	0.616878	0.463978	-0.496797	0.396710
62403		9.591046	1.742766	0.701462	0.007087	0.000099	-0.010211	-0.504883	-0.640625	-0.188477	0.616859	0.464030	-0.496776	0.396704
62404		9.618077	1.753334	0.731014	0.000213	-0.002062	-0.008993	-0.507812	-0.638184	-0.202881	0.616788	0.464108	-0.496749	0.396757
62405		9.609379	1.808063	0.768347	0.004439	-0.000826	-0.006240	-0.498779	-0.639160	-0.190186	0.616767	0.464088	-0.496810	0.396738
62406		9.580243	1.795287	0.753840	0.001957	-0.000386	-0.005714	-0.503418	-0.641846	-0.208496	0.616705	0.464141	-0.496782	0.396808
62407		9.626043	1.731737	0.738848	0.006020	0.000059	-0.006675	-0.499023	-0.639648	-0.193115	0.616726	0.464108	-0.496835	0.396746
62408		9.627626	1.765564	0.769507	-0.001048	-0.000575	-0.004910	-0.508057	-0.639648	-0.197998	0.616695	0.464113	-0.496846	0.396775
62409		9.575551	1.774519	0.779447	-0.003661	-0.003824	-0.005200	-0.503174	-0.640381	-0.199463	0.616669	0.464074	-0.496943	0.396739
62410		9.564752	1.844644	0.737270	-0.013682	-0.008864	-0.004394	-0.506104	-0.635254	-0.196777	0.616686	0.463975	-0.497128	0.396597
62411		9.621722	1.746193	0.673491	-0.010964	0.000180	-0.002404	-0.496826	-0.642822	-0.192871	0.616709	0.463844	-0.497247	0.396567
62412		9.618626	1.701690	0.638486	-0.002353	0.004810	-0.004126	-0.497070	-0.633789	-0.194336	0.616720	0.463821	-0.497208	0.396624
62413		9.627824	1.729283	0.741845	0.001338	0.006997	-0.008654	-0.512451	-0.637695	-0.191895	0.616749	0.463813	-0.497145	0.396666
62414		9.620423	1.661524	0.734086	0.007505	0.008959	-0.010329	-0.502197	-0.638428	-0.199951	0.616715	0.463865	-0.497035	0.396799
62415		9.576132	1.748498	0.739756	0.021296	0.009187	-0.012837	-0.506348	-0.639648	-0.197510	0.616686	0.463994	-0.496862	0.396908
62416		9.582971	1.787709	0.743482	0.018983	0.010102	-0.013661	-0.503906	-0.638672	-0.190186	0.616658	0.464119	-0.496682	0.397030
62417		9.603280	1.844554	0.756024	0.011689	0.013101	-0.010467	-0.507080	-0.638916	-0.191895	0.616637	0.464201	-0.496490	0.397207
62418		9.562851	1.812605	0.760009	-0.003314	0.010924	-0.009430	-0.505371	-0.641113	-0.191650	0.616688	0.464156	-0.496413	0.397277
62419		9.589819	1.768797	0.759698	0.006221	0.011452	-0.006645	-0.499756	-0.642334	-0.196289	0.616675	0.464176	-0.496286	0.397432
62420		9.590736	1.776556	0.746795	-0.002460	0.012819	-0.007349	-0.500732	-0.639160	-0.200439	0.616765	0.464104	-0.496198	0.397487
62421		9.607443	1.752928	0.753861	-0.002449	0.011819	-0.006945	-0.496826	-0.635498	-0.200195	0.616867	0.463999	-0.496157	0.397502
62422		9.588162	1.773919	0.768615	0.001245	0.013224	-0.007686	-0.504883	-0.631348	-0.197998	0.616966	0.463917	-0.496084	0.397536
62423		9.602889	1.792960	0.743919	-0.000225	0.017029	-0.006837	-0.509277	-0.631836	-0.201904	0.617059	0.463796	-0.496011	0.397623
62424		9.588845	1.877344	0.784571	-0.002847	0.014093	-0.002070	-0.499756	-0.636719	-0.187500	0.617136	0.463614	-0.496031	0.397691
62425		9.586949	1.802994	0.825760	-0.013048	0.009666	0.001349	-0.492676	-0.640625	-0.197510	0.617164	0.463475	-0.496030	0.397811
62426		9.632448	1.649532	0.809922	-0.015628	0.004408	0.001857	-0.500732	-0.632080	-0.196777	0.617250	0.463288	-0.496116	0.397788
62427		9.603714	1.703349	0.775066	-0.002912	0.006292	-0.002962	-0.494873	-0.633545	-0.197510	0.617270	0.463199	-0.496135	0.397838
62428		9.613940	1.730986	0.781753	-0.019284	0.001479	-0.005437	-0.501953	-0.632080	-0.201416	0.617385	0.463028	-0.496243	0.397723
62429		9.615943	1.682910	0.794701	-0.014372	0.004620	-0.008079	-0.500488	-0.640869	-0.196533	0.617509	0.462861	-0.496329	0.397618
62430		9.608154	1.717451	0.771108	-0.005804	-0.000540	-0.009877	-0.505371	-0.637207	-0.200439	0.617536	0.462855	-0.496340	0.397569
62431		9.591467	1.736862	0.806612	-0.003154	-0.000395	-0.010061	-0.497803	-0.640625	-0.197266	0.617560	0.462830	-0.496380	0.397512
62432		9.590444	1.719839	0.780882	0.003193	0.001155	-0.010983	-0.502930	-0.639893	-0.197754	0.617561	0.462889	-0.496326	0.397509
62433		9.614214	1.760845	0.774061	0.000164	0.002861	-0.012672	-0.498779	-0.636963	-0.190430	0.617589	0.462916	-0.496280	0.397490
62434		9.598716	1.760809	0.747838	0.004575	0.003473	-0.012550	-0.501465	-0.639160	-0.199951	0.617559	0.463020	-0.496165	0.397559
62435		9.572403	1.787709	0.749473	-0.002509	0.003823	-0.011200	-0.510742	-0.639160	-0.197266	0.617618	0.462997	-0.496147	0.397518
62436		9.590130	1.756927	0.794151	-0.002893	0.005778	-0.011387	-0.499756	-0.639404	-0.195801	0.617653	0.462972	-0.496119	0.397528
62437		9.608845	1.780774	0.775607	-0.002747	0.007464	-0.009764	-0.494873	-0.641602	-0.202393	0.617706	0.462951	-0.496052	0.397552
62438		9.602329	1.753299	0.759560	-0.002769	0.008570	-0.008477	-0.498535	-0.640381	-0.204102	0.617811	0.462882	-0.496006	0.397527
62439		9.610256	1.735418	0.791003	-0.002203	0.006194	-0.007552	-0.502197	-0.641357	-0.197266	0.617893	0.462807	-0.496003	0.397492
62440		9.605335	1.739999	0.805371	-0.008022	0.005166	-0.008594	-0.503174	-0.635986	-0.193848	0.617958	0.462743	-0.495994	0.397474
62441		9.591415	1.745240	0.764519	-0.000984	0.007833	-0.011138	-0.499268	-0.639648	-0.196289	0.617985	0.462748	-0.495912	0.397529
62442		9.615019	1.738829	0.747461	0.000541	0.011837	-0.011080	-0.502930	-0.636719	-0.208496	0.618054	0.462740	-0.495787	0.397589
62443		9.563289	1.834859	0.823773	-0.002222	0.007200	-0.007948	-0.498779	-0.644287	-0.206299	0.618154	0.462624	-0.495817	0.397531
62444		9.580226	1.763950	0.817555	-0.002432	0.008833	-0.005712	-0.505127	-0.641357	-0.195312	0.618256	0.462518	-0.495805	0.397510
62445		9.602607	1.771075	0.781840	-0.003861	0.009524	-0.005346	-0.502197	-0.636475	-0.197998	0.618286	0.462458	-0.495753	0.397597
62446		9.605169	1.742384	0.821398	-0.003309	0.008150	-0.004822	-0.505615	-0.639648	-0.199707	0.618320	0.462383	-0.495734	0.397656
62447		9.613252	1.744634	0.818477	-0.003277	0.006143	-0.004023	-0.494873	-0.625732	-0.207764	0.618341	0.462306	-0.495742	0.397703
62448		9.580348	1.726989	0.797742	-0.002409	0.006930	-0.003225	-0.501709	-0.638428	-0.203857	0.618420	0.462156	-0.495806	0.397674
62449		9.595404	1.724296	0.805421	-0.000255	0.005342	-0.004416	-0.504639	-0.642578	-0.196533	0.618453	0.462084	-0.495821	0.397689
62450		9.607403	1.731010	0.809837	-0.001465	0.004300	-0.007971	-0.499512	-0.638184	-0.207031	0.618457	0.462083	-0.495782	0.397732
62451		9.595528	1.740476	0.813150	-0.001167	0.007467	-0.008094	-0.500732	-0.640137	-0.193604	0.618550	0.461996	-0.495778	0.397693
62452		9.590642	1.766078	0.792639	0.000532	0.001231	-0.007414	-0.494141	-0.639648	-0.206299	0.618510	0.462042	-0.495736	0.397755
62453		9.596261	1.750219	0.798775	0.000532	0.001232	-0.007413	-0.501709	-0.636719	-0.199463	0.618561	0.462006	-0.495758	0.397690
62454		9.598882	1.743232	0.802070	0.003869	0.002594	-0.007532	-0.503174	-0.632324	-0.202881	0.618539	0.462027	-0.495732	0.397732
62455		9.612362	1.756424	0.790185	0.005257	0.004014	-0.007009	-0.503174	-0.632324	-0.204590	0.618526	0.462019	-0.495723	0.397773
62456		9.579247	1.765696	0.815227	0.000467	0.004447	-0.005240	-0.507812	-0.636963	-0.188721	0.618544	0.461950	-0.495754	0.397785
62457		9.582806	1.771320	0.824021	0.002629	0.002759	-0.008114	-0.499512	-0.631592	-0.192627	0.618453	0.462034	-0.495676	0.397926
62458		9.598495	1.715574	0.798141	0.001324	0.006138	-0.006525	-0.499756	-0.632568	-0.202637	0.618423	0.462051	-0.495608	0.398038
62459		9.611156	1.782669	0.820038	0.008740	0.006965	-0.007186	-0.503662	-0.636475	-0.198242	0.618419	0.462058	-0.495551	0.398106
62460		9.607766	1.792900	0.818676	0.003571	0.008447	-0.003520	-0.498291	-0.634033	-0.201660	0.618405	0.462029	-0.495503	0.398224
62461		9.599487	1.832570	0.816714	-0.008065	0.005670	-0.000172	-0.493164	-0.635498	-0.198486	0.618455	0.461879	-0.495569	0.398239
62462		9.598389	1.752600	0.774847	-0.004477	0.002593	0.002042	-0.496826	-0.638672	-0.193115	0.618449	0.461786	-0.495620	0.398291
62463		9.590497	1.723057	0.794522	-0.008610	0.006144	0.001389	-0.498535	-0.635742	-0.199219	0.618453	0.461688	-0.495627	0.398389
62464		9.591906	1.707670	0.814910	-0.005422	0.005925	0.001335	-0.504395	-0.635742	-0.192871	0.618467	0.461570	-0.495664	0.398457
62465		9.626983	1.697632	0.816284	-0.009843	0.006208	-0.000878	-0.502686	-0.637695	-0.197510	0.618467	0.461470	-0.495681	0.398552
62466		9.629232	1.716988	0.807104	-0.010288	0.002261	-0.004461	-0.496826	-0.630615	-0.199219	0.618496	0.461384	-0.495728	0.398550
62467		9.621974	1.701785	0.831842	-0.010340	0.005275	-0.005654	-0.500732	-0.641846	-0.198975	0.618568	0.461269	-0.495761	0.398528
62468		9.605728	1.734435	0.813533	0.005753	0.005761	-0.005988	-0.504150	-0.637939	-0.199707	0.618547	0.461302	-0.495682	0.398621
62469		9.586650	1.707797	0.814056	-0.003772	0.004311	-0.006712	-0.501221	-0.640869	-0.197998	0.618570	0.461257	-0.495680	0.398641
62470		9.592753	1.664407	0.834472	0.004382	0.004142	-0.009878	-0.506592	-0.644531	-0.198242	0.618558	0.461316	-0.495595	0.398696
62471		9.599849	1.743322	0.829089	0.006002	0.002929	-0.011191	-0.503174	-0.637451	-0.198486	0.618527	0.461403	-0.495507	0.398754
62472		9.593808	1.736315	0.837292	0.002473	0.002895	-0.013891	-0.500000	-0.633545	-0.202393	0.618536	0.461465	-0.495436	0.398757
62473		9.597117	1.743262	0.846005	0.005436	0.004408	-0.010026	-0.507324	-0.629395	-0.207031	0.618546	0.461486	-0.495390	0.398774
62474		9.601740	1.736445	0.813189	0.001753	0.002888	-0.010983	-0.512451	-0.631836	-0.206055	0.618580	0.461446	-0.495422	0.398727
62475		9.591614	1.772174	0.825263	0.000422	-0.001548	-0.010313	-0.502441	-0.640869	-0.197754	0.618574	0.461423	-0.495494	0.398672
62476		9.586432	1.757493	0.812123	0.000533	0.001241	-0.007404	-0.502197	-0.632080	-0.203369	0.618552	0.461449	-0.495470	0.398708
62477		9.602308	1.768460	0.823962	0.005061	0.004557	-0.006045	-0.507568	-0.637939	-0.201904	0.618545	0.461431	-0.495461	0.398751
62478		9.585766	1.760434	0.813608	0.001345	0.004238	-0.004035	-0.498047	-0.637451	-0.196289	0.618529	0.461391	-0.495470	0.398810
62479		9.608421	1.746350	0.810691	0.000680	0.002020	-0.003700	-0.497070	-0.636475	-0.204590	0.618493	0.461397	-0.495452	0.398882
62480		9.607597	1.754050	0.831508	-0.008941	-0.003138	-0.005256	-0.505615	-0.636475	-0.194824	0.618537	0.461309	-0.495562	0.398779
62481		9.602371	1.697700	0.826738	-0.002982	-0.000508	-0.004261	-0.507080	-0.638428	-0.206787	0.618481	0.461306	-0.495586	0.398838
62482		9.599415	1.727088	0.849604	-0.001033	-0.000561	-0.004898	-0.502197	-0.636719	-0.204590	0.618484	0.461248	-0.495663	0.398806
62483		9.609253	1.648244	0.824765	0.000825	-0.004406	-0.008046	-0.502686	-0.639893	-0.195557	0.618467	0.461256	-0.495725	0.398745
62484		9.630879	1.710231	0.818912	0.003621	-0.002665	-0.008282	-0.503906	-0.631104	-0.201172	0.618394	0.461343	-0.495700	0.398788
62485		9.590501	1.705590	0.805497	-0.003609	-0.003221	-0.012337	-0.504639	-0.632568	-0.211182	0.618404	0.461348	-0.495750	0.398706
62486		9.645996	1.684708	0.836994	0.001392	-0.005169	-0.014649	-0.507812	-0.634277	-0.200439	0.618442	0.461352	-0.495832	0.398541
62487		9.604378	1.735256	0.856202	0.011765	-0.002003	-0.015203	-0.501953	-0.636475	-0.200684	0.618373	0.461496	-0.495773	0.398555
62488		9.575811	1.738727	0.786167	0.013599	0.003172	-0.014462	-0.500732	-0.640625	-0.207031	0.618341	0.461627	-0.495657	0.398597
62489		9.550674	1.772461	0.770946	0.001684	-0.002098	-0.016446	-0.500977	-0.635986	-0.203125	0.618400	0.461667	-0.495657	0.398458
62490		9.596966	1.778418	0.794153	0.007461	0.000159	-0.012424	-0.495850	-0.629395	-0.202881	0.618391	0.461734	-0.495623	0.398436
62491		9.621908	1.804749	0.805841	0.010901	0.004322	-0.009633	-0.502930	-0.635742	-0.201416	0.618378	0.461786	-0.495560	0.398475
62492		9.624994	1.750784	0.797346	0.000455	0.004359	-0.006909	-0.501465	-0.633789	-0.193848	0.618394	0.461753	-0.495556	0.398495
62493		9.602382	1.718841	0.849912	-0.001651	0.003731	-0.008289	-0.503418	-0.638916	-0.201172	0.618379	0.461766	-0.495514	0.398554
62494		9.566645	1.751490	0.816732	-0.003735	0.002097	-0.009272	-0.500977	-0.642578	-0.203613	0.618418	0.461731	-0.495527	0.398517
62495		9.591468	1.757774	0.802902	-0.001575	0.000520	-0.010457	-0.497559	-0.635010	-0.201904	0.618466	0.461718	-0.495539	0.398444
62496		9.592580	1.745159	0.821786	0.001231	0.001360	-0.008615	-0.497559	-0.645264	-0.197998	0.618482	0.461715	-0.495539	0.398423
62497		9.609175	1.790233	0.804053	0.002982	0.001934	-0.006623	-0.503662	-0.638672	-0.196777	0.618473	0.461746	-0.495498	0.398452
62498		9.624093	1.747689	0.819601	0.006234	0.006524	-0.004567	-0.501953	-0.646973	-0.198730	0.618431	0.461766	-0.495430	0.398578
62499		9.593882	1.768592	0.813490	0.000608	0.005040	-0.004888	-0.504639	-0.641357	-0.202393	0.618442	0.461747	-0.495395	0.398627
62500		9.602644	1.702849	0.831824	-0.004105	0.002237	-0.005299	-0.498779	-0.637451	-0.199219	0.618471	0.461678	-0.495437	0.398609
62501		9.608439	1.707607	0.803576	-0.003303	-0.001770	-0.006610	-0.506592	-0.632568	-0.197510	0.618468	0.461664	-0.495477	0.398580
62502		9.592971	1.732094	0.822988	-0.002085	-0.000924	-0.006422	-0.502930	-0.640137	-0.201660	0.618425	0.461657	-0.495516	0.398606
62503		9.596422	1.718190	0.805102	-0.001214	-0.000232	-0.007305	-0.504150	-0.634766	-0.203125	0.618430	0.461640	-0.495546	0.398580
62504		9.609891	1.731526	0.792567	-0.002780	-0.001231	-0.008562	-0.498535	-0.634521	-0.201172	0.618443	0.461609	-0.495603	0.398526
62505		9.600248	1.719728	0.791990	-0.003285	-0.002062	-0.011648	-0.504150	-0.635498	-0.192627	0.618471	0.461613	-0.495632	0.398443
62506		9.616779	1.744504	0.808194	-0.000338	0.000365	-0.009867	-0.508789	-0.637939	-0.202881	0.618425	0.461671	-0.495594	0.398493
62507		9.602538	1.735597	0.820496	0.001122	-0.001419	-0.011511	-0.502686	-0.640869	-0.197998	0.618419	0.461692	-0.495618	0.398449
62508		9.615725	1.730162	0.782303	0.003669	0.002963	-0.009915	-0.503906	-0.641846	-0.198486	0.618410	0.461737	-0.495561	0.398481
62509		9.615401	1.792585	0.799932	-0.000694	0.000310	-0.009255	-0.502930	-0.636963	-0.202637	0.618407	0.461755	-0.495554	0.398473
62510		9.616442	1.719850	0.801479	-0.003530	0.000571	-0.009812	-0.497314	-0.632812	-0.204590	0.618445	0.461722	-0.495586	0.398413
62511		9.603770	1.756948	0.790058	-0.004783	0.000924	-0.007037	-0.502441	-0.637939	-0.205078	0.618498	0.461646	-0.495648	0.398342
62512		9.580511	1.712088	0.837044	-0.007613	0.001089	-0.009273	-0.497559	-0.634277	-0.202393	0.618576	0.461561	-0.495711	0.398241
62513		9.616063	1.698142	0.816356	0.001932	0.001486	-0.009825	-0.505127	-0.642334	-0.199219	0.618595	0.461569	-0.495702	0.398214
62514		9.619321	1.725765	0.790431	-0.001792	0.001962	-0.011575	-0.506104	-0.634277	-0.206543	0.618622	0.461579	-0.495680	0.398187
62515		9.614173	1.771685	0.795370	-0.000413	0.003390	-0.011051	-0.504883	-0.633301	-0.203125	0.618674	0.461536	-0.495698	0.398134
62516		9.587545	1.757553	0.805347	-0.002519	0.002759	-0.012429	-0.496826	-0.633301	-0.202637	0.618721	0.461513	-0.495702	0.398083
62517		9.583806	1.749572	0.777575	-0.004684	0.004331	-0.011244	-0.507812	-0.643311	-0.204834	0.618802	0.461464	-0.495696	0.398020
62518		9.607960	1.741890	0.819347	-0.002502	0.001851	-0.010352	-0.500000	-0.639404	-0.207764	0.618854	0.461424	-0.495722	0.397955
62519		9.629723	1.716799	0.811157	-0.002311	0.001330	-0.011297	-0.509277	-0.631836	-0.198730	0.618936	0.461374	-0.495757	0.397841
62520		9.604643	1.728449	0.830925	-0.002492	0.001662	-0.013707	-0.500244	-0.646484	-0.197754	0.618936	0.461399	-0.495738	0.397836
62521		9.597122	1.755822	0.846351	0.005776	0.003424	-0.011880	-0.502441	-0.631104	-0.202881	0.618942	0.461473	-0.495647	0.397853
62522		9.586282	1.793408	0.799157	-0.001897	0.005994	-0.013151	-0.506348	-0.635986	-0.198242	0.619005	0.461449	-0.495613	0.397825
62523		9.588155	1.734245	0.806218	0.001094	-0.000394	-0.011893	-0.500488	-0.640137	-0.201660	0.618976	0.461503	-0.495594	0.397831
62524		9.588361	1.750115	0.811098	0.003396	-0.000376	-0.013136	-0.505371	-0.640625	-0.200684	0.618987	0.461560	-0.495567	0.397784
62525		9.608485	1.760035	0.809632	0.008446	0.002596	-0.011653	-0.496582	-0.629395	-0.205322	0.618961	0.461636	-0.495500	0.397818
62526		9.591818	1.753463	0.798640	0.005795	0.002426	-0.011477	-0.501465	-0.635010	-0.208984	0.618976	0.461662	-0.495475	0.397795
62527		9.598218	1.771054	0.835805	0.003846	0.002466	-0.010842	-0.502441	-0.634766	-0.203857	0.619021	0.461642	-0.495488	0.397733
62528		9.607053	1.727892	0.819118	-0.001937	0.000384	-0.011501	-0.508545	-0.638672	-0.195557	0.619054	0.461627	-0.495512	0.397669
62529		9.604156	1.752293	0.821225	0.004442	-0.000006	-0.011601	-0.503906	-0.640869	-0.199463	0.618990	0.461720	-0.495461	0.397724
62530		9.598185	1.785158	0.820357	-0.000001	0.000534	-0.008780	-0.500000	-0.643799	-0.199707	0.618984	0.461730	-0.495462	0.397720
62531		9.587858	1.760481	0.815351	0.001707	0.002936	-0.010937	-0.494385	-0.634277	-0.206787	0.619014	0.461752	-0.495419	0.397702
62532		9.612658	1.767025	0.801543	-0.002651	0.000362	-0.008605	-0.503174	-0.641846	-0.205811	0.619076	0.461694	-0.495473	0.397606
62533		9.583941	1.773392	0.812771	-0.004006	-0.001981	-0.007055	-0.501221	-0.637695	-0.198242	0.619113	0.461629	-0.495562	0.397513
62534		9.600424	1.778189	0.803194	-0.000351	0.000384	-0.009845	-0.503906	-0.634033	-0.209229	0.619105	0.461654	-0.495550	0.397510
62535		9.596417	1.735775	0.804043	-0.002518	0.001949	-0.008663	-0.506836	-0.636230	-0.193604	0.619162	0.461574	-0.495615	0.397433
62536		9.604148	1.779808	0.791326	0.000131	0.002125	-0.008836	-0.498779	-0.640625	-0.193359	0.619108	0.461623	-0.495570	0.397518
62537		9.598455	1.771647	0.799379	-0.001951	0.000576	-0.008142	-0.494629	-0.636475	-0.200684	0.619087	0.461656	-0.495541	0.397548
62538		9.593514	1.775880	0.812800	-0.002937	0.004092	-0.005493	-0.492920	-0.641357	-0.197998	0.619125	0.461600	-0.495546	0.397546
62539		9.604985	1.729489	0.820609	-0.003634	0.003786	-0.007628	-0.501953	-0.634033	-0.204590	0.619177	0.461570	-0.495524	0.397527
62540		9.604574	1.731255	0.821705	-0.000824	0.004542	-0.007465	-0.499756	-0.641113	-0.198730	0.619212	0.461515	-0.495537	0.397522
62541		9.620308	1.742484	0.833355	-0.003464	-0.002347	-0.006929	-0.500488	-0.640137	-0.204102	0.619206	0.461508	-0.495578	0.397489
62542		9.593106	1.754828	0.828343	-0.001136	-0.003330	-0.007774	-0.501221	-0.633789	-0.190430	0.619212	0.461492	-0.495644	0.397416
62543		9.584164	1.776079	0.798639	0.000472	0.002375	-0.006089	-0.507568	-0.633057	-0.198486	0.619134	0.461549	-0.495586	0.397544
62544		9.588328	1.794409	0.812582	-0.005938	0.003764	-0.006384	-0.501221	-0.635742	-0.198242	0.619134	0.461492	-0.495607	0.397582
62545		9.579210	1.740937	0.821909	-0.006291	0.003705	-0.005776	-0.503174	-0.637939	-0.201904	0.619156	0.461432	-0.495622	0.397600
62546		9.625891	1.706387	0.794972	-0.002555	0.003055	-0.007377	-0.500000	-0.634521	-0.200684	0.619181	0.461388	-0.495637	0.397593
62547		9.616662	1.766868	0.817420	-0.001031	-0.000733	-0.008228	-0.492676	-0.636963	-0.200439	0.619172	0.461390	-0.495659	0.397577
62548		9.601921	1.744355	0.824992	-0.001822	0.002168	-0.008197	-0.501953	-0.632324	-0.204102	0.619209	0.461374	-0.495650	0.397549
62549		9.587820	1.734776	0.837835	0.000507	0.001187	-0.009042	-0.500000	-0.641846	-0.205078	0.619216	0.461361	-0.495670	0.397529
62550		9.591760	1.755331	0.791134	0.000125	0.002135	-0.008828	-0.500977	-0.647217	-0.205566	0.619264	0.461330	-0.495682	0.397475
62551		9.586737	1.760058	0.804281	0.001208	0.001401	-0.008581	-0.499268	-0.635986	-0.199707	0.619313	0.461303	-0.495699	0.397408
62552		9.606926	1.769412	0.803066	0.004214	0.001548	-0.011036	-0.508057	-0.629883	-0.199463	0.619300	0.461359	-0.495653	0.397421
62553		9.598091	1.770053	0.808187	0.002223	0.002865	-0.005774	-0.500732	-0.635254	-0.199219	0.619238	0.461366	-0.495648	0.397516
62554		9.580140	1.775253	0.839076	0.002382	0.003445	-0.005438	-0.500244	-0.638184	-0.205078	0.619211	0.461366	-0.495628	0.397582
62555		9.590903	1.737052	0.806872	0.005254	0.002098	-0.006158	-0.493896	-0.635254	-0.200684	0.619207	0.461359	-0.495634	0.397589
62556		9.600070	1.712400	0.815924	0.005094	0.001519	-0.006494	-0.504150	-0.645752	-0.197754	0.619187	0.461387	-0.495611	0.397618
62557		9.603972	1.750706	0.855485	-0.000129	0.004669	-0.008672	-0.506348	-0.641357	-0.204834	0.619208	0.461385	-0.495569	0.397640
62558		9.606395	1.764996	0.825358	0.001243	0.006103	-0.008147	-0.499268	-0.639893	-0.204834	0.619251	0.461338	-0.495558	0.397640
62559		9.605353	1.753842	0.821386	0.005189	0.004208	-0.005272	-0.494873	-0.637939	-0.201660	0.619262	0.461314	-0.495551	0.397659
62560		9.591729	1.777547	0.805134	0.002415	0.002348	-0.006714	-0.507324	-0.630615	-0.196289	0.619274	0.461309	-0.495540	0.397660
62561		9.597107	1.748694	0.806474	0.000113	0.002320	-0.005476	-0.500488	-0.644287	-0.203613	0.619204	0.461323	-0.495529	0.397767
62562		9.613538	1.772174	0.823231	-0.011636	-0.001274	-0.004187	-0.508057	-0.634521	-0.199219	0.619274	0.461194	-0.495648	0.397659
62563		9.615306	1.664424	0.854064	-0.005663	0.000219	-0.006139	-0.499023	-0.636719	-0.203369	0.619254	0.461154	-0.495697	0.397675
62564		9.607751	1.691845	0.809043	0.001205	0.001406	-0.008575	-0.501221	-0.634521	-0.204346	0.619271	0.461147	-0.495702	0.397650
62565		9.582419	1.796273	0.816721	0.001364	0.001986	-0.008238	-0.491211	-0.636963	-0.198242	0.619283	0.461131	-0.495713	0.397638
62566		9.603373	1.744919	0.798376	0.001006	0.002017	-0.005957	-0.502686	-0.633789	-0.205078	0.619284	0.461138	-0.495690	0.397657
62567		9.599377	1.740744	0.850667	0.000908	-0.000578	-0.005504	-0.505371	-0.639893	-0.198730	0.619266	0.461110	-0.495745	0.397649
62568		9.605653	1.705193	0.830914	0.000816	0.002445	-0.006687	-0.506348	-0.637451	-0.204834	0.619246	0.461111	-0.495734	0.397691
62569		9.604332	1.787899	0.814505	0.005378	0.003696	-0.006211	-0.506836	-0.638916	-0.197021	0.619232	0.461099	-0.495732	0.397729
