// Start Time: Unknown
// Update Rate: 40.0Hz
// Filter Profile: human (46.1)
// Firmware Version: 4.6.0
PacketCounter	SampleTimeFine	Acc_X	Acc_Y	Acc_Z	Gyr_X	Gyr_Y	Gyr_Z	Mag_X	Mag_Y	Mag_Z	Quat_q0	Quat_q1	Quat_q2	Quat_q3
61647		9.567698	0.891704	-1.915460	0.009685	0.000840	-0.000559	-0.615967	0.277588	0.430664	0.221458	-0.696294	-0.336036	-0.594316
61648		9.596560	0.884690	-1.942544	0.006086	0.000930	-0.004284	-0.618164	0.278564	0.424072	0.221483	-0.696252	-0.336116	-0.594310
61649		9.586107	0.906546	-1.938025	0.010588	0.001502	-0.005530	-0.616211	0.283203	0.417480	0.221546	-0.696183	-0.336239	-0.594298
61650		9.575017	0.908398	-1.946639	0.007191	-0.001825	-0.006262	-0.623291	0.276855	0.423584	0.221553	-0.696150	-0.336352	-0.594269
61651		9.581825	0.881029	-1.925260	0.008911	-0.002256	-0.004585	-0.621094	0.280518	0.415771	0.221585	-0.696124	-0.336467	-0.594223
61652		9.599663	0.912788	-1.900905	0.010319	-0.002214	-0.007022	-0.613525	0.275391	0.417236	0.221613	-0.696085	-0.336611	-0.594177
61653		9.580671	0.919467	-1.888455	0.006358	-0.006353	-0.001817	-0.622070	0.282715	0.414551	0.221627	-0.696107	-0.336693	-0.594100
61654		9.586699	0.893607	-1.947160	0.004491	-0.009969	0.000709	-0.613770	0.277344	0.418457	0.221626	-0.696167	-0.336750	-0.593997
61655		9.574384	0.890921	-1.922853	0.004308	-0.009040	0.000113	-0.611816	0.280273	0.420166	0.221624	-0.696221	-0.336808	-0.593902
61656		9.579952	0.881689	-1.934260	0.002085	-0.012044	0.002649	-0.606934	0.287842	0.419922	0.221609	-0.696315	-0.336835	-0.593782
61657		9.580626	0.864390	-1.962775	0.004802	-0.008413	0.001446	-0.615479	0.290039	0.409424	0.221628	-0.696372	-0.336881	-0.593683
61658		9.574958	0.873031	-1.934393	0.005175	-0.009484	0.000461	-0.611328	0.280762	0.415039	0.221643	-0.696435	-0.336939	-0.593570
61659		9.575864	0.836430	-1.953551	0.005868	-0.008219	-0.001958	-0.606934	0.275635	0.402344	0.221649	-0.696479	-0.337018	-0.593471
61660		9.590483	0.843670	-1.951924	0.006934	-0.008027	-0.005361	-0.609131	0.287354	0.416748	0.221651	-0.696507	-0.337128	-0.593375
61661		9.570517	0.850541	-1.961974	0.007626	-0.006763	-0.007781	-0.615723	0.284424	0.413330	0.221657	-0.696526	-0.337251	-0.593280
61662		9.572280	0.875814	-1.964031	0.008111	-0.004892	-0.007647	-0.611084	0.287109	0.414795	0.221682	-0.696531	-0.337370	-0.593197
61663		9.592234	0.871665	-1.935174	0.009432	-0.002545	-0.005215	-0.610596	0.288330	0.406006	0.221746	-0.696532	-0.337470	-0.593115
61664		9.580918	0.873397	-1.944842	0.007262	-0.006931	-0.005599	-0.612793	0.289551	0.419922	0.221781	-0.696559	-0.337563	-0.593018
61665		9.595046	0.860457	-1.955635	0.005840	-0.006510	-0.002186	-0.610352	0.281982	0.423096	0.221827	-0.696617	-0.337618	-0.592901
61666		9.594135	0.840563	-1.969974	0.003415	-0.006102	-0.002641	-0.613770	0.280762	0.412598	0.221832	-0.696679	-0.337664	-0.592800
61667		9.574593	0.827244	-1.970238	0.006864	-0.003373	-0.007018	-0.612061	0.276367	0.418213	0.221858	-0.696675	-0.337759	-0.592741
61668		9.590164	0.835767	-1.945794	0.003424	-0.004540	-0.006992	-0.617432	0.293213	0.417236	0.221835	-0.696702	-0.337835	-0.592675
61669		9.574952	0.811021	-1.941582	0.002587	-0.005017	-0.009292	-0.610107	0.279053	0.419678	0.221850	-0.696734	-0.337896	-0.592596
61670		9.569257	0.825285	-1.969171	0.004346	-0.005584	-0.011743	-0.614746	0.284424	0.423096	0.221809	-0.696752	-0.338012	-0.592525
61671		9.583890	0.834520	-1.966640	0.006028	-0.003065	-0.011497	-0.606689	0.282715	0.420654	0.221821	-0.696760	-0.338121	-0.592448
61672		9.597244	0.820569	-1.941364	0.007759	-0.001928	-0.014175	-0.611816	0.287598	0.423828	0.221818	-0.696746	-0.338265	-0.592384
61673		9.605294	0.819342	-1.942379	0.006951	-0.003326	-0.018427	-0.612061	0.279297	0.419922	0.221803	-0.696735	-0.338430	-0.592307
61674		9.583649	0.825495	-1.938054	0.010046	-0.002002	-0.019424	-0.617676	0.281494	0.413330	0.221782	-0.696675	-0.338635	-0.592270
61675		9.570208	0.846884	-1.942906	0.011430	-0.001493	-0.020895	-0.614258	0.287842	0.416992	0.221798	-0.696571	-0.338844	-0.592266
61676		9.586875	0.881492	-1.940642	0.011439	-0.003513	-0.017519	-0.607910	0.290527	0.427734	0.221857	-0.696524	-0.339020	-0.592199
61677		9.602058	0.852161	-1.919970	0.006616	-0.005190	-0.016024	-0.607910	0.276855	0.418701	0.221862	-0.696563	-0.339167	-0.592067
61678		9.579023	0.836745	-1.950768	0.004017	-0.005884	-0.013695	-0.618652	0.285645	0.410156	0.221779	-0.696562	-0.339293	-0.592026
61679		9.588598	0.838797	-1.965633	0.001761	-0.005166	-0.014755	-0.616455	0.287109	0.413330	0.221780	-0.696511	-0.339372	-0.592041
61680		9.583934	0.834877	-1.962269	0.000221	-0.005666	-0.015836	-0.617920	0.292480	0.416992	0.221762	-0.696485	-0.339454	-0.592032
61681		9.566604	0.828481	-1.954200	-0.001646	-0.007259	-0.016679	-0.616943	0.287842	0.414795	0.221760	-0.696491	-0.339532	-0.591980
61682		9.576054	0.791696	-1.972366	-0.001370	-0.002437	-0.020528	-0.614990	0.282227	0.420410	0.221717	-0.696429	-0.339637	-0.592009
61683		9.589368	0.820585	-1.943458	0.002125	-0.003095	-0.024467	-0.605957	0.282959	0.416504	0.221610	-0.696369	-0.339829	-0.592009
61684		9.585823	0.842691	-1.961805	0.001435	-0.002010	-0.028584	-0.617432	0.280762	0.417480	0.221461	-0.696311	-0.340024	-0.592022
61685		9.587142	0.873437	-1.962812	0.001772	-0.001369	-0.029803	-0.615234	0.280029	0.420166	0.221324	-0.696191	-0.340248	-0.592086
61686		9.627235	0.830094	-1.907107	0.013539	-0.001952	-0.029720	-0.619385	0.292725	0.415771	0.221266	-0.696065	-0.340570	-0.592070
61687		9.556645	0.896136	-1.994233	-0.004718	-0.007147	-0.024194	-0.614502	0.281982	0.410156	0.221245	-0.696030	-0.340684	-0.592053
61688		9.568930	0.885092	-1.991062	0.006925	-0.001374	-0.025996	-0.615479	0.281982	0.416992	0.221205	-0.695890	-0.340883	-0.592118
61689		9.574200	0.859039	-1.956046	-0.000366	-0.001297	-0.022016	-0.614258	0.283203	0.420654	0.221120	-0.695819	-0.341025	-0.592152
61690		9.585759	0.887015	-1.970341	-0.000727	-0.000685	-0.022010	-0.613525	0.285400	0.416748	0.221040	-0.695775	-0.341171	-0.592149
61691		9.582035	0.884701	-1.944404	0.003126	-0.003833	-0.018442	-0.610840	0.282227	0.418945	0.221049	-0.695747	-0.341304	-0.592103
61692		9.574663	0.857033	-1.961841	0.000513	-0.003297	-0.017311	-0.613037	0.277588	0.417480	0.220987	-0.695751	-0.341414	-0.592057
61693		9.589145	0.867969	-1.959046	0.000343	-0.003613	-0.016705	-0.616211	0.283936	0.421143	0.220873	-0.695730	-0.341524	-0.592061
61694		9.592311	0.859282	-1.977155	0.003428	-0.002271	-0.017709	-0.616211	0.283203	0.417480	0.220882	-0.695699	-0.341671	-0.592009
61695		9.581718	0.864477	-1.964112	0.005985	-0.000639	-0.018095	-0.617920	0.285889	0.419189	0.220923	-0.695623	-0.341822	-0.591996
61696		9.580570	0.865369	-1.929465	0.007216	-0.001682	-0.017758	-0.614990	0.283447	0.417480	0.221017	-0.695557	-0.341989	-0.591942
61697		9.592597	0.872485	-1.935200	0.004857	-0.003909	-0.019941	-0.613770	0.282959	0.423340	0.221025	-0.695511	-0.342153	-0.591899
61698		9.578602	0.873700	-1.952763	0.004095	-0.000989	-0.020152	-0.620117	0.290039	0.416992	0.221010	-0.695492	-0.342332	-0.591823
61699		9.562214	0.870524	-1.978845	0.007251	-0.003374	-0.017539	-0.610352	0.277588	0.417236	0.221194	-0.695413	-0.342485	-0.591758
61700		9.609672	0.879444	-1.951251	0.006736	-0.003541	-0.017901	-0.611328	0.278320	0.420166	0.221122	-0.695395	-0.342638	-0.591717
61701		9.595669	0.880271	-1.969003	0.005683	-0.002633	-0.019831	-0.621826	0.276855	0.416992	0.221040	-0.695380	-0.342815	-0.591663
61702		9.565370	0.890943	-1.964475	0.006220	-0.003705	-0.018267	-0.610840	0.277100	0.411133	0.220989	-0.695263	-0.343001	-0.591712
61703		9.563651	0.851307	-1.955522	0.004968	-0.002201	-0.017631	-0.623291	0.284424	0.418213	0.220936	-0.695195	-0.343100	-0.591755
61704		9.588791	0.842032	-1.957200	0.005058	-0.004943	-0.023507	-0.609619	0.282715	0.423828	0.220983	-0.695077	-0.343328	-0.591743
61705		9.580667	0.895705	-1.967675	0.004804	-0.001854	-0.023360	-0.607910	0.272461	0.416748	0.220949	-0.695107	-0.343530	-0.591604
61706		9.593292	0.884105	-1.963916	0.006507	-0.001020	-0.022894	-0.615967	0.291748	0.412109	0.220757	-0.695073	-0.343702	-0.591615
61707		9.565406	0.899654	-1.950380	0.008587	-0.001250	-0.023417	-0.612549	0.283203	0.410400	0.221025	-0.694951	-0.343868	-0.591562
61708		9.584437	0.899196	-1.942938	0.004461	-0.002812	-0.018986	-0.616211	0.276367	0.420654	0.221106	-0.694876	-0.343964	-0.591565
61709		9.579721	0.875757	-1.951630	0.005154	-0.002777	-0.020218	-0.614746	0.288086	0.416992	0.221005	-0.694831	-0.344161	-0.591540
61710		9.567283	0.880583	-1.982254	0.008201	-0.000174	-0.022439	-0.615479	0.279541	0.416016	0.221193	-0.694754	-0.344348	-0.591452
61711		9.579485	0.908912	-1.974798	0.009406	0.000035	-0.023313	-0.609619	0.279297	0.419678	0.221208	-0.694640	-0.344559	-0.591457
61712		9.573687	0.922609	-1.944492	0.010097	-0.000590	-0.018208	-0.611328	0.275635	0.416992	0.221227	-0.694644	-0.344734	-0.591344
61713		9.588775	0.893412	-1.944693	0.004060	-0.001281	-0.017031	-0.610352	0.278076	0.425537	0.221136	-0.694628	-0.344848	-0.591329
61714		9.560908	0.886976	-1.943538	0.011253	0.000993	-0.016144	-0.616943	0.280029	0.413818	0.221136	-0.694670	-0.345043	-0.591166
61715		9.573113	0.893727	-1.948419	0.004342	0.001064	-0.018486	-0.608643	0.277100	0.418945	0.221185	-0.694549	-0.345161	-0.591221
61716		9.593788	0.875718	-1.966151	0.008671	0.000599	-0.016969	-0.611084	0.281738	0.415771	0.221163	-0.694559	-0.345296	-0.591139
61717		9.581753	0.920109	-1.971162	0.007644	0.000259	-0.017691	-0.616455	0.281494	0.420410	0.221259	-0.694524	-0.345414	-0.591075
61718		9.582993	0.905012	-1.940242	0.001956	-0.000258	-0.018713	-0.611084	0.282959	0.424072	0.221279	-0.694489	-0.345556	-0.591027
61719		9.573777	0.873142	-1.965255	0.003492	0.000260	-0.017636	-0.620605	0.291504	0.421631	0.221322	-0.694544	-0.345692	-0.590866
61720		9.556147	0.886347	-1.964886	0.003854	-0.000342	-0.017648	-0.614990	0.280273	0.418457	0.221593	-0.694494	-0.345838	-0.590738
61721		9.566778	0.889949	-1.956602	0.002613	0.000698	-0.017991	-0.609863	0.274414	0.415527	0.221607	-0.694447	-0.345957	-0.590718
61722		9.597724	0.911838	-1.962820	0.003702	-0.001114	-0.018022	-0.614014	0.279297	0.402588	0.221489	-0.694433	-0.346053	-0.590723
61723		9.590448	0.901553	-1.931243	0.002161	0.004254	-0.019431	-0.619629	0.273193	0.419434	0.221559	-0.694229	-0.346050	-0.590937
61724		9.581468	0.889939	-1.943168	0.002115	-0.000257	-0.016165	-0.611328	0.280273	0.416504	0.221435	-0.694150	-0.346197	-0.590991
61725		9.564664	0.903571	-1.921156	0.001981	-0.001488	-0.017518	-0.619873	0.281738	0.415527	0.221450	-0.694156	-0.346281	-0.590929
61726		9.575774	0.889815	-1.961100	0.000478	-0.003249	-0.017388	-0.621582	0.276123	0.414062	0.221513	-0.694076	-0.346394	-0.590933
61727		9.580008	0.901981	-1.944811	0.004096	-0.002951	-0.016831	-0.610352	0.280762	0.415283	0.221497	-0.693947	-0.346534	-0.591008
61728		9.593519	0.912375	-1.963790	0.002013	-0.002727	-0.016311	-0.616455	0.277100	0.421387	0.221539	-0.693971	-0.346599	-0.590926
61729		9.579006	0.889547	-1.958614	0.002302	-0.000837	-0.018750	-0.621582	0.281250	0.418945	0.221477	-0.693947	-0.346761	-0.590882
61730		9.588108	0.889897	-1.937122	0.006395	0.000884	-0.019048	-0.616699	0.283936	0.408691	0.221585	-0.693825	-0.346956	-0.590871
61731		9.570408	0.903079	-1.936824	0.006796	-0.000964	-0.017846	-0.610107	0.270020	0.426270	0.221791	-0.693696	-0.347043	-0.590894
61732		9.576264	0.898531	-1.945722	0.005350	0.000998	-0.018792	-0.617432	0.277100	0.422363	0.221558	-0.693759	-0.347230	-0.590798
61733		9.593048	0.893968	-1.946607	0.001706	-0.003936	-0.020241	-0.613037	0.282959	0.419922	0.221478	-0.693753	-0.347420	-0.590723
61734		9.598752	0.890266	-1.955929	0.005556	-0.000039	-0.022358	-0.623535	0.284180	0.416260	0.221566	-0.693736	-0.347592	-0.590608
61735		9.581576	0.907434	-1.990527	0.008783	0.001664	-0.023991	-0.612549	0.283203	0.408447	0.221753	-0.693545	-0.347824	-0.590627
61736		9.588467	0.923011	-1.907814	0.013431	0.002203	-0.026881	-0.623779	0.280762	0.412109	0.221931	-0.693389	-0.347992	-0.590643
61737		9.571300	0.940361	-1.942118	0.005639	0.002450	-0.022234	-0.618652	0.282715	0.423584	0.222042	-0.693176	-0.348158	-0.590755
61738		9.571434	0.948159	-1.977154	0.010571	-0.000427	-0.022088	-0.611084	0.288086	0.417236	0.222183	-0.693115	-0.348450	-0.590600
61739		9.575152	0.937260	-1.937981	0.008523	-0.001339	-0.016186	-0.614502	0.280273	0.422363	0.222463	-0.693137	-0.348578	-0.590393
61740		9.590657	0.908028	-1.938169	0.006618	-0.001257	-0.017261	-0.624756	0.276855	0.412354	0.222537	-0.693143	-0.348780	-0.590239
61741		9.581512	0.916343	-1.938523	0.002001	-0.002706	-0.016342	-0.618652	0.272461	0.419434	0.222529	-0.693002	-0.348876	-0.590352
61742		9.578648	0.915990	-1.947782	0.004592	-0.002741	-0.016507	-0.618896	0.278320	0.417480	0.222423	-0.692959	-0.349046	-0.590341
61743		9.559963	0.927917	-1.969740	0.006435	-0.001116	-0.015672	-0.618408	0.279541	0.421143	0.222488	-0.692894	-0.349196	-0.590304
61744		9.595056	0.914244	-1.949413	0.004078	-0.002912	-0.016872	-0.617432	0.282471	0.413574	0.222539	-0.692872	-0.349384	-0.590199
61745		9.571917	0.915974	-1.931578	0.006098	-0.001418	-0.017634	-0.615479	0.287598	0.417480	0.222678	-0.692800	-0.349495	-0.590167
61746		9.573049	0.903011	-1.957962	0.007503	-0.002122	-0.017908	-0.614746	0.274658	0.416016	0.222930	-0.692774	-0.349659	-0.590004
61747		9.555906	0.936671	-1.923966	0.010284	-0.002624	-0.016488	-0.618164	0.273682	0.414795	0.222914	-0.692743	-0.349808	-0.589959
61748		9.576565	0.938381	-1.930222	0.008275	-0.004453	-0.012544	-0.611328	0.281494	0.420654	0.222893	-0.692703	-0.349916	-0.589949
61749		9.609900	0.922301	-1.954190	0.005871	-0.004889	-0.010791	-0.621582	0.275391	0.421631	0.223016	-0.692792	-0.350027	-0.589733
61750		9.588250	0.926041	-1.950204	0.005152	-0.004138	-0.011758	-0.614014	0.278320	0.409668	0.223026	-0.692758	-0.350207	-0.589662
61751		9.555201	0.906913	-1.931871	0.002238	-0.004750	-0.010365	-0.612549	0.278564	0.417236	0.223057	-0.692766	-0.350166	-0.589664
61752		9.561075	0.900460	-1.941887	0.007773	-0.004960	-0.009724	-0.621094	0.279541	0.407227	0.223139	-0.692819	-0.350244	-0.589525
61753		9.583249	0.904678	-1.961626	0.007566	-0.004034	-0.010330	-0.612793	0.278809	0.417236	0.223273	-0.692714	-0.350260	-0.589588
61754		9.565886	0.938589	-1.984628	0.010576	-0.001278	-0.008405	-0.611572	0.274902	0.421143	0.223408	-0.692735	-0.350340	-0.589465
61755		9.561109	0.949420	-1.933014	0.012701	-0.002613	-0.003542	-0.618164	0.275391	0.417725	0.223492	-0.692814	-0.350430	-0.589287
61756		9.465279	1.138136	-1.766263	-0.006639	-0.011759	0.016617	-0.613281	0.275879	0.423584	0.223552	-0.693008	-0.350232	-0.589153
61757		9.464037	1.170069	-1.768281	-0.060332	-0.040380	0.065075	-0.607178	0.290283	0.420166	0.223359	-0.693856	-0.349327	-0.588766
61758		9.748302	0.864961	-2.049176	-0.035236	-0.022125	0.096924	-0.610352	0.280273	0.420654	0.223974	-0.694677	-0.348198	-0.588233
61759		9.527895	1.395353	-2.203752	-0.082153	-0.025671	0.136039	-0.612793	0.289307	0.420898	0.224228	-0.695764	-0.346422	-0.587900
61760		9.698764	0.470355	-2.245520	-0.068362	-0.000979	0.120779	-0.609863	0.281006	0.413574	0.224763	-0.696524	-0.344827	-0.587733
61761		9.654618	0.569792	-1.863390	-0.026657	0.018168	0.080179	-0.615479	0.289307	0.425781	0.225240	-0.696826	-0.343737	-0.587832
61762		9.594041	0.404437	-1.992778	-0.026891	0.014012	0.046374	-0.617432	0.279053	0.422852	0.225620	-0.697015	-0.343126	-0.587818
61763		9.580667	0.356202	-2.051534	0.005241	0.028138	-0.012161	-0.611328	0.283936	0.419678	0.225700	-0.696714	-0.343202	-0.588100
61764		9.575364	0.534826	-1.956146	0.018768	0.033894	-0.059866	-0.614990	0.276611	0.423340	0.225652	-0.696190	-0.343698	-0.588449
61765		9.681876	0.726331	-1.861644	0.014339	0.025913	-0.081062	-0.605957	0.278564	0.423828	0.225251	-0.695631	-0.344434	-0.588833
61766		9.657464	0.728260	-1.985181	0.029959	0.028729	-0.092466	-0.615234	0.280029	0.416748	0.224933	-0.695074	-0.345308	-0.589101
61767		9.630165	0.823302	-1.961668	0.046343	0.033884	-0.097650	-0.605225	0.278320	0.417725	0.224834	-0.694283	-0.346328	-0.589472
61768		9.528121	0.939897	-1.861307	0.055929	0.034794	-0.091021	-0.619629	0.287598	0.417480	0.224800	-0.693619	-0.347290	-0.589701
61769		9.631438	1.089216	-1.758887	0.026924	0.017315	-0.061472	-0.614258	0.273438	0.413574	0.224913	-0.693154	-0.347936	-0.589824
61770		9.590422	0.963381	-1.869087	0.014813	0.007124	-0.040038	-0.618164	0.277100	0.420654	0.224742	-0.692923	-0.348266	-0.589966
61771		9.515357	0.976267	-1.917376	0.023336	0.009673	-0.021762	-0.610840	0.286865	0.420898	0.224879	-0.692731	-0.348589	-0.589948
61772		9.599183	0.927088	-1.891846	0.014624	0.001830	-0.005727	-0.615723	0.282715	0.419189	0.225171	-0.692788	-0.348667	-0.589724
61773		9.631197	0.881749	-1.878606	0.008461	0.000067	0.002452	-0.614990	0.281494	0.417725	0.225405	-0.692839	-0.348664	-0.589576
61774		9.620692	0.840253	-1.912415	0.008891	-0.002238	0.002680	-0.617920	0.290771	0.421387	0.225604	-0.692904	-0.348651	-0.589432
61775		9.562213	0.810979	-1.905437	0.018632	0.000756	-0.002975	-0.618896	0.284912	0.409668	0.226035	-0.692889	-0.348800	-0.589195
61776		9.603217	0.848173	-1.912970	0.028694	-0.000461	-0.003381	-0.613525	0.275879	0.416748	0.226432	-0.692783	-0.348921	-0.589096
61777		9.647094	0.846477	-1.880524	0.015839	-0.003260	-0.001114	-0.617432	0.284424	0.410645	0.226527	-0.692821	-0.348984	-0.588977
61778		9.535532	0.779819	-1.897329	0.025190	-0.003844	-0.006662	-0.619873	0.288330	0.413086	0.226831	-0.692752	-0.349127	-0.588857
61779		9.562497	0.791096	-1.900127	0.024504	-0.004002	-0.009602	-0.613770	0.288574	0.422607	0.227183	-0.692662	-0.349335	-0.588704
61780		9.568092	0.824318	-1.884880	0.028131	0.000512	-0.009161	-0.613525	0.279785	0.408447	0.227564	-0.692634	-0.349612	-0.588426
61781		9.625770	0.831233	-1.870851	0.018168	-0.005527	-0.011353	-0.620117	0.290771	0.412842	0.227635	-0.692608	-0.349694	-0.588379
61782		9.626779	0.773076	-1.888400	0.014158	-0.009098	-0.014982	-0.617676	0.276611	0.414062	0.227862	-0.692560	-0.349889	-0.588232
61783		9.578719	0.792746	-1.941430	0.022377	-0.002775	-0.018668	-0.621582	0.284668	0.412109	0.227893	-0.692444	-0.350159	-0.588197
61784		9.584289	0.870089	-1.879914	0.023781	-0.003470	-0.018945	-0.626221	0.280762	0.417480	0.228096	-0.692285	-0.350453	-0.588129
61785		9.618676	0.791748	-1.884322	0.013898	-0.006919	-0.016825	-0.604492	0.288330	0.406982	0.228172	-0.692158	-0.350766	-0.588063
61786		9.596245	0.775908	-1.915195	0.015579	-0.005848	-0.023733	-0.609863	0.280273	0.417480	0.228229	-0.692189	-0.350853	-0.587952
61787		9.554257	0.850362	-1.918303	0.022929	-0.008576	-0.022153	-0.614502	0.277100	0.416504	0.228237	-0.692203	-0.351140	-0.587761
61788		9.609122	0.855780	-1.914201	0.017903	-0.008081	-0.018263	-0.616699	0.279785	0.412598	0.228202	-0.692187	-0.351385	-0.587647
61789		9.600427	0.864635	-1.894816	0.010937	-0.010919	-0.017532	-0.618408	0.286377	0.413818	0.228162	-0.692177	-0.351561	-0.587570
61790		9.589172	0.783967	-1.920516	0.009292	-0.013019	-0.016771	-0.610840	0.285400	0.408936	0.228227	-0.692181	-0.351750	-0.587426
61791		9.565778	0.851783	-1.938523	0.015647	-0.012371	-0.017015	-0.612549	0.278564	0.424805	0.228290	-0.692222	-0.351872	-0.587281
61792		9.585460	0.894142	-1.921997	0.005754	-0.010624	-0.008844	-0.615479	0.287354	0.417725	0.228219	-0.692356	-0.352004	-0.587071
61793		9.606110	0.807695	-1.909153	0.002035	-0.012530	-0.007548	-0.613770	0.284180	0.414062	0.228286	-0.692463	-0.352061	-0.586885
61794		9.600756	0.801363	-1.928861	0.001578	-0.009897	-0.010980	-0.615479	0.282471	0.414062	0.228273	-0.692534	-0.352090	-0.586789
61795		9.597179	0.797620	-1.904550	0.008759	-0.008547	-0.016281	-0.616455	0.282715	0.417236	0.228272	-0.692529	-0.352230	-0.586711
61796		9.563764	0.822965	-1.898182	0.002605	-0.014295	-0.015311	-0.622559	0.284668	0.417236	0.228210	-0.692590	-0.352369	-0.586580
61797		9.592046	0.799961	-1.941340	-0.001646	-0.016049	-0.017570	-0.618652	0.282715	0.428467	0.228158	-0.692599	-0.352558	-0.586476
61798		9.614775	0.787290	-1.953958	0.001007	-0.013705	-0.021805	-0.614990	0.284424	0.423340	0.228060	-0.692643	-0.352865	-0.586277
61799		9.575612	0.823988	-1.917416	0.004222	-0.012423	-0.024456	-0.604980	0.282715	0.410400	0.227986	-0.692677	-0.353129	-0.586107
61800		9.585716	0.852321	-1.934818	0.000562	-0.011397	-0.022049	-0.613281	0.288574	0.403320	0.227800	-0.692792	-0.353109	-0.586055
61801		9.589040	0.801591	-1.944242	0.001573	-0.011155	-0.025520	-0.614746	0.285889	0.424805	0.227752	-0.692770	-0.353147	-0.586077
61802		9.601349	0.834827	-1.953319	-0.000720	-0.014214	-0.025484	-0.611816	0.286621	0.416016	0.227643	-0.692836	-0.353388	-0.585895
61803		9.565603	0.814698	-1.945179	-0.001493	-0.012102	-0.023501	-0.606934	0.289062	0.412842	0.227545	-0.692898	-0.353488	-0.585801
61804		9.601439	0.873654	-1.973724	-0.002321	-0.012923	-0.022629	-0.621582	0.288574	0.418457	0.227448	-0.693016	-0.353495	-0.585695
61805		9.614192	0.839983	-1.949010	0.003318	-0.007790	-0.024959	-0.608643	0.281982	0.414795	0.227495	-0.692928	-0.353743	-0.585630
61806		9.578776	0.842574	-1.962319	0.000187	-0.007049	-0.023173	-0.608887	0.290527	0.417725	0.227346	-0.692973	-0.353791	-0.585605
61807		9.568772	0.849894	-1.928807	0.004179	-0.007743	-0.023632	-0.606934	0.287354	0.423340	0.227362	-0.693024	-0.353901	-0.585473
61808		9.556303	0.833707	-1.973321	0.003399	-0.009358	-0.020543	-0.610352	0.273926	0.415527	0.227331	-0.693136	-0.354020	-0.585281
61809		9.600056	0.841125	-1.977521	0.002112	-0.008002	-0.024091	-0.613281	0.281250	0.424561	0.227084	-0.693149	-0.354120	-0.585301
61810		9.601462	0.828185	-1.948603	0.008423	-0.010705	-0.026456	-0.613281	0.277344	0.414307	0.227001	-0.693158	-0.354400	-0.585152
61811		9.614132	0.841315	-1.969564	0.002841	-0.009756	-0.029299	-0.611084	0.281738	0.418213	0.226793	-0.693126	-0.354568	-0.585169
61812		9.584474	0.857035	-1.979577	0.007732	-0.007588	-0.031506	-0.612793	0.284424	0.411133	0.226674	-0.693098	-0.354789	-0.585114
61813		9.579304	0.876962	-1.964334	0.010455	-0.006805	-0.031326	-0.615723	0.290283	0.421143	0.226635	-0.693019	-0.354979	-0.585108
61814		9.564534	0.877067	-1.947975	0.004519	-0.008871	-0.028863	-0.617188	0.279541	0.411865	0.226656	-0.692995	-0.355215	-0.584984
61815		9.581564	0.854685	-1.962740	0.004437	-0.007167	-0.029112	-0.606445	0.277344	0.415771	0.226540	-0.692898	-0.355394	-0.585036
61816		9.576767	0.876684	-1.982471	0.008197	-0.006471	-0.029202	-0.615234	0.285156	0.415771	0.226361	-0.692910	-0.355526	-0.585011
61817		9.581767	0.895069	-1.980448	0.004030	-0.005655	-0.027138	-0.616455	0.271240	0.423828	0.226337	-0.692853	-0.355689	-0.584989
61818		9.585455	0.909757	-1.965192	0.001725	-0.007819	-0.025120	-0.614258	0.281738	0.414307	0.226119	-0.692821	-0.355917	-0.584973
61819		9.585871	0.851403	-1.969195	0.002892	-0.010394	-0.022934	-0.610840	0.288574	0.418945	0.226047	-0.692822	-0.356028	-0.584932
61820		9.562907	0.901415	-1.976487	0.000973	-0.006619	-0.025111	-0.612793	0.282227	0.424316	0.226028	-0.692853	-0.356124	-0.584844
61821		9.570079	0.879305	-1.977329	-0.002793	-0.007310	-0.025031	-0.611572	0.275879	0.408936	0.225904	-0.692887	-0.356263	-0.584767
61822		9.592960	0.866032	-1.952971	0.001796	-0.006227	-0.026994	-0.618896	0.283936	0.416504	0.225718	-0.692845	-0.356319	-0.584853
61823		9.574735	0.883351	-1.989269	0.000464	-0.007237	-0.026477	-0.617188	0.279785	0.419189	0.225682	-0.692777	-0.356490	-0.584844
61824		9.577709	0.918909	-1.961963	-0.001366	-0.008881	-0.027309	-0.614258	0.280518	0.418457	0.225552	-0.692743	-0.356666	-0.584827
61825		9.586078	0.900362	-1.976762	-0.001616	-0.010323	-0.023850	-0.615967	0.272461	0.419678	0.225430	-0.692766	-0.356775	-0.584780
61826		9.581146	0.921820	-1.996567	0.000520	-0.005196	-0.027358	-0.619141	0.278809	0.419434	0.225232	-0.692706	-0.356945	-0.584824
61827		9.576117	0.896275	-1.992031	0.002997	-0.005852	-0.023712	-0.614990	0.276367	0.415527	0.225190	-0.692634	-0.357130	-0.584813
61828		9.588699	0.906174	-1.976735	0.006907	-0.004817	-0.024426	-0.610840	0.279053	0.420654	0.225120	-0.692571	-0.357272	-0.584828
61829		9.558011	0.916103	-1.972374	0.008114	-0.004017	-0.020127	-0.614014	0.281006	0.419922	0.225103	-0.692581	-0.357375	-0.584759
61830		9.592594	0.903434	-1.974526	0.004550	-0.004740	-0.017447	-0.611328	0.278564	0.420410	0.225119	-0.692586	-0.357457	-0.584697
61831		9.585103	0.894588	-2.001063	0.009133	-0.003644	-0.019415	-0.612549	0.279541	0.424805	0.225115	-0.692587	-0.357562	-0.584633
61832		9.583071	0.939630	-1.977718	0.005433	-0.005146	-0.017104	-0.612305	0.276611	0.416260	0.225108	-0.692623	-0.357666	-0.584530
61833		9.587251	0.907466	-1.973052	0.004284	-0.002463	-0.015092	-0.611572	0.274170	0.416992	0.225082	-0.692622	-0.357674	-0.584536
61834		9.575085	0.887111	-1.981144	0.007791	-0.004204	-0.017907	-0.620117	0.286865	0.419434	0.225022	-0.692618	-0.357736	-0.584526
61835		9.577359	0.919427	-1.974449	0.007914	-0.000154	-0.019640	-0.614502	0.288818	0.416504	0.225188	-0.692513	-0.357898	-0.584487
61836		9.578589	0.903849	-1.965729	0.004242	-0.005381	-0.016218	-0.616455	0.277832	0.419678	0.225307	-0.692524	-0.357940	-0.584403
61837		9.573406	0.899176	-1.983817	0.005500	-0.003560	-0.018974	-0.612793	0.277832	0.414062	0.225301	-0.692480	-0.358059	-0.584384
61838		9.574006	0.906908	-1.998216	0.003813	-0.004436	-0.019432	-0.627686	0.279297	0.413330	0.225246	-0.692468	-0.358091	-0.584400
61839		9.574431	0.912278	-1.977424	0.008891	-0.002695	-0.020055	-0.614014	0.273926	0.418457	0.225364	-0.692274	-0.358309	-0.584451
61840		9.574306	0.940446	-1.979349	0.006668	-0.002856	-0.018888	-0.608154	0.278809	0.418945	0.225304	-0.692245	-0.358394	-0.584456
61841		9.562801	0.897682	-1.964307	0.006951	-0.001750	-0.019145	-0.608398	0.277344	0.422852	0.225271	-0.692271	-0.358423	-0.584420
61842		9.573101	0.880583	-1.990808	0.008361	-0.002420	-0.019432	-0.618896	0.277100	0.420410	0.225227	-0.692306	-0.358494	-0.584353
61843		9.566365	0.917683	-1.984000	0.005584	-0.002868	-0.022839	-0.613770	0.281250	0.422363	0.225207	-0.692220	-0.358669	-0.584354
61844		9.579911	0.906879	-1.980252	0.004829	-0.001680	-0.022823	-0.609619	0.281738	0.419678	0.225200	-0.692192	-0.358792	-0.584315
61845		9.578689	0.934952	-2.003482	0.008867	0.000150	-0.023176	-0.610840	0.274414	0.418945	0.225209	-0.692173	-0.358878	-0.584281
61846		9.578811	0.916908	-1.980956	0.006065	-0.001774	-0.020505	-0.608643	0.275146	0.418457	0.225126	-0.692166	-0.358934	-0.584286
61847		9.572906	0.933312	-1.986087	0.006198	-0.000994	-0.020139	-0.611328	0.282227	0.423584	0.225043	-0.692177	-0.358958	-0.584291
61848		9.575463	0.921526	-1.990474	0.005106	-0.002937	-0.018999	-0.609131	0.284180	0.422119	0.225048	-0.692210	-0.359021	-0.584211
61849		9.590361	0.913436	-1.999857	0.003381	-0.000097	-0.020570	-0.612549	0.273438	0.420166	0.225044	-0.692241	-0.359042	-0.584163
61850		9.579825	0.918959	-1.986429	0.002720	-0.000607	-0.020308	-0.613037	0.287598	0.419922	0.224945	-0.692219	-0.359094	-0.584195
61851		9.573978	0.935571	-1.991062	0.004319	0.001528	-0.021096	-0.610596	0.270508	0.421387	0.225017	-0.692195	-0.359139	-0.584169
61852		9.560410	0.957091	-1.973339	0.001562	0.002069	-0.018296	-0.612549	0.276611	0.416748	0.224890	-0.692185	-0.359148	-0.584224
61853		9.566355	0.928676	-1.980708	-0.003076	-0.000630	-0.014454	-0.623535	0.279297	0.424805	0.224822	-0.692203	-0.359079	-0.584272
61854		9.588081	0.911543	-1.998108	-0.002208	0.001791	-0.017210	-0.611084	0.273926	0.417480	0.224856	-0.692108	-0.359191	-0.584301
61855		9.573353	0.929374	-1.966964	-0.000138	0.001640	-0.017762	-0.614990	0.271973	0.420654	0.224759	-0.692101	-0.359153	-0.584370
61856		9.577393	0.920568	-1.983777	0.002663	0.001203	-0.016346	-0.620605	0.272217	0.420654	0.224704	-0.692063	-0.359188	-0.584415
61857		9.559160	0.908851	-1.981548	0.003139	0.004664	-0.018098	-0.612793	0.280029	0.420654	0.224704	-0.691934	-0.359292	-0.584504
61858		9.572569	0.919743	-1.998637	0.010534	0.008282	-0.017544	-0.615234	0.274414	0.409180	0.224804	-0.691858	-0.359332	-0.584530
61859		9.569469	0.961010	-1.959179	0.009203	0.007703	-0.016022	-0.617432	0.278564	0.411621	0.224874	-0.691726	-0.359326	-0.584664
61860		9.614850	0.947262	-1.972738	0.004049	0.001438	-0.014650	-0.618408	0.274170	0.414062	0.224938	-0.691654	-0.359323	-0.584726
61861		9.585361	0.932279	-1.943939	0.005741	0.001880	-0.015193	-0.623535	0.269531	0.418701	0.224974	-0.691564	-0.359363	-0.584794
61862		9.569454	0.926527	-1.969167	-0.000032	-0.002429	-0.013430	-0.614014	0.275391	0.414551	0.224939	-0.691489	-0.359438	-0.584851
61863		9.592487	0.912256	-2.000023	0.005128	0.003395	-0.015803	-0.614990	0.272705	0.422852	0.224949	-0.691438	-0.359423	-0.584916
61864		9.574607	0.945508	-1.964780	0.007988	0.004541	-0.016252	-0.611816	0.279541	0.417480	0.224951	-0.691387	-0.359475	-0.584944
61865		9.572966	0.921624	-1.949947	0.002450	-0.000692	-0.013872	-0.605469	0.275635	0.417236	0.224954	-0.691423	-0.359418	-0.584934
61866		9.571560	0.924075	-1.971922	0.005482	-0.000111	-0.016938	-0.614990	0.274658	0.416260	0.224870	-0.691492	-0.359335	-0.584936
61867		9.555472	0.916090	-1.962171	0.006957	-0.001126	-0.013992	-0.619873	0.274414	0.415771	0.224888	-0.691474	-0.359349	-0.584943
61868		9.577478	0.922234	-1.981077	0.004942	0.000601	-0.015311	-0.616455	0.274170	0.419922	0.224926	-0.691390	-0.359410	-0.584990
61869		9.579412	0.930017	-1.972422	0.011696	0.002825	-0.016485	-0.615234	0.275879	0.424561	0.224981	-0.691319	-0.359494	-0.585000
61870		9.589132	0.954328	-1.952008	0.003494	-0.001207	-0.015152	-0.613281	0.277344	0.416504	0.224952	-0.691342	-0.359514	-0.584972
61871		9.577327	0.909791	-1.958329	0.004541	-0.001726	-0.016426	-0.619141	0.270996	0.414307	0.224937	-0.691351	-0.359505	-0.584974
61872		9.579267	0.920322	-1.985322	0.004072	0.000115	-0.017663	-0.614258	0.273193	0.417480	0.224912	-0.691261	-0.359568	-0.585050
61873		9.592213	0.929074	-1.968550	0.010823	0.002346	-0.018840	-0.608643	0.277832	0.419678	0.224918	-0.691200	-0.359629	-0.585082
61874		9.568334	0.927165	-1.936112	0.000140	0.001867	-0.020058	-0.611572	0.274414	0.416016	0.224810	-0.691244	-0.359555	-0.585118
61875		9.573452	0.898794	-1.965225	0.002994	-0.000345	-0.022626	-0.615234	0.283691	0.412598	0.224702	-0.691232	-0.359561	-0.585169
61876		9.558638	0.943780	-1.970792	0.008851	0.002295	-0.024157	-0.609619	0.264893	0.422852	0.224771	-0.691145	-0.359637	-0.585199
61877		9.571481	0.953406	-1.954005	0.012765	0.001001	-0.020774	-0.621582	0.278320	0.423584	0.224645	-0.691139	-0.359695	-0.585219
61878		9.579972	0.953401	-1.954250	0.010902	0.001120	-0.017614	-0.614014	0.276123	0.410645	0.224740	-0.691062	-0.359828	-0.585191
61879		9.582960	0.964594	-1.959355	0.010848	-0.000457	-0.015744	-0.617188	0.276367	0.419189	0.224804	-0.691018	-0.359846	-0.585207
61880		9.591392	0.940100	-1.958842	0.004388	-0.002037	-0.015822	-0.618896	0.277100	0.412598	0.224802	-0.691012	-0.359870	-0.585201
61881		9.579779	0.919729	-1.966416	0.006901	-0.001630	-0.019258	-0.609375	0.275635	0.419678	0.224843	-0.690934	-0.359951	-0.585227
61882		9.582418	0.953350	-1.938263	0.004661	-0.004293	-0.018199	-0.622803	0.284180	0.420410	0.224740	-0.691016	-0.359908	-0.585196
61883		9.571875	0.960014	-1.961003	0.007451	-0.004264	-0.015783	-0.622070	0.280029	0.413086	0.224859	-0.690987	-0.360005	-0.585125
61884		9.582431	0.963799	-1.953783	0.005129	-0.002759	-0.014852	-0.617676	0.268066	0.422363	0.224956	-0.690922	-0.360065	-0.585128
61885		9.581975	0.895358	-1.951094	0.006781	-0.004333	-0.014522	-0.621338	0.274658	0.417969	0.224899	-0.690925	-0.360123	-0.585111
61886		9.568173	0.917832	-1.969753	0.005175	-0.001176	-0.016732	-0.615967	0.275879	0.414551	0.224925	-0.690857	-0.360202	-0.585132
61887		9.572090	0.954300	-1.954394	0.005957	0.000124	-0.016634	-0.612061	0.278564	0.416992	0.224939	-0.690822	-0.360209	-0.585164
61888		9.586164	0.965713	-1.951315	0.005883	-0.000561	-0.012764	-0.620361	0.270020	0.414795	0.224959	-0.690864	-0.360137	-0.585151
61889		9.583720	0.939795	-1.958877	0.009056	-0.001118	-0.010355	-0.617188	0.283203	0.411133	0.225028	-0.690803	-0.360178	-0.585171
61890		9.585539	0.970126	-1.952198	0.006332	-0.001503	-0.009532	-0.621582	0.273193	0.417480	0.225170	-0.690797	-0.360132	-0.585152
61891		9.587867	0.909302	-2.010808	-0.007364	-0.002632	-0.007657	-0.616943	0.277832	0.415527	0.225134	-0.690813	-0.360044	-0.585201
61892		9.578430	0.888344	-1.939264	0.005356	0.000744	-0.019250	-0.620850	0.279297	0.419922	0.225145	-0.690762	-0.360077	-0.585237
61893		9.573278	0.929725	-1.923779	0.002781	-0.002675	-0.021173	-0.622070	0.276611	0.419678	0.225135	-0.690718	-0.360166	-0.585238
61894		9.550570	0.935682	-1.976161	0.006109	-0.003343	-0.020392	-0.615479	0.283447	0.426758	0.225146	-0.690656	-0.360290	-0.585231
61895		9.595471	0.945428	-1.957625	0.006617	-0.003150	-0.020036	-0.612305	0.280518	0.414551	0.225153	-0.690695	-0.360349	-0.585145
61896		9.571512	0.945434	-1.961642	0.006842	-0.003619	-0.018420	-0.618652	0.278809	0.417969	0.225147	-0.690725	-0.360332	-0.585123
61897		9.582029	0.950348	-1.954141	0.004064	-0.001176	-0.020727	-0.615479	0.275879	0.414795	0.225140	-0.690683	-0.360388	-0.585140
61898		9.560172	0.978364	-1.950762	0.007423	-0.003780	-0.014818	-0.615723	0.278809	0.424561	0.225151	-0.690693	-0.360383	-0.585128
61899		9.584409	0.915631	-1.923371	-0.000049	-0.005771	-0.015607	-0.618164	0.276855	0.425537	0.225087	-0.690772	-0.360360	-0.585074
61900		9.592610	0.941374	-1.961514	0.001224	-0.006751	-0.015267	-0.616455	0.274170	0.418701	0.225037	-0.690831	-0.360378	-0.585012
61901		9.577511	0.936991	-1.966332	0.002170	-0.006010	-0.017798	-0.620117	0.278320	0.417969	0.224959	-0.690857	-0.360387	-0.585005
61902		9.580136	0.949047	-1.972461	0.005567	-0.003063	-0.019780	-0.620117	0.280273	0.420898	0.224972	-0.690814	-0.360462	-0.585005
61903		9.549637	0.933360	-1.966492	0.007850	-0.003215	-0.017722	-0.622070	0.275879	0.416748	0.225028	-0.690790	-0.360541	-0.584963
61904		9.583466	0.942198	-1.956313	0.006175	-0.004117	-0.018175	-0.621338	0.275635	0.424316	0.225051	-0.690735	-0.360629	-0.584966
61905		9.571653	0.943921	-1.930391	0.004539	-0.003438	-0.020510	-0.624023	0.279297	0.412842	0.225030	-0.690698	-0.360740	-0.584949
61906		9.597823	0.939000	-1.967452	0.001294	-0.006496	-0.020163	-0.621582	0.276611	0.423340	0.225029	-0.690644	-0.360815	-0.584966
61907		9.574963	0.942731	-1.984689	0.008056	0.000295	-0.022131	-0.617432	0.273193	0.412354	0.225056	-0.690559	-0.360953	-0.584970
61908		9.561891	0.965462	-1.945996	0.006995	-0.001666	-0.020973	-0.614258	0.268311	0.421143	0.225018	-0.690505	-0.360987	-0.585029
61909		9.580088	0.989200	-1.961542	0.007479	-0.000581	-0.018615	-0.617676	0.268555	0.420166	0.224938	-0.690497	-0.361002	-0.585060
61910		9.576638	0.961446	-1.955642	0.006675	-0.000990	-0.016716	-0.614990	0.278320	0.406982	0.224894	-0.690469	-0.361029	-0.585092
61911		9.588629	0.944966	-1.960264	0.000056	-0.004534	-0.014262	-0.610596	0.275391	0.416992	0.224864	-0.690500	-0.360917	-0.585136
61912		9.566143	0.923613	-1.976367	0.002029	-0.003849	-0.017078	-0.618652	0.280273	0.412598	0.224763	-0.690574	-0.360826	-0.585144
61913		9.578508	0.956683	-1.961955	0.006567	-0.002648	-0.019096	-0.615234	0.281982	0.413330	0.224801	-0.690536	-0.360856	-0.585155
61914		9.570165	0.967392	-1.975713	0.009977	-0.000744	-0.013943	-0.621826	0.279541	0.415771	0.224899	-0.690536	-0.360824	-0.585139
61915		9.586580	0.959358	-1.963294	0.002500	-0.002319	-0.013721	-0.612305	0.272949	0.413818	0.224955	-0.690511	-0.360821	-0.585148
61916		9.579666	0.947473	-1.953726	0.006048	0.000083	-0.018346	-0.617432	0.272461	0.418701	0.224896	-0.690509	-0.360771	-0.585203
61917		9.581364	0.958030	-1.980873	0.002799	-0.002540	-0.016991	-0.610840	0.272949	0.413574	0.224839	-0.690509	-0.360764	-0.585230
61918		9.551075	0.942249	-1.974433	0.006068	-0.000800	-0.020355	-0.618408	0.273438	0.419922	0.224753	-0.690517	-0.360716	-0.585283
61919		9.575633	0.979790	-1.964582	0.005820	0.000120	-0.020981	-0.617432	0.282959	0.416016	0.224717	-0.690469	-0.360768	-0.585322
61920		9.568647	0.968816	-1.955010	0.004628	-0.002178	-0.019186	-0.611572	0.272461	0.417969	0.224738	-0.690465	-0.360768	-0.585318
61921		9.568125	0.972860	-1.955555	0.003431	-0.001562	-0.016272	-0.610352	0.274658	0.418701	0.224650	-0.690513	-0.360685	-0.585346
61922		9.592477	0.960467	-1.964864	0.006396	0.000404	-0.016369	-0.617188	0.282227	0.421875	0.224599	-0.690557	-0.360601	-0.585366
61923		9.564524	0.948857	-1.949383	0.002825	0.001527	-0.018779	-0.614258	0.276367	0.424316	0.224596	-0.690559	-0.360571	-0.585383
61924		9.576931	0.983824	-1.969464	0.004185	-0.002280	-0.015295	-0.622070	0.274170	0.423096	0.224550	-0.690622	-0.360515	-0.585360
61925		9.577529	0.988274	-1.948305	0.004545	-0.001975	-0.013302	-0.614990	0.268311	0.425293	0.224577	-0.690609	-0.360537	-0.585353
61926		9.574319	0.959614	-1.942695	0.002738	-0.003220	-0.013119	-0.617188	0.281006	0.422852	0.224491	-0.690666	-0.360487	-0.585349
61927		9.594407	0.937642	-1.969301	0.006098	-0.002279	-0.014229	-0.615234	0.274170	0.422363	0.224519	-0.690709	-0.360448	-0.585311
61928		9.563380	0.968444	-1.965597	0.005849	-0.001360	-0.014854	-0.619385	0.279297	0.419922	0.224496	-0.690740	-0.360410	-0.585308
61929		9.576024	0.928243	-1.968605	0.003433	-0.001993	-0.017292	-0.616211	0.277588	0.419434	0.224494	-0.690740	-0.360400	-0.585314
61930		9.558153	0.964920	-1.948257	0.007165	-0.001188	-0.017410	-0.613770	0.279541	0.418701	0.224494	-0.690746	-0.360385	-0.585316
61931		9.593681	0.953087	-1.949416	0.007127	0.000145	-0.014404	-0.616211	0.271484	0.414062	0.224511	-0.690782	-0.360303	-0.585317
61932		9.587523	0.967861	-1.954374	0.003393	-0.000657	-0.014290	-0.619873	0.276611	0.414795	0.224488	-0.690771	-0.360248	-0.585374
61933		9.577613	0.949850	-1.974754	0.007784	0.000233	-0.015684	-0.620605	0.276611	0.419678	0.224546	-0.690721	-0.360255	-0.585406
61934		9.576711	0.974870	-1.941324	0.006079	-0.001822	-0.013240	-0.620117	0.274414	0.416260	0.224592	-0.690713	-0.360248	-0.585402
61935		9.580497	0.937931	-1.944203	0.004547	-0.002403	-0.014323	-0.617920	0.269775	0.425293	0.224607	-0.690695	-0.360239	-0.585423
61936		9.562093	0.950868	-1.979371	0.008301	-0.000009	-0.016335	-0.613770	0.270508	0.416992	0.224595	-0.690674	-0.360274	-0.585430
61937		9.567555	0.993333	-1.990871	0.007481	0.000461	-0.012419	-0.613037	0.280273	0.422852	0.224593	-0.690684	-0.360203	-0.585464
61938		9.581624	0.951534	-1.936266	0.008386	0.002102	-0.012959	-0.611816	0.271973	0.421143	0.224622	-0.690735	-0.360098	-0.585456
61939		9.566069	0.942688	-1.925792	0.004279	0.001433	-0.013837	-0.618408	0.272705	0.427002	0.224567	-0.690776	-0.359991	-0.585495
61940		9.581075	0.959518	-1.971149	0.004927	-0.000508	-0.014226	-0.621826	0.269043	0.419434	0.224548	-0.690791	-0.359974	-0.585495
61941		9.568549	0.958814	-1.966145	0.008805	0.000196	-0.015985	-0.615479	0.271973	0.421387	0.224589	-0.690710	-0.360051	-0.585528
61942		9.582437	0.970574	-1.963191	0.012786	0.000094	-0.015482	-0.614502	0.272461	0.422607	0.224618	-0.690699	-0.360061	-0.585524
61943		9.573027	0.975609	-1.928274	0.006220	-0.001917	-0.014894	-0.615479	0.275635	0.414551	0.224575	-0.690739	-0.360010	-0.585524
61944		9.573824	0.933122	-1.960919	0.008413	0.000784	-0.015985	-0.617920	0.281250	0.418457	0.224594	-0.690721	-0.359968	-0.585563
61945		9.572901	0.960021	-1.962410	0.009536	0.000370	-0.013002	-0.618896	0.273926	0.423828	0.224668	-0.690733	-0.359909	-0.585558
61946		9.576771	0.972014	-1.945818	0.009172	0.000067	-0.015003	-0.611328	0.278320	0.417236	0.224696	-0.690720	-0.359918	-0.585557
61947		9.570102	0.959151	-1.936369	0.008103	-0.003048	-0.010929	-0.613770	0.288330	0.418945	0.224695	-0.690813	-0.359776	-0.585534
61948		9.581866	0.965469	-1.942320	0.007462	-0.001548	-0.011548	-0.620117	0.265869	0.413574	0.224728	-0.690922	-0.359598	-0.585502
61949		9.586368	0.954882	-1.959706	0.007062	-0.000522	-0.010537	-0.614014	0.277100	0.421875	0.224794	-0.690849	-0.359627	-0.585545
61950		9.573907	0.953282	-1.954872	0.006054	-0.001356	-0.012263	-0.620361	0.276367	0.408447	0.224778	-0.690917	-0.359516	-0.585539
61951		9.573525	0.956041	-1.955394	0.006065	-0.001798	-0.013269	-0.611816	0.271973	0.415527	0.224846	-0.690870	-0.359499	-0.585579
61952		9.561013	0.954874	-1.950603	0.006831	-0.000488	-0.013177	-0.620850	0.277344	0.417480	0.224824	-0.690898	-0.359407	-0.585611
61953		9.583871	0.962351	-1.948229	0.007723	-0.002900	-0.011934	-0.622314	0.274658	0.410156	0.224888	-0.690896	-0.359390	-0.585599
61954		9.568287	0.953012	-1.938371	0.009124	0.001412	-0.012007	-0.622314	0.273926	0.420654	0.225013	-0.690804	-0.359411	-0.585647
61955		9.585433	0.971253	-1.940295	0.008305	-0.000149	-0.007189	-0.623047	0.278809	0.422852	0.225122	-0.690788	-0.359384	-0.585641
61956		9.576834	0.952900	-1.939095	0.005646	-0.002353	-0.010364	-0.620361	0.282471	0.417725	0.225185	-0.690802	-0.359353	-0.585619
61957		9.574432	0.950294	-1.948059	0.005621	-0.001465	-0.008355	-0.618164	0.275635	0.418213	0.225269	-0.690838	-0.359252	-0.585607
61958		9.569976	0.942862	-1.965360	0.006008	-0.002045	-0.008365	-0.616943	0.283447	0.409912	0.225317	-0.690869	-0.359169	-0.585602
61959		9.587009	0.959043	-1.932895	0.006650	-0.003541	-0.007747	-0.619141	0.271729	0.416016	0.225400	-0.690923	-0.359035	-0.585588
61960		9.590082	0.919590	-1.957781	0.004234	-0.004190	-0.010184	-0.622070	0.277100	0.418213	0.225416	-0.690933	-0.358995	-0.585595
61961		9.570592	0.927660	-1.980120	0.008457	-0.002723	-0.008947	-0.614990	0.274170	0.412598	0.225513	-0.690930	-0.358976	-0.585573
61962		9.537375	0.950360	-1.949696	0.008579	0.000084	-0.009475	-0.614258	0.278076	0.412598	0.225570	-0.690933	-0.358890	-0.585601
61963		9.577394	0.946091	-1.934175	0.004695	-0.002217	-0.005806	-0.620361	0.282471	0.422363	0.225616	-0.691000	-0.358724	-0.585605
61964		9.578079	1.026284	-1.944424	0.005313	-0.002826	-0.003177	-0.615967	0.280762	0.415771	0.225713	-0.691082	-0.358585	-0.585556
61965		9.537006	1.125529	-1.853760	-0.015024	-0.009010	0.015040	-0.620361	0.272949	0.416260	0.225721	-0.691353	-0.358122	-0.585517
61966		9.551699	1.012739	-2.050541	-0.057214	-0.010670	0.042984	-0.619385	0.277832	0.414551	0.225580	-0.691808	-0.357208	-0.585592
61967		9.592982	0.795856	-2.026672	-0.024315	-0.000152	0.039309	-0.618408	0.271240	0.423584	0.225755	-0.692092	-0.356508	-0.585616
61968		9.512586	0.942250	-1.895774	-0.024224	0.000371	0.029470	-0.615723	0.271973	0.417725	0.225814	-0.692339	-0.355914	-0.585663
61969		9.542904	0.702261	-1.878655	-0.039316	-0.006394	0.034374	-0.615723	0.275879	0.423340	0.225745	-0.692700	-0.355157	-0.585721
61970		9.453531	0.987481	-1.935462	0.007231	0.005823	0.044901	-0.609863	0.280029	0.417969	0.226208	-0.692917	-0.354597	-0.585625
61971		9.476742	1.394746	-1.907415	0.012966	0.014818	0.105237	-0.612061	0.280273	0.422363	0.227181	-0.693357	-0.353457	-0.585417
61972		9.446907	1.409320	-2.148394	0.016392	0.037691	0.208818	-0.607178	0.281982	0.424072	0.229047	-0.694060	-0.351415	-0.585086
61973		9.552542	1.677225	-2.092758	0.073837	0.065341	0.342888	-0.611328	0.288818	0.415527	0.232467	-0.695008	-0.348511	-0.584349
61974		9.667051	1.885848	-1.853998	0.145559	0.085968	0.525140	-0.605713	0.303711	0.414062	0.238000	-0.696286	-0.344558	-0.582942
61975		9.654861	1.690991	-1.585303	0.239421	0.070369	0.732843	-0.606934	0.316162	0.408447	0.245766	-0.698283	-0.339448	-0.580323
61976		9.352917	1.705536	-1.536188	0.236972	-0.016769	0.916556	-0.599121	0.330811	0.402100	0.254502	-0.701543	-0.333039	-0.576325
61977		9.055911	-0.542853	-2.163320	0.001198	-0.096170	1.006477	-0.581299	0.351318	0.410156	0.261465	-0.706365	-0.324371	-0.572249
61978		10.037142	-1.089102	-1.637565	0.232204	-0.053589	0.938284	-0.579834	0.372559	0.407959	0.270038	-0.709851	-0.317622	-0.567722
61979		10.173174	0.636276	-1.244089	0.457002	-0.047569	0.997405	-0.569092	0.383057	0.385254	0.281078	-0.712592	-0.311944	-0.562048
61980		9.277841	1.157677	-1.582316	0.433373	-0.128928	1.230018	-0.556396	0.399902	0.391846	0.293213	-0.716627	-0.304345	-0.554839
61981		8.885374	-0.367681	-2.074434	0.457954	-0.168268	1.374989	-0.543457	0.427246	0.392578	0.306285	-0.721198	-0.295674	-0.546479
61982		8.438765	-2.598013	-1.882045	0.453556	-0.189239	1.395624	-0.528320	0.446533	0.387207	0.319299	-0.725754	-0.286801	-0.537656
61983		10.001005	-1.323287	-1.911443	0.552664	-0.133175	1.392122	-0.514893	0.477295	0.381836	0.333284	-0.729238	-0.278353	-0.528823
61984		9.318491	2.916133	-2.436373	0.256929	-0.144876	1.649063	-0.474854	0.497803	0.383789	0.346166	-0.734603	-0.265634	-0.519582
61985		8.245779	-5.383631	-3.255305	-0.116048	-0.006885	1.646653	-0.465820	0.513428	0.388184	0.355785	-0.740505	-0.249537	-0.512641
61986		9.297067	-4.884823	-1.977164	0.065043	0.125836	1.233912	-0.444824	0.530518	0.375244	0.364753	-0.743144	-0.237888	-0.508037
61987		10.382157	-2.415079	-3.749080	-0.295106	0.264736	1.113143	-0.437988	0.539307	0.383545	0.369999	-0.745998	-0.224423	-0.506184
61988		8.262642	-9.858213	-2.619946	-0.217361	0.381681	0.532526	-0.434326	0.550537	0.366943	0.372540	-0.746013	-0.216311	-0.507826
61989		12.722392	-10.295649	-0.522038	-0.064762	0.586507	-0.477249	-0.452148	0.549072	0.367188	0.370801	-0.741137	-0.217869	-0.515516
61990		19.210156	-7.137178	-2.387060	0.338913	0.627641	-1.399692	-0.475586	0.527100	0.347412	0.366901	-0.731420	-0.230336	-0.526644
61991		21.811888	-1.799720	1.488568	0.496702	0.580562	-1.925854	-0.504883	0.505127	0.345459	0.360596	-0.719368	-0.248718	-0.539092
61992		15.724269	0.509986	0.081763	0.738778	0.505500	-2.380883	-0.534912	0.481689	0.326660	0.352734	-0.704786	-0.272713	-0.551799
61993		7.430758	0.001618	-1.506306	0.588986	0.238622	-2.691274	-0.564697	0.451660	0.312500	0.340145	-0.690867	-0.299295	-0.563406
61994		4.321441	-1.791899	-3.303827	-0.623255	0.031865	-2.137372	-0.592285	0.416260	0.328857	0.319934	-0.684935	-0.313177	-0.574827
61995		4.251270	-4.463349	-2.687877	-1.368871	-0.060794	-1.145956	-0.593750	0.382080	0.348877	0.299824	-0.686152	-0.313279	-0.584087
61996		2.674717	-6.290919	-3.898485	-0.357663	-0.152451	-0.507164	-0.608643	0.375000	0.356934	0.292449	-0.686688	-0.315282	-0.586114
61997		1.591665	-0.203812	-0.977338	0.179191	-0.223854	-0.159801	-0.605957	0.364746	0.351074	0.292009	-0.687061	-0.318620	-0.584088
61998		1.416149	-0.853777	-0.553193	-0.230680	-0.175800	0.366099	-0.595459	0.378174	0.345947	0.291994	-0.690645	-0.314264	-0.582226
61999		0.746250	-0.283955	-0.551070	-0.507249	-0.231346	0.777458	-0.591553	0.381836	0.366699	0.292532	-0.697139	-0.304675	-0.579306
62000		0.611979	-1.269306	-0.983764	-0.165789	-0.172982	0.940337	-0.569092	0.411133	0.364990	0.297278	-0.702545	-0.295734	-0.574976
62001		1.189999	-0.288656	-0.562664	0.692989	-0.023821	0.914329	-0.568848	0.408936	0.360107	0.310105	-0.703448	-0.292686	-0.568621
62002		2.334319	-3.796560	-0.811990	0.756316	0.209647	1.316477	-0.550049	0.447266	0.352051	0.326832	-0.703738	-0.285434	-0.562548
62003		10.917035	-2.952504	-1.838480	0.011884	0.132802	2.330612	-0.529053	0.478760	0.351807	0.343801	-0.710806	-0.264168	-0.553870
62004		14.272557	7.873135	0.720405	-1.069484	-0.080066	2.215275	-0.508301	0.497559	0.369873	0.349339	-0.722952	-0.237138	-0.546871
62005		27.099719	-2.758110	-6.725630	-1.270778	-0.430901	1.758975	-0.469971	0.505127	0.377930	0.348571	-0.736384	-0.214229	-0.538834
62006		24.087825	-14.063734	-2.895502	0.272571	-0.235313	0.434659	-0.473389	0.507324	0.377441	0.353532	-0.737918	-0.213039	-0.533954
62007		23.724386	-11.523528	2.197651	0.712090	0.230586	-1.222275	-0.494385	0.505371	0.374512	0.352582	-0.729827	-0.227975	-0.539505
62008		24.314331	-3.484498	-2.899808	1.301409	0.484627	-2.546781	-0.520508	0.487061	0.349854	0.348519	-0.713076	-0.257572	-0.551103
62009		15.450223	5.211138	-2.456769	1.768890	0.307237	-3.117372	-0.559326	0.455566	0.330078	0.343584	-0.692516	-0.295772	-0.561151
62010		6.530722	1.690281	-3.422786	0.540576	-0.059117	-2.777797	-0.593506	0.413818	0.321777	0.328379	-0.679983	-0.323416	-0.570257
62011		3.782844	-2.632147	-5.130930	-0.141186	-0.189661	-1.654244	-0.605957	0.394775	0.329102	0.314543	-0.675114	-0.337020	-0.575935
62012		4.660761	-11.309039	-3.953478	0.873130	-0.320583	-0.544819	-0.611572	0.397461	0.325195	0.316660	-0.671699	-0.348942	-0.571652
62013		1.409168	-0.481418	0.402402	1.460727	-0.423307	-0.077146	-0.611816	0.405518	0.317139	0.326571	-0.668532	-0.361481	-0.561915
62014		0.968567	-1.064447	2.221406	0.461786	-0.425574	0.493236	-0.594482	0.415771	0.315186	0.332032	-0.671866	-0.362189	-0.554228
62015		1.109659	-0.926558	1.442844	-0.110556	-0.118589	0.867507	-0.590332	0.431152	0.326172	0.336629	-0.677101	-0.354395	-0.550108
62016		1.073930	-0.868128	0.508544	-0.518757	-0.013123	1.139431	-0.564697	0.447266	0.329346	0.340021	-0.684427	-0.340928	-0.547462
62017		1.445503	-1.814502	0.650583	-0.357903	-0.030690	1.268629	-0.548828	0.457520	0.334961	0.345537	-0.691611	-0.327301	-0.543279
62018		1.796824	-0.615073	1.261488	0.040685	0.082489	1.338635	-0.546143	0.478760	0.332764	0.355280	-0.696411	-0.315132	-0.538034
62019		2.280274	1.740641	1.150089	-0.076339	0.248854	1.500384	-0.524414	0.495117	0.332031	0.365687	-0.700925	-0.300123	-0.533764
62020		4.591950	-4.468516	-0.983638	-0.106828	0.377886	2.328867	-0.495605	0.523926	0.333252	0.381554	-0.707423	-0.276752	-0.526666
62021		7.414608	-7.570861	-0.050129	-0.285608	0.170750	2.765793	-0.464355	0.562744	0.336670	0.397553	-0.716928	-0.248895	-0.515769
62022		17.734715	1.573974	-2.391629	-0.975163	-0.279942	2.305910	-0.431152	0.580811	0.348389	0.402623	-0.730491	-0.222708	-0.504658
62023		25.056068	-5.583858	-11.193983	-0.716449	-0.246603	1.383013	-0.410889	0.587891	0.356934	0.404108	-0.739404	-0.206433	-0.497358
62024		26.465733	-10.207378	-6.491290	0.222257	0.053136	-0.003614	-0.409180	0.588623	0.351318	0.406381	-0.737947	-0.207447	-0.497246
62025		24.748139	-11.053395	1.889119	0.253680	0.291075	-1.400205	-0.433838	0.578125	0.352295	0.400817	-0.731111	-0.220301	-0.506251
62026		21.431425	-7.863461	1.233200	0.965120	0.371275	-2.819430	-0.466553	0.556641	0.337158	0.392586	-0.715708	-0.249860	-0.520776
62027		16.969268	0.520929	-1.848846	1.808415	0.321306	-3.714796	-0.522461	0.519775	0.301514	0.385070	-0.692357	-0.292359	-0.535620
62028		10.216549	3.679189	-4.149766	0.772643	0.127523	-3.432858	-0.571777	0.486084	0.299561	0.368928	-0.674666	-0.326024	-0.549933
62029		4.769094	3.107724	-3.817789	-0.309272	0.041872	-2.289110	-0.585938	0.446533	0.306396	0.350613	-0.666358	-0.342459	-0.561925
62030		5.850626	-7.976990	-3.246753	-0.143292	-0.209985	-0.982871	-0.599121	0.428467	0.308594	0.341473	-0.664513	-0.349846	-0.565179
62031		1.518409	-0.805558	1.459800	0.447213	-0.358376	-0.435637	-0.602539	0.424316	0.310791	0.340451	-0.663447	-0.357608	-0.562181
62032		-1.073912	2.123312	4.147573	-0.900085	-0.519637	-0.222453	-0.605225	0.413086	0.328857	0.328977	-0.670113	-0.354784	-0.562895
62033		-0.895062	-1.040574	0.719417	-1.440470	-0.104797	-0.495091	-0.604248	0.397949	0.339844	0.312823	-0.674645	-0.348724	-0.570427
62034		0.209235	0.123551	-1.324652	-1.132377	0.186189	-0.722667	-0.610596	0.379883	0.348877	0.298846	-0.674703	-0.345479	-0.579752
62035		0.631090	-0.621495	-1.785628	-1.064395	0.073670	-0.457848	-0.625732	0.356201	0.354248	0.286771	-0.676343	-0.340741	-0.586701
62036		0.396869	-2.914424	-1.800611	-0.317865	0.064803	-0.264222	-0.627686	0.345703	0.358398	0.282466	-0.675925	-0.340245	-0.589552
62037		0.387411	0.383246	-1.049277	0.970346	0.283382	-0.231433	-0.628174	0.354492	0.340088	0.290153	-0.669437	-0.348141	-0.588610
62038		4.609180	-7.056919	0.259545	0.549014	0.248789	0.784406	-0.620117	0.373291	0.328857	0.301636	-0.669046	-0.344499	-0.585418
62039		11.273348	-9.129537	-5.494224	0.670668	-0.097001	2.879949	-0.597168	0.415283	0.320801	0.327753	-0.679249	-0.325200	-0.570477
62040		17.810651	-0.832346	3.683128	1.116628	-0.360320	2.665887	-0.552002	0.474609	0.324219	0.354689	-0.687587	-0.311832	-0.551526
62041		14.649227	6.348348	-2.887901	0.070006	-0.282755	2.213796	-0.525635	0.503906	0.323242	0.369256	-0.697802	-0.293759	-0.538914
62042		15.078798	-8.894746	-12.376068	-0.488270	-1.075700	1.453622	-0.505371	0.511719	0.340820	0.370746	-0.712583	-0.282220	-0.524524
62043		29.194853	3.766195	4.397412	0.730497	-0.216146	0.415010	-0.501465	0.525879	0.340332	0.379261	-0.712062	-0.284203	-0.518032
62044		11.845880	-7.157203	-0.358964	-1.472764	-0.507185	0.367606	-0.487305	0.522949	0.361084	0.366675	-0.723544	-0.273555	-0.516914
62045		7.949668	-7.566426	-1.828728	0.081354	-0.435430	-0.741172	-0.497070	0.508301	0.365967	0.361167	-0.723483	-0.282474	-0.516081
62046		11.711977	-5.319564	-1.194890	-0.525500	-0.352909	-1.150610	-0.508545	0.492920	0.375977	0.347759	-0.723997	-0.290908	-0.519870
62047		9.193850	-1.582702	-3.609114	-0.325165	0.114134	-1.382936	-0.518555	0.471191	0.386963	0.336270	-0.719555	-0.300605	-0.528015
62048		8.521131	1.264239	-3.010295	-0.453839	0.078846	-1.266989	-0.528809	0.454102	0.388916	0.324013	-0.716264	-0.308093	-0.535780
62049		9.045336	-3.158704	-0.170094	-0.164348	0.129806	-1.218925	-0.546143	0.431641	0.384766	0.314775	-0.711513	-0.316708	-0.542552
62050		8.391508	0.363443	-0.951583	-0.159211	0.036104	-1.143491	-0.554199	0.423340	0.388916	0.305712	-0.707438	-0.325206	-0.548007
62051		7.373743	0.491048	-3.842370	-0.158704	-0.031436	-0.996025	-0.570557	0.406982	0.394287	0.297262	-0.704431	-0.332309	-0.552253
62052		9.071727	1.025532	-2.524028	0.008678	-0.004868	-0.871316	-0.571045	0.388672	0.395264	0.291212	-0.701013	-0.339436	-0.555481
62053		10.556285	-0.136332	-1.322985	-0.182815	-0.028136	-0.716349	-0.585938	0.381592	0.395264	0.284372	-0.699100	-0.343828	-0.558725
62054		10.292718	0.717810	-1.760456	-0.224465	-0.052896	-0.592482	-0.585205	0.364014	0.403809	0.277971	-0.697922	-0.347074	-0.561406
62055		10.482790	0.216007	-2.610840	0.107136	0.034474	-0.540278	-0.595459	0.365723	0.400391	0.275105	-0.695238	-0.351741	-0.563241
62056		10.123648	0.525872	-3.088040	0.160023	0.147665	-0.529259	-0.601562	0.354736	0.395020	0.273273	-0.691600	-0.356274	-0.565756
62057		9.649782	1.181945	-2.363593	0.202377	0.205062	-0.454822	-0.605469	0.355713	0.393311	0.272627	-0.687643	-0.360414	-0.568263
62058		9.498497	0.583767	-1.432439	0.094439	0.160985	-0.365406	-0.612793	0.347168	0.386475	0.271370	-0.684876	-0.362905	-0.570616
62059		9.613307	1.102296	-1.584057	-0.087400	0.061095	-0.279795	-0.610352	0.338135	0.391113	0.268806	-0.683696	-0.363949	-0.572577
62060		9.500031	0.917170	-2.075017	-0.114726	0.017801	-0.225155	-0.614990	0.336426	0.394531	0.266129	-0.683221	-0.364350	-0.574136
62061		9.514010	1.270016	-2.252985	-0.268491	-0.022631	-0.183127	-0.616699	0.332031	0.392822	0.262199	-0.683775	-0.363338	-0.575924
62062		9.650764	0.592163	-2.444558	-0.405255	0.003112	-0.142469	-0.608643	0.323242	0.391113	0.257556	-0.684710	-0.361001	-0.578373
62063		9.755255	0.405551	-2.362291	-0.247849	0.116183	-0.137182	-0.615234	0.320068	0.395020	0.254846	-0.684312	-0.359417	-0.581025
62064		9.787022	0.839519	-2.123927	-0.041940	0.265673	-0.145001	-0.618408	0.317871	0.391357	0.254462	-0.682148	-0.358878	-0.584063
62065		9.629434	-0.373116	-1.197369	0.210859	0.276254	-0.204046	-0.626953	0.318848	0.386719	0.255831	-0.678835	-0.360634	-0.586239
62066		9.590328	0.189320	-0.804476	0.286718	0.204621	-0.238911	-0.632568	0.323730	0.381592	0.257232	-0.675641	-0.363447	-0.587577
62067		9.393844	1.244842	-1.600665	0.079438	0.181346	-0.220552	-0.635254	0.308594	0.375244	0.256802	-0.673448	-0.364471	-0.589645
62068		9.681017	0.513601	-1.959571	0.039292	0.174948	-0.219824	-0.638184	0.313232	0.374023	0.256291	-0.671161	-0.365741	-0.591685
62069		9.449932	0.778925	-1.711525	0.180817	0.166589	-0.237405	-0.643555	0.304932	0.372314	0.256604	-0.668568	-0.367888	-0.593152
62070		9.412061	1.286118	-1.093997	0.183456	0.125287	-0.195635	-0.643066	0.314209	0.360840	0.257155	-0.666350	-0.370053	-0.594062
62071		9.615191	1.283435	-0.930004	0.078812	0.070270	-0.117495	-0.640625	0.306152	0.375244	0.257063	-0.665347	-0.370728	-0.594805
62072		9.659230	1.454789	-1.121815	-0.004507	-0.005909	-0.047953	-0.646729	0.300537	0.361572	0.256253	-0.665641	-0.370202	-0.595153
62073		9.614215	1.014678	-1.396160	-0.037244	-0.037734	-0.007441	-0.639160	0.302490	0.371094	0.255764	-0.666082	-0.369919	-0.595045
62074		9.477013	0.956180	-1.686499	-0.030188	-0.026350	0.009618	-0.643311	0.310303	0.365723	0.255234	-0.666743	-0.369037	-0.595081
62075		9.608208	0.894544	-1.650632	-0.024458	-0.031201	0.021312	-0.641846	0.306152	0.375977	0.254775	-0.667508	-0.368039	-0.595038
62076		9.620030	0.906002	-1.443448	0.027349	-0.027367	0.024344	-0.639648	0.306641	0.371826	0.254688	-0.668159	-0.367277	-0.594815
62077		9.607001	1.134674	-1.269055	-0.002292	-0.064391	0.044237	-0.633545	0.311523	0.366211	0.254420	-0.669205	-0.366364	-0.594317
62078		9.705768	0.886153	-1.393224	-0.041254	-0.093159	0.057553	-0.631592	0.309814	0.371338	0.253794	-0.670671	-0.365072	-0.593727
62079		9.687773	0.798139	-1.588961	-0.022906	-0.096452	0.059434	-0.631104	0.309326	0.379639	0.253309	-0.672112	-0.363909	-0.593018
62080		9.546315	0.645455	-1.680577	-0.001547	-0.089311	0.049487	-0.639648	0.313232	0.377930	0.252849	-0.673459	-0.362830	-0.592347
62081		9.564549	0.707703	-1.815962	0.000847	-0.090473	0.030765	-0.636719	0.314453	0.373047	0.252308	-0.674658	-0.362049	-0.591691
62082		9.784532	0.747505	-1.647220	0.006584	-0.089737	0.011114	-0.636475	0.318115	0.375000	0.251802	-0.675656	-0.361633	-0.591021
62083		9.710556	0.732205	-1.404998	0.035573	-0.086979	-0.007256	-0.630127	0.314941	0.379150	0.251295	-0.676552	-0.361389	-0.590362
62084		9.597254	0.914620	-1.664110	0.015741	-0.084788	0.001471	-0.635254	0.323486	0.383545	0.250698	-0.677539	-0.360904	-0.589780
62085		9.628120	1.054805	-1.765109	0.000816	-0.070899	0.018531	-0.629395	0.314697	0.383545	0.249802	-0.678799	-0.359618	-0.589496
62086		9.628695	0.766882	-1.777483	-0.019701	-0.061977	0.025868	-0.622559	0.311279	0.387207	0.249162	-0.679842	-0.358585	-0.589194
62087		9.567727	0.747247	-1.756999	-0.020806	-0.057373	0.020053	-0.624512	0.317871	0.380859	0.248526	-0.680812	-0.357607	-0.588937
62088		9.675120	0.710541	-1.709789	-0.017306	-0.063882	0.009496	-0.627930	0.313477	0.377441	0.247799	-0.681784	-0.356719	-0.588658
62089		9.668470	0.672239	-1.709907	-0.009248	-0.065851	-0.004700	-0.627441	0.316406	0.385986	0.247409	-0.682391	-0.356606	-0.588187
62090		9.626500	0.822222	-1.771409	-0.014651	-0.064588	-0.012223	-0.620850	0.307861	0.387939	0.246560	-0.683228	-0.356004	-0.587937
62091		9.664343	0.792751	-1.808865	-0.010092	-0.065871	-0.011149	-0.629639	0.300537	0.385498	0.246054	-0.683856	-0.355855	-0.587508
62092		9.626080	0.724160	-1.851429	0.006152	-0.063155	-0.016901	-0.622314	0.319092	0.385254	0.246163	-0.683990	-0.356692	-0.586798
62093		9.637653	0.740338	-1.877642	0.007776	-0.060980	-0.024617	-0.619141	0.313965	0.393555	0.245431	-0.684694	-0.356293	-0.586526
62094		9.643552	0.838907	-1.801486	0.019778	-0.056547	-0.029490	-0.622070	0.307861	0.392578	0.244743	-0.685332	-0.355974	-0.586262
62095		9.661279	0.874457	-1.817321	0.000095	-0.063439	-0.021120	-0.625244	0.309814	0.392822	0.244255	-0.685859	-0.355996	-0.585836
62096		9.640952	0.824041	-1.911243	-0.005077	-0.061461	-0.015580	-0.622803	0.319580	0.385742	0.243733	-0.686430	-0.355889	-0.585450
62097		9.572154	0.759509	-1.911138	0.002079	-0.049407	-0.013591	-0.624756	0.310303	0.396729	0.243168	-0.687047	-0.355448	-0.585229
62098		9.567974	0.757827	-1.929779	0.001668	-0.040201	-0.019047	-0.617676	0.312012	0.392822	0.242687	-0.687484	-0.355241	-0.585042
62099		9.588276	0.770546	-1.901480	0.022293	-0.037094	-0.024129	-0.622070	0.310059	0.385010	0.242389	-0.687819	-0.355183	-0.584806
62100		9.599497	0.903891	-1.870715	0.009331	-0.035982	-0.015311	-0.614990	0.320312	0.399414	0.242443	-0.687935	-0.355538	-0.584431
62101		9.633015	0.713547	-1.897537	-0.007716	-0.043484	-0.019191	-0.620605	0.315186	0.397217	0.241360	-0.688820	-0.354437	-0.584505
62102		9.579860	0.688698	-1.970952	-0.000472	-0.036473	-0.031548	-0.618896	0.316650	0.395264	0.240611	-0.689318	-0.354012	-0.584485
62103		9.565846	0.842806	-1.945937	0.016307	-0.032208	-0.035731	-0.618896	0.309814	0.396484	0.239990	-0.689727	-0.353700	-0.584447
62104		9.560313	0.900137	-1.939970	0.003611	-0.031041	-0.024196	-0.613525	0.314209	0.404541	0.239629	-0.690010	-0.353625	-0.584306
62105		9.588953	0.874004	-1.956914	0.001283	-0.033499	-0.019532	-0.622803	0.315430	0.395264	0.238761	-0.690709	-0.352739	-0.584371
62106		9.632425	0.832895	-1.918946	-0.012524	-0.032581	-0.012008	-0.627930	0.315674	0.396484	0.238176	-0.691214	-0.352215	-0.584328
62107		9.620318	0.713112	-2.006881	-0.004565	-0.029080	-0.017644	-0.614014	0.300537	0.402344	0.237631	-0.691630	-0.351829	-0.584291
62108		9.569377	0.694936	-2.033289	0.002173	-0.019508	-0.031038	-0.613525	0.311523	0.402832	0.237541	-0.691606	-0.352186	-0.584140
62109		9.558314	0.798789	-1.968810	0.016063	-0.012497	-0.041666	-0.625000	0.309326	0.396973	0.236970	-0.691840	-0.351881	-0.584280
62110		9.573050	0.887944	-1.911674	0.005042	-0.018776	-0.034388	-0.625488	0.321045	0.402588	0.236710	-0.691888	-0.352073	-0.584212
62111		9.565784	0.905533	-1.971120	0.004061	-0.019417	-0.025014	-0.606934	0.313721	0.397705	0.235738	-0.692521	-0.351064	-0.584462
62112		9.589948	0.861331	-2.043440	-0.003870	-0.016388	-0.018743	-0.619629	0.313232	0.400146	0.235183	-0.692942	-0.350398	-0.584587
62113		9.605609	0.798243	-1.978145	-0.000551	-0.010640	-0.023443	-0.624512	0.311768	0.405518	0.234657	-0.693240	-0.349912	-0.584736
62114		9.578608	0.817298	-2.008472	0.002091	-0.010552	-0.025438	-0.617676	0.310059	0.400146	0.234027	-0.693574	-0.349370	-0.584916
62115		9.582803	0.842144	-1.952245	0.000550	-0.010221	-0.029490	-0.614746	0.306152	0.400146	0.233619	-0.693739	-0.349151	-0.585014
62116		9.562739	0.820905	-2.015964	0.001021	-0.012766	-0.028475	-0.624023	0.314941	0.402344	0.233396	-0.693806	-0.349180	-0.585006
62117		9.568216	0.817287	-2.012733	0.002160	-0.009648	-0.030167	-0.619141	0.311035	0.407227	0.232689	-0.694153	-0.348581	-0.585234
62118		9.561769	0.869263	-2.008655	0.004761	-0.004862	-0.028830	-0.616943	0.311035	0.395264	0.232000	-0.694491	-0.347918	-0.585501
62119		9.593393	0.909772	-2.016720	0.000249	-0.001934	-0.022506	-0.622314	0.307129	0.400146	0.231813	-0.694544	-0.347769	-0.585601
62120		9.578216	0.871463	-1.996004	0.004038	-0.001228	-0.014412	-0.622070	0.305176	0.397705	0.231747	-0.694573	-0.347688	-0.585640
62121		9.553345	0.862291	-2.006279	0.002310	0.001155	-0.012759	-0.625244	0.305664	0.396973	0.231891	-0.694463	-0.347852	-0.585616
62122		9.563243	0.866343	-1.984304	0.003394	0.002049	-0.017799	-0.618408	0.307129	0.402588	0.232023	-0.694306	-0.348101	-0.585603
62123		9.615003	0.841099	-1.998744	0.001626	0.001735	-0.020507	-0.616699	0.305908	0.401123	0.231782	-0.694387	-0.347849	-0.585752
62124		9.562474	0.842689	-2.008384	0.009862	0.007578	-0.020129	-0.610840	0.311035	0.396973	0.231746	-0.694337	-0.347770	-0.585872
62125		9.563562	0.883468	-1.959564	0.008769	0.009571	-0.020826	-0.626709	0.307373	0.399658	0.231586	-0.694379	-0.347439	-0.586082
62126		9.582679	0.852787	-1.961593	0.002009	0.004924	-0.019186	-0.624512	0.307373	0.407471	0.231487	-0.694342	-0.347387	-0.586196
62127		9.589121	0.845448	-1.989802	-0.000351	0.003573	-0.022569	-0.623779	0.303955	0.398438	0.231019	-0.694519	-0.346913	-0.586451
62128		9.587141	0.845706	-1.996464	0.005437	0.006803	-0.026915	-0.624756	0.304932	0.411621	0.231089	-0.694307	-0.347188	-0.586511
62129		9.588726	0.857232	-1.986658	0.014975	0.011315	-0.027197	-0.618652	0.302002	0.394775	0.230689	-0.694400	-0.346777	-0.586802
62130		9.570205	0.870946	-1.949181	0.010740	0.012971	-0.026244	-0.622559	0.313965	0.395752	0.231029	-0.694022	-0.347280	-0.586818
62131		9.565347	0.890781	-1.979243	0.013133	0.016175	-0.025577	-0.622314	0.304688	0.401611	0.230796	-0.694023	-0.346931	-0.587115
62132		9.574793	0.892615	-1.976034	0.010440	0.011446	-0.020190	-0.628418	0.307861	0.404053	0.230751	-0.693948	-0.346844	-0.587272
62133		9.580757	0.853632	-1.943941	0.010625	0.013043	-0.019531	-0.616699	0.308350	0.390625	0.230487	-0.694001	-0.346471	-0.587534
62134		9.620733	0.851674	-1.980879	0.013600	0.016909	-0.024254	-0.625732	0.306396	0.397217	0.230679	-0.693748	-0.346630	-0.587664
62135		9.602316	0.865498	-1.942486	0.010873	0.015161	-0.029672	-0.618164	0.307861	0.393555	0.230644	-0.693560	-0.346705	-0.587855
62136		9.592311	0.840707	-1.951015	0.018037	0.015551	-0.032653	-0.614990	0.310791	0.393555	0.230685	-0.693342	-0.346826	-0.588026
62137		9.545056	0.891525	-1.944932	0.019607	0.014291	-0.030619	-0.617676	0.304443	0.395508	0.230594	-0.693252	-0.346696	-0.588244
62138		9.592343	0.884585	-1.954841	0.019800	0.012627	-0.030280	-0.619873	0.302979	0.397461	0.230700	-0.693028	-0.346892	-0.588351
62139		9.588735	0.914307	-1.907234	0.017962	0.014211	-0.028974	-0.625488	0.311279	0.395996	0.230786	-0.692807	-0.347058	-0.588479
62140		9.589555	0.922132	-1.918360	0.011723	0.009767	-0.026981	-0.619873	0.312500	0.394531	0.230502	-0.692844	-0.346755	-0.588725
62141		9.594803	0.879105	-1.943352	0.016228	0.010535	-0.026953	-0.628662	0.305908	0.395508	0.230240	-0.692896	-0.346403	-0.588974
62142		9.588517	0.901073	-1.890479	0.014426	0.011165	-0.027662	-0.621338	0.313232	0.398682	0.230211	-0.692746	-0.346478	-0.589117
62143		9.553084	0.891668	-1.906843	0.012318	0.007556	-0.026644	-0.624512	0.311035	0.401611	0.229703	-0.692958	-0.345848	-0.589436
62144		9.580786	0.917335	-1.949681	0.010298	0.007537	-0.025995	-0.635742	0.307617	0.397949	0.229156	-0.693181	-0.345203	-0.589765
62145		9.562298	0.995267	-1.911550	0.007512	0.008432	-0.015222	-0.619385	0.303467	0.393555	0.228954	-0.693229	-0.344921	-0.589951
62146		9.582627	0.996754	-1.901717	0.004514	0.005885	-0.002382	-0.617920	0.299072	0.399414	0.229143	-0.693193	-0.344838	-0.589969
62147		9.592873	0.899038	-1.905807	-0.003196	0.003860	0.003985	-0.624268	0.308594	0.397705	0.229281	-0.693230	-0.344643	-0.589987
62148		9.569255	0.822461	-1.930663	0.000013	0.002319	-0.001714	-0.627197	0.310547	0.399902	0.229055	-0.693458	-0.344071	-0.590139
62149		9.615816	0.809269	-1.928536	0.003576	0.006387	-0.012876	-0.634521	0.312744	0.398193	0.228637	-0.693692	-0.343418	-0.590407
62150		9.611274	0.900410	-1.867637	0.007452	0.001195	-0.021238	-0.626709	0.311279	0.397949	0.228133	-0.693921	-0.342879	-0.590647
62151		9.620543	0.869476	-1.892594	0.007469	0.000723	-0.022252	-0.625732	0.310303	0.393555	0.227679	-0.694130	-0.342376	-0.590867
62152		9.564306	0.920725	-1.938961	0.012853	0.001667	-0.020862	-0.624512	0.310791	0.399170	0.227497	-0.694194	-0.342164	-0.590985
62153		9.556273	0.933073	-1.931140	0.015578	0.002968	-0.016457	-0.625244	0.304199	0.399170	0.227129	-0.694417	-0.341602	-0.591190
62154		9.575393	0.933649	-1.908788	0.006657	0.002594	-0.010114	-0.621338	0.303711	0.395264	0.227036	-0.694490	-0.341366	-0.591277
62155		9.582806	0.928762	-1.880834	0.004188	0.001750	-0.005731	-0.626953	0.314453	0.389160	0.227131	-0.694493	-0.341277	-0.591287
62156		9.582601	0.892713	-1.927185	0.001808	0.001703	-0.001017	-0.621826	0.311035	0.397461	0.226989	-0.694683	-0.340781	-0.591405
62157		9.608538	0.911360	-1.908634	0.008544	0.003157	-0.002999	-0.621338	0.318359	0.398682	0.226736	-0.694939	-0.340131	-0.591575
62158		9.597213	0.845952	-1.882878	-0.002638	-0.000502	-0.004080	-0.621338	0.298340	0.387695	0.225977	-0.695498	-0.338878	-0.591927
62159		9.573437	0.867267	-1.916875	0.009175	0.000075	-0.009727	-0.625000	0.310547	0.393799	0.226699	-0.695093	-0.339697	-0.591658
62160		9.620715	0.856394	-1.929325	0.011089	0.002103	-0.011426	-0.624756	0.312988	0.395264	0.226594	-0.695184	-0.339421	-0.591750
62161		9.575416	0.909596	-1.932038	0.020490	0.005910	-0.012062	-0.620850	0.310059	0.399658	0.226417	-0.695323	-0.338983	-0.591906
62162		9.555232	0.949400	-1.857698	0.021942	0.005188	-0.002228	-0.618896	0.306396	0.402100	0.226284	-0.695532	-0.338414	-0.592036
62163		9.576295	0.943540	-1.918510	0.009734	0.007863	0.007778	-0.616699	0.318115	0.394775	0.226209	-0.695748	-0.337775	-0.592176
62164		9.586264	0.937303	-1.916596	0.007995	0.007820	0.016222	-0.617920	0.303711	0.397705	0.225939	-0.696176	-0.336651	-0.592416
62165		9.649460	0.943633	-1.826361	0.000165	0.000438	0.020638	-0.623779	0.312500	0.396729	0.226188	-0.696314	-0.336304	-0.592355
62166		9.669974	0.708244	-1.883594	-0.018578	-0.008984	0.012797	-0.624268	0.306641	0.393311	0.225822	-0.696752	-0.335459	-0.592460
62167		9.577977	0.706326	-1.926549	-0.000839	-0.006620	-0.007032	-0.622314	0.318604	0.396973	0.225919	-0.696759	-0.335519	-0.592381
62168		9.569304	0.751187	-1.894898	0.012107	-0.001455	-0.023220	-0.627441	0.307861	0.395264	0.225327	-0.697070	-0.334820	-0.592635
62169		9.590710	0.892883	-1.877112	0.008975	-0.007316	-0.025213	-0.624512	0.311523	0.395264	0.225240	-0.697050	-0.334965	-0.592610
62170		9.596501	0.850962	-1.919623	0.011136	-0.007526	-0.022490	-0.626953	0.314941	0.397461	0.225015	-0.697157	-0.334831	-0.592645
62171		9.579619	0.868829	-1.927590	0.013481	-0.003820	-0.020829	-0.618896	0.314453	0.403076	0.224589	-0.697385	-0.334372	-0.592798
62172		9.606049	0.862282	-1.914452	0.008614	-0.004618	-0.016801	-0.628906	0.305176	0.397705	0.223938	-0.697795	-0.333520	-0.593042
62173		9.613508	0.826709	-1.913354	0.008138	-0.005338	-0.018155	-0.621826	0.311279	0.393555	0.223939	-0.697762	-0.333666	-0.592998
62174		9.601783	0.830678	-1.887368	0.004969	-0.002822	-0.022282	-0.622559	0.316162	0.390869	0.223775	-0.697803	-0.333571	-0.593065
62175		9.580197	0.897168	-1.916952	0.006160	-0.006317	-0.019522	-0.627686	0.304932	0.392822	0.223506	-0.697958	-0.333289	-0.593143
62176		9.599417	0.902965	-1.875639	0.001100	-0.010561	-0.013412	-0.619873	0.315918	0.395752	0.223668	-0.697883	-0.333609	-0.592990
62177		9.609834	0.841280	-1.906552	-0.001214	-0.009720	-0.013444	-0.625977	0.304199	0.394775	0.223195	-0.698217	-0.332995	-0.593121
62178		9.614611	0.826893	-1.945395	-0.001987	-0.007248	-0.017213	-0.630127	0.307617	0.395020	0.223278	-0.698135	-0.333260	-0.593036
62179		9.590455	0.858855	-1.889202	0.013050	-0.005550	-0.019155	-0.623047	0.306152	0.396973	0.223308	-0.698091	-0.333434	-0.592979
62180		9.574120	0.944816	-1.874399	0.005453	-0.006813	-0.012419	-0.621338	0.310547	0.396240	0.223312	-0.698126	-0.333444	-0.592931
62181		9.589217	0.827700	-1.939095	-0.006235	-0.007108	-0.007418	-0.617676	0.315430	0.391602	0.223093	-0.698322	-0.333086	-0.592984
62182		9.563024	0.811480	-1.958059	0.004794	-0.001316	-0.012497	-0.625977	0.309814	0.397949	0.222942	-0.698450	-0.332761	-0.593072
62183		9.589017	0.902213	-1.917346	0.005655	0.001650	-0.011851	-0.624756	0.310547	0.392822	0.222801	-0.698531	-0.332513	-0.593169
62184		9.623709	0.822464	-1.876887	-0.004456	-0.002606	-0.009159	-0.621338	0.319580	0.387695	0.222745	-0.698587	-0.332379	-0.593200
62185		9.591508	0.819002	-1.915303	0.005979	-0.002871	-0.017562	-0.622314	0.312500	0.395020	0.222542	-0.698709	-0.332093	-0.593292
62186		9.584538	0.865485	-1.945768	0.004528	-0.001387	-0.015219	-0.620361	0.312988	0.395752	0.222368	-0.698807	-0.331848	-0.593378
62187		9.605256	0.907035	-1.905176	0.010102	-0.001610	-0.012463	-0.623779	0.314697	0.400391	0.222221	-0.698934	-0.331551	-0.593450
62188		9.614802	0.875529	-1.895367	-0.004600	-0.001980	-0.006456	-0.615234	0.308838	0.389404	0.221737	-0.699269	-0.330796	-0.593657
62189		9.614943	0.812235	-1.896743	-0.000369	0.001064	-0.010877	-0.626221	0.311768	0.395020	0.221964	-0.699160	-0.330944	-0.593620
62190		9.583758	0.812099	-1.912298	0.011727	0.005847	-0.013230	-0.621582	0.312744	0.389404	0.221934	-0.699157	-0.330800	-0.593714
62191		9.549628	0.871901	-1.885463	0.013531	0.002924	-0.010806	-0.626709	0.313721	0.388916	0.222107	-0.699091	-0.330840	-0.593705
62192		9.578797	0.898791	-1.921785	0.015556	0.003348	-0.005368	-0.621582	0.309570	0.399414	0.222305	-0.699045	-0.330837	-0.593686
62193		9.612006	0.876361	-1.887585	0.013515	-0.000378	0.000777	-0.624023	0.313232	0.385986	0.222315	-0.699182	-0.330514	-0.593701
62194		9.629866	0.831340	-1.920186	0.009315	0.000262	-0.000280	-0.623291	0.316650	0.393066	0.222629	-0.699118	-0.330599	-0.593611
62195		9.616218	0.788787	-1.898591	0.015788	0.001202	-0.006023	-0.618896	0.312744	0.407227	0.222587	-0.699232	-0.330287	-0.593667
62196		9.569391	0.804417	-1.899954	0.020589	0.000278	-0.012434	-0.615479	0.308838	0.392334	0.222202	-0.699512	-0.329647	-0.593837
62197		9.578590	0.838470	-1.888762	0.010676	-0.000557	-0.011811	-0.622803	0.314453	0.388672	0.222428	-0.699424	-0.329799	-0.593771
62198		9.632846	0.852900	-1.884399	0.011015	-0.002380	-0.013144	-0.618164	0.319336	0.393555	0.222531	-0.699395	-0.329857	-0.593734
62199		9.597404	0.839540	-1.903402	0.002392	-0.003597	-0.011144	-0.625488	0.315674	0.400635	0.222232	-0.699625	-0.329354	-0.593854
62200		9.595513	0.836516	-1.911771	0.004376	-0.000760	-0.012532	-0.620850	0.314209	0.390381	0.221821	-0.699871	-0.328785	-0.594034
62201		9.594382	0.837446	-1.898284	0.004849	-0.000034	-0.011182	-0.622803	0.312500	0.392090	0.221862	-0.699873	-0.328723	-0.594051
62202		9.576336	0.847135	-1.912562	0.005237	-0.000107	-0.010161	-0.619873	0.317383	0.396973	0.221913	-0.699870	-0.328679	-0.594059
62203		9.598096	0.852032	-1.931926	0.005576	-0.001069	-0.004369	-0.626221	0.304688	0.393799	0.221668	-0.700110	-0.328119	-0.594178
62204		9.628096	0.853945	-1.902847	0.003915	-0.005254	-0.003299	-0.626221	0.311768	0.396729	0.221966	-0.700021	-0.328381	-0.594027
62205		9.619709	0.796414	-1.883691	0.000219	-0.002533	-0.006759	-0.617676	0.319824	0.395264	0.221857	-0.700127	-0.328148	-0.594071
62206		9.588302	0.760921	-1.911639	0.006875	-0.000463	-0.012869	-0.624023	0.315430	0.396240	0.221570	-0.700329	-0.327652	-0.594214
62207		9.582626	0.814573	-1.899015	0.014013	0.000019	-0.015897	-0.623779	0.310547	0.395508	0.221426	-0.700410	-0.327435	-0.594292
62208		9.594022	0.856735	-1.894029	0.011907	-0.002663	-0.012814	-0.627686	0.318604	0.390381	0.221479	-0.700404	-0.327464	-0.594263
62209		9.590579	0.847308	-1.910596	0.008864	-0.004095	-0.008051	-0.624512	0.313965	0.383545	0.221408	-0.700512	-0.327257	-0.594277
62210		9.608139	0.772007	-1.919553	0.012017	0.000366	-0.009123	-0.623047	0.315674	0.391357	0.221788	-0.700335	-0.327591	-0.594159
62211		9.593891	0.797138	-1.896465	0.015045	0.004118	-0.015628	-0.627930	0.313477	0.401611	0.221846	-0.700285	-0.327579	-0.594203
62212		9.612993	0.798931	-1.874459	0.008034	-0.001541	-0.016942	-0.618652	0.313232	0.386719	0.221527	-0.700437	-0.327239	-0.594330
62213		9.603433	0.837691	-1.898953	0.016711	0.000976	-0.017621	-0.621582	0.319336	0.406738	0.221825	-0.700260	-0.327564	-0.594248
62214		9.578916	0.896316	-1.887230	0.019853	-0.002392	-0.008713	-0.625732	0.312500	0.397461	0.221342	-0.700636	-0.326757	-0.594429
62215		9.599803	0.829164	-1.916152	0.009803	-0.004471	-0.002606	-0.623047	0.314697	0.403320	0.221317	-0.700761	-0.326533	-0.594415
62216		9.622966	0.771665	-1.915540	0.010080	-0.000711	-0.005387	-0.620361	0.314941	0.392090	0.221042	-0.700999	-0.325988	-0.594536
62217		9.600866	0.769888	-1.896638	0.012849	0.000643	-0.012885	-0.617920	0.321289	0.391846	0.221123	-0.700976	-0.325982	-0.594536
62218		9.563862	0.787832	-1.876422	0.016287	-0.000306	-0.014900	-0.624023	0.317383	0.388916	0.221020	-0.701072	-0.325727	-0.594601
62219		9.582357	0.817367	-1.900329	0.016285	-0.000303	-0.014905	-0.619629	0.314697	0.399414	0.221120	-0.701026	-0.325791	-0.594582
62220		9.575774	0.799328	-1.896895	0.014187	-0.002988	-0.011809	-0.623047	0.317627	0.389648	0.220982	-0.701161	-0.325516	-0.594626
62221		9.624464	0.795381	-1.902750	0.011846	-0.004396	-0.015202	-0.620605	0.317139	0.394531	0.221002	-0.701172	-0.325527	-0.594599
62222		9.627159	0.807924	-1.923440	0.010453	-0.002511	-0.018648	-0.618408	0.318115	0.399658	0.220863	-0.701240	-0.325379	-0.594652
62223		9.605415	0.812632	-1.883688	0.011455	-0.002483	-0.018990	-0.621826	0.314209	0.391846	0.220545	-0.701417	-0.324988	-0.594774
62224		9.582435	0.840875	-1.910704	0.009287	-0.001423	-0.014591	-0.626465	0.313232	0.405518	0.220612	-0.701384	-0.325044	-0.594759
62225		9.588183	0.831724	-1.891819	0.006906	-0.005554	-0.010442	-0.621338	0.325684	0.390625	0.220237	-0.701638	-0.324555	-0.594865
62226		9.603809	0.747665	-1.929934	0.005289	-0.002003	-0.014258	-0.621582	0.312988	0.397705	0.219936	-0.701830	-0.324099	-0.594997
62227		9.603300	0.785790	-1.919221	0.008668	0.000322	-0.015994	-0.626953	0.307373	0.402832	0.219854	-0.701858	-0.323990	-0.595054
62228		9.587071	0.809078	-1.869258	0.010794	0.000224	-0.018375	-0.622070	0.310059	0.388916	0.219763	-0.701851	-0.323977	-0.595103
62229		9.609407	0.817799	-1.902534	0.008807	-0.002142	-0.015957	-0.622803	0.314209	0.396484	0.220053	-0.701675	-0.324367	-0.594992
62230		9.594917	0.809362	-1.891700	0.007738	-0.003444	-0.016963	-0.620850	0.312500	0.388916	0.219931	-0.701733	-0.324259	-0.595027
62231		9.595196	0.814827	-1.906532	0.004172	-0.005054	-0.017630	-0.620850	0.316406	0.395020	0.220073	-0.701639	-0.324511	-0.594947
62232		9.595581	0.788239	-1.897066	0.001120	-0.002346	-0.017348	-0.623779	0.314453	0.396973	0.219886	-0.701721	-0.324316	-0.595026
62233		9.612085	0.815881	-1.893997	0.007936	-0.002790	-0.018349	-0.622070	0.313477	0.389648	0.219731	-0.701782	-0.324191	-0.595080
62234		9.585204	0.799342	-1.898907	0.001564	-0.003843	-0.019373	-0.623047	0.316406	0.391602	0.219776	-0.701715	-0.324356	-0.595053
62235		9.608552	0.817641	-1.890294	0.006247	-0.006894	-0.022383	-0.620117	0.315186	0.399658	0.219668	-0.701738	-0.324384	-0.595050
62236		9.571175	0.834760	-1.906530	0.003673	-0.005295	-0.017985	-0.625244	0.310791	0.396240	0.219389	-0.701889	-0.324100	-0.595130
62237		9.593316	0.843863	-1.940380	-0.001998	-0.002749	-0.015657	-0.626221	0.312500	0.398193	0.219291	-0.701907	-0.324058	-0.595167
62238		9.624769	0.822893	-1.879494	0.002120	-0.004144	-0.014943	-0.623535	0.314697	0.392090	0.219111	-0.701994	-0.323897	-0.595219
62239		9.607615	0.768348	-1.895572	-0.003903	-0.007026	-0.017297	-0.618652	0.311279	0.392822	0.218987	-0.702043	-0.323859	-0.595227
62240		9.588739	0.812253	-1.935522	0.005727	-0.006652	-0.021727	-0.620605	0.309326	0.390381	0.219026	-0.701992	-0.324050	-0.595170
62241		9.581690	0.831078	-1.921464	0.002105	-0.002299	-0.017717	-0.619629	0.312988	0.397461	0.219189	-0.701862	-0.324327	-0.595111
62242		9.609162	0.829754	-1.886477	0.000347	-0.004503	-0.017684	-0.623047	0.315430	0.399414	0.219026	-0.701937	-0.324192	-0.595156
62243		9.597020	0.826584	-1.917198	-0.002021	-0.006808	-0.016284	-0.625000	0.315674	0.396484	0.218698	-0.702118	-0.323865	-0.595242
62244		9.592054	0.813131	-1.941455	0.008486	-0.001698	-0.017725	-0.614014	0.316650	0.390137	0.218537	-0.702183	-0.323707	-0.595311
62245		9.609147	0.844679	-1.916888	0.003375	-0.002177	-0.015336	-0.628662	0.318848	0.399414	0.218580	-0.702178	-0.323700	-0.595305
62246		9.607563	0.810180	-1.901150	0.004786	-0.002689	-0.015669	-0.624023	0.315674	0.390137	0.218206	-0.702371	-0.323270	-0.595447
62247		9.583314	0.839030	-1.879675	0.004917	-0.004678	-0.014611	-0.630615	0.313477	0.403320	0.218215	-0.702375	-0.323297	-0.595425
62248		9.592817	0.801615	-1.926800	0.006488	-0.004955	-0.010503	-0.624023	0.316162	0.394043	0.217907	-0.702574	-0.322909	-0.595513
62249		9.605444	0.814922	-1.926044	0.007509	-0.004034	-0.015649	-0.612793	0.317139	0.397705	0.217814	-0.702630	-0.322813	-0.595533
62250		9.602675	0.810693	-1.921307	0.003715	-0.005354	-0.012897	-0.616943	0.311279	0.390381	0.217659	-0.702779	-0.322529	-0.595567
62251		9.602478	0.850303	-1.925070	0.005271	-0.002428	-0.015344	-0.617188	0.314697	0.392822	0.217849	-0.702678	-0.322750	-0.595498
62252		9.587908	0.804927	-1.911309	0.009553	-0.002211	-0.013977	-0.620850	0.314697	0.401855	0.217923	-0.702667	-0.322773	-0.595472
62253		9.572305	0.787397	-1.943040	0.008746	-0.001595	-0.015018	-0.622559	0.314453	0.397461	0.217711	-0.702793	-0.322481	-0.595558
62254		9.597307	0.810405	-1.925905	0.011552	-0.000776	-0.018456	-0.612549	0.316162	0.397461	0.217616	-0.702821	-0.322393	-0.595607
62255		9.606133	0.814342	-1.891169	0.005892	-0.002796	-0.017743	-0.625732	0.317627	0.396484	0.217502	-0.702898	-0.322228	-0.595648
62256		9.599278	0.830164	-1.911677	0.011761	-0.000597	-0.020865	-0.619385	0.314453	0.394287	0.217313	-0.702954	-0.322071	-0.595736
62257		9.611701	0.808733	-1.907348	0.001274	-0.001669	-0.018801	-0.619873	0.312988	0.395752	0.217233	-0.702961	-0.322029	-0.595779
62258		9.593196	0.820294	-1.921970	0.007886	-0.001355	-0.022232	-0.629639	0.312012	0.390625	0.217179	-0.702936	-0.322067	-0.595808
62259		9.583230	0.827450	-1.923094	0.005138	-0.004963	-0.018061	-0.620361	0.310059	0.397705	0.217200	-0.702881	-0.322231	-0.595776
62260		9.584941	0.838823	-1.929883	0.007632	-0.000571	-0.017802	-0.622314	0.315430	0.388672	0.217194	-0.702855	-0.322258	-0.595794
62261		9.590931	0.831028	-1.910415	0.010851	-0.001653	-0.017442	-0.616455	0.313965	0.396729	0.217305	-0.702780	-0.322410	-0.595761
62262		9.622365	0.839827	-1.908619	0.007240	-0.001862	-0.015043	-0.622314	0.318115	0.394287	0.217274	-0.702816	-0.322322	-0.595777
62263		9.584212	0.817335	-1.907485	0.008179	-0.003099	-0.016737	-0.616455	0.313477	0.399902	0.217151	-0.702886	-0.322178	-0.595818
62264		9.584552	0.819866	-1.957407	0.001033	-0.005425	-0.016010	-0.616455	0.310791	0.395996	0.216976	-0.702999	-0.321981	-0.595854
62265		9.591813	0.856737	-1.898792	0.007298	-0.004645	-0.014314	-0.620605	0.315430	0.397949	0.217037	-0.702997	-0.322033	-0.595806
62266		9.592763	0.789988	-1.921692	0.001881	-0.004285	-0.012607	-0.623047	0.312256	0.392090	0.216873	-0.703117	-0.321798	-0.595851
62267		9.594508	0.800951	-1.928456	0.002651	-0.001691	-0.018146	-0.616699	0.310791	0.397705	0.216889	-0.703064	-0.321894	-0.595856
62268		9.609196	0.862294	-1.900697	0.006633	-0.001064	-0.018505	-0.628418	0.310303	0.396240	0.216883	-0.703045	-0.321916	-0.595869
62269		9.604482	0.848535	-1.924323	0.003246	-0.002472	-0.014707	-0.624023	0.309570	0.397217	0.216813	-0.703054	-0.321891	-0.595897
62270		9.596078	0.787610	-1.911874	0.003263	-0.002945	-0.015729	-0.619873	0.316650	0.396484	0.216764	-0.703059	-0.321888	-0.595911
62271		9.596258	0.832256	-1.893941	0.002645	-0.001684	-0.018158	-0.619629	0.317383	0.387451	0.216599	-0.703127	-0.321716	-0.595983
62272		9.628332	0.843427	-1.906068	0.003710	-0.004433	-0.017766	-0.623047	0.314209	0.393799	0.216643	-0.703097	-0.321809	-0.595952
62273		9.579266	0.818125	-1.913484	-0.001621	-0.007345	-0.016337	-0.625977	0.310791	0.399658	0.216520	-0.703161	-0.321748	-0.595955
62274		9.572935	0.799093	-1.945759	0.006328	-0.004718	-0.020860	-0.617920	0.307129	0.395020	0.216349	-0.703205	-0.321694	-0.595993
62275		9.582993	0.846050	-1.906616	0.007463	-0.002603	-0.019532	-0.617676	0.318359	0.396484	0.216467	-0.703108	-0.321921	-0.595944
62276		9.603325	0.854871	-1.878300	0.004642	-0.006550	-0.014649	-0.630371	0.311768	0.397705	0.216320	-0.703236	-0.321715	-0.595957
62277		9.611670	0.812099	-1.933371	0.004641	-0.006548	-0.014652	-0.619141	0.312500	0.393066	0.216158	-0.703318	-0.321603	-0.595979
62278		9.594330	0.830976	-1.906071	0.008172	-0.003530	-0.017809	-0.625244	0.307617	0.394043	0.216218	-0.703279	-0.321714	-0.595943
62279		9.592384	0.828827	-1.914857	0.003491	-0.004595	-0.015380	-0.624512	0.307373	0.390381	0.216262	-0.703234	-0.321848	-0.595907
62280		9.592732	0.797470	-1.926985	0.009807	-0.005217	-0.016755	-0.621582	0.315918	0.392822	0.216441	-0.703121	-0.322153	-0.595812
62281		9.602978	0.804808	-1.920305	0.006881	-0.003645	-0.020222	-0.626953	0.310547	0.396973	0.216386	-0.703123	-0.322169	-0.595821
62282		9.579009	0.836271	-1.912781	0.012307	-0.004452	-0.022972	-0.620605	0.311768	0.396729	0.216307	-0.703105	-0.322250	-0.595826
62283		9.622336	0.855721	-1.896396	0.000972	-0.007151	-0.018433	-0.620850	0.310059	0.397949	0.216198	-0.703155	-0.322225	-0.595821
62284		9.592979	0.824206	-1.952228	0.005628	-0.005600	-0.019852	-0.621582	0.322998	0.400635	0.216127	-0.703170	-0.322254	-0.595814
62285		9.601744	0.826317	-1.953309	0.007887	-0.004065	-0.021611	-0.630859	0.312500	0.393066	0.215780	-0.703347	-0.321895	-0.595924
62286		9.591676	0.836542	-1.919228	0.006809	-0.001315	-0.022012	-0.624512	0.317627	0.395996	0.215683	-0.703309	-0.321946	-0.595977
62287		9.602656	0.846328	-1.925712	0.004564	-0.003320	-0.021284	-0.621582	0.310791	0.408203	0.215473	-0.703379	-0.321801	-0.596049
62288		9.574563	0.857204	-1.975938	0.008015	-0.001983	-0.019946	-0.622803	0.311523	0.392334	0.215193	-0.703501	-0.321533	-0.596149
62289		9.577780	0.841168	-1.937151	0.006677	-0.004271	-0.018869	-0.624756	0.312500	0.397949	0.215222	-0.703459	-0.321658	-0.596121
62290		9.586315	0.881718	-1.905538	0.008358	-0.000623	-0.015850	-0.623047	0.308838	0.403564	0.215141	-0.703486	-0.321566	-0.596169
62291		9.601331	0.866345	-1.907304	0.006803	-0.002617	-0.011332	-0.631104	0.308838	0.395020	0.215033	-0.703573	-0.321383	-0.596204
62292		9.596468	0.810527	-1.949793	-0.000304	-0.005468	-0.011602	-0.624023	0.315430	0.391602	0.214949	-0.703611	-0.321336	-0.596214
62293		9.611616	0.839350	-1.898406	0.002505	-0.001977	-0.017537	-0.627197	0.309570	0.403320	0.214897	-0.703608	-0.321322	-0.596245
62294		9.601002	0.841633	-1.920728	-0.002131	-0.004009	-0.017142	-0.615967	0.306396	0.391113	0.214611	-0.703721	-0.321088	-0.596340
62295		9.565924	0.827816	-1.939428	0.000386	-0.005027	-0.013686	-0.620117	0.311279	0.400391	0.214808	-0.703630	-0.321335	-0.596244
62296		9.586420	0.833435	-1.945982	0.004603	-0.002451	-0.014096	-0.621582	0.313721	0.404053	0.214723	-0.703689	-0.321208	-0.596273
62297		9.610337	0.855249	-1.915739	0.005451	-0.004002	-0.015104	-0.622314	0.318848	0.396973	0.214502	-0.703827	-0.320936	-0.596335
62298		9.583302	0.835633	-1.906929	0.005882	-0.005012	-0.016123	-0.627441	0.305420	0.394775	0.214330	-0.703940	-0.320733	-0.596373
62299		9.576664	0.811134	-1.959945	0.006180	-0.001816	-0.014811	-0.623779	0.318848	0.401611	0.214394	-0.703871	-0.320867	-0.596360
62300		9.611390	0.836845	-1.921637	0.009804	-0.002511	-0.019295	-0.616211	0.302490	0.399170	0.214134	-0.704000	-0.320587	-0.596452
62301		9.590541	0.840222	-1.930785	0.004190	-0.005068	-0.019574	-0.618896	0.311768	0.395752	0.214211	-0.703932	-0.320797	-0.596392
62302		9.579148	0.841290	-1.939585	0.006081	-0.001712	-0.019997	-0.621338	0.318604	0.396973	0.214205	-0.703901	-0.320854	-0.596400
62303		9.593554	0.866402	-1.909385	0.007604	-0.002772	-0.016189	-0.624023	0.313721	0.396240	0.214079	-0.703984	-0.320680	-0.596441
62304		9.574818	0.835334	-1.942544	0.010146	-0.001146	-0.015200	-0.625000	0.315186	0.386963	0.214049	-0.703998	-0.320625	-0.596464
62305		9.593317	0.833819	-1.942649	0.008763	-0.001597	-0.016914	-0.617676	0.314941	0.401123	0.214147	-0.703921	-0.320769	-0.596442
62306		9.619943	0.865149	-1.931884	0.007364	-0.001577	-0.017603	-0.624023	0.317871	0.393066	0.214030	-0.703988	-0.320618	-0.596487
62307		9.594984	0.815628	-1.911951	0.005253	-0.004212	-0.019616	-0.619141	0.310303	0.397217	0.213914	-0.704026	-0.320558	-0.596515
62308		9.572219	0.849430	-1.931482	0.007540	-0.000919	-0.019006	-0.618652	0.307129	0.394531	0.213922	-0.703992	-0.320612	-0.596524
62309		9.592062	0.854399	-1.923737	0.007922	-0.000510	-0.016948	-0.616943	0.316162	0.398926	0.214054	-0.703898	-0.320789	-0.596492
62310		9.595017	0.871305	-1.922631	0.003696	-0.002625	-0.015507	-0.612793	0.313965	0.394531	0.213957	-0.703973	-0.320635	-0.596522
62311		9.606049	0.801146	-1.930758	0.003204	-0.002884	-0.015848	-0.619873	0.318115	0.390381	0.214016	-0.703965	-0.320671	-0.596491
62312		9.579925	0.824282	-1.916536	0.009198	0.000053	-0.020431	-0.625732	0.301025	0.399658	0.214045	-0.703916	-0.320734	-0.596504
62313		9.599027	0.866242	-1.911796	0.008126	-0.000792	-0.020413	-0.614014	0.312744	0.399902	0.214047	-0.703834	-0.320883	-0.596520
62314		9.609349	0.833571	-1.922896	0.006419	-0.003496	-0.021391	-0.623047	0.316895	0.389648	0.213994	-0.703851	-0.320884	-0.596518
62315		9.572203	0.891319	-1.933769	0.008183	-0.002628	-0.017618	-0.622559	0.309570	0.397949	0.214015	-0.703828	-0.320933	-0.596511
62316		9.613633	0.862322	-1.929186	0.000554	-0.004363	-0.015128	-0.632812	0.321289	0.393066	0.213928	-0.703869	-0.320872	-0.596527
62317		9.574680	0.873688	-1.916955	0.004216	-0.000609	-0.012805	-0.625488	0.322754	0.391602	0.213725	-0.703969	-0.320592	-0.596632
62318		9.590643	0.859495	-1.932266	0.002776	-0.002291	-0.008959	-0.614014	0.312988	0.397217	0.213628	-0.704074	-0.320343	-0.596677
62319		9.595201	0.839834	-1.941653	0.003498	-0.000105	-0.008664	-0.618896	0.322510	0.394531	0.213710	-0.704094	-0.320266	-0.596665
62320		9.595708	0.846314	-1.920126	0.005811	0.002247	-0.010110	-0.622803	0.303223	0.393066	0.213683	-0.704157	-0.320044	-0.596719
62321		9.580069	0.825695	-1.937263	0.005347	-0.001599	-0.010027	-0.614014	0.311768	0.396484	0.213853	-0.704074	-0.320205	-0.596670
62322		9.614156	0.846103	-1.920121	0.010086	-0.000153	-0.013198	-0.620361	0.313477	0.397461	0.213989	-0.704038	-0.320264	-0.596632
62323		9.590911	0.838655	-1.908881	0.013734	-0.001723	-0.012841	-0.620361	0.308838	0.392090	0.214040	-0.704051	-0.320239	-0.596612
62324		9.574996	0.859068	-1.908155	0.015940	0.000779	-0.012564	-0.617920	0.311523	0.398193	0.214265	-0.703947	-0.320422	-0.596556
62325		9.579111	0.797891	-1.921787	0.007374	0.000202	-0.015277	-0.618408	0.316895	0.392334	0.214289	-0.703935	-0.320412	-0.596567
62326		9.583979	0.859747	-1.942857	0.016204	0.004405	-0.017153	-0.618408	0.309082	0.388672	0.214427	-0.703847	-0.320494	-0.596576
62327		9.624042	0.908941	-1.872990	0.013193	0.002083	-0.012588	-0.623047	0.318848	0.393799	0.214703	-0.703706	-0.320729	-0.596517
62328		9.591728	0.859178	-1.914997	0.002494	-0.002795	-0.005840	-0.622803	0.311523	0.394775	0.214674	-0.703801	-0.320522	-0.596528
62329		9.587168	0.800636	-1.942785	0.004488	-0.000049	-0.009030	-0.621826	0.326904	0.397949	0.214711	-0.703808	-0.320457	-0.596541
62330		9.575696	0.877699	-1.949395	0.002077	0.000382	-0.008334	-0.624756	0.314453	0.393799	0.214550	-0.703962	-0.320066	-0.596626
62331		9.586734	0.810570	-1.872886	0.004748	-0.001709	-0.008650	-0.635010	0.308350	0.389160	0.214549	-0.704001	-0.319958	-0.596639
62332		9.592359	0.834473	-1.891922	0.000954	-0.004381	-0.007183	-0.618652	0.313477	0.387695	0.214515	-0.704022	-0.319903	-0.596656
62333		9.617174	0.809946	-1.964031	0.007609	-0.003618	-0.011398	-0.625244	0.311279	0.399414	0.214693	-0.703969	-0.320045	-0.596579
62334		9.595182	0.808621	-1.945486	0.008044	-0.001985	-0.014905	-0.620605	0.310547	0.394531	0.214611	-0.704004	-0.319957	-0.596613
62335		9.586576	0.823190	-1.903685	0.011938	-0.002096	-0.015623	-0.629639	0.317139	0.400391	0.214698	-0.703961	-0.320057	-0.596580
62336		9.613548	0.858965	-1.872030	0.006992	-0.003308	-0.015914	-0.624268	0.307617	0.396973	0.214473	-0.704071	-0.319823	-0.596656
62337		9.592817	0.857818	-1.916230	0.002259	-0.004764	-0.012733	-0.622803	0.316406	0.392090	0.214428	-0.704099	-0.319794	-0.596655
62338		9.590092	0.807806	-1.950821	0.002661	-0.004826	-0.011696	-0.619385	0.314453	0.392090	0.214409	-0.704143	-0.319733	-0.596642
62339		9.587098	0.802045	-1.931616	0.005451	0.000438	-0.015303	-0.621338	0.305176	0.393066	0.214471	-0.704099	-0.319777	-0.596648
62340		9.592780	0.875804	-1.876105	0.005490	-0.005785	-0.012390	-0.617188	0.313477	0.393311	0.214565	-0.704067	-0.319906	-0.596584
62341		9.605674	0.807535	-1.912610	-0.004985	-0.010979	-0.009082	-0.611084	0.310547	0.401367	0.214553	-0.704157	-0.319862	-0.596505
62342		9.592360	0.793063	-1.986338	-0.001134	-0.004860	-0.012717	-0.619873	0.307373	0.400146	0.214561	-0.704203	-0.319827	-0.596466
62343		9.600358	0.836745	-1.919851	0.006454	0.000028	-0.016698	-0.623535	0.302979	0.393799	0.214552	-0.704179	-0.319841	-0.596491
62344		9.605746	0.868405	-1.868697	0.004158	-0.004972	-0.012755	-0.619873	0.315674	0.397705	0.214600	-0.704148	-0.319941	-0.596457
62345		9.592949	0.815862	-1.925135	0.000759	-0.007242	-0.009211	-0.628662	0.318604	0.397217	0.214545	-0.704253	-0.319801	-0.596427
62346		9.598699	0.799670	-1.962936	0.002826	-0.004163	-0.013115	-0.627930	0.312988	0.391357	0.214364	-0.704360	-0.319582	-0.596484
62347		9.584536	0.831259	-1.933286	0.013362	0.001842	-0.016106	-0.619385	0.315918	0.396240	0.214402	-0.704297	-0.319628	-0.596520
62348		9.587582	0.892742	-1.892866	0.002468	-0.004997	-0.009278	-0.624512	0.320801	0.395508	0.214396	-0.704366	-0.319526	-0.596494
62349		9.582956	0.792437	-1.925715	0.004053	-0.004821	-0.011031	-0.624268	0.312744	0.403076	0.214304	-0.704464	-0.319350	-0.596506
62350		9.578561	0.777639	-1.949968	0.004285	-0.006054	-0.016562	-0.620605	0.315186	0.403320	0.214123	-0.704562	-0.319203	-0.596534
62351		9.584501	0.853896	-1.908841	-0.003737	-0.005136	-0.017567	-0.621094	0.314941	0.396973	0.213898	-0.704672	-0.319011	-0.596589
62352		9.561640	0.849242	-1.912350	-0.011736	-0.009499	-0.013590	-0.620361	0.312744	0.396240	0.213694	-0.704799	-0.318839	-0.596602
62353		9.602516	0.816018	-1.930641	-0.012369	-0.013527	-0.011067	-0.618408	0.314941	0.397461	0.213522	-0.704946	-0.318701	-0.596565
62354		9.611153	0.810796	-2.003034	-0.003411	-0.008157	-0.013343	-0.622314	0.306152	0.399658	0.213432	-0.705033	-0.318613	-0.596541
62355		9.592301	0.826882	-1.948194	-0.003455	-0.002402	-0.017294	-0.625000	0.316162	0.403076	0.213309	-0.705044	-0.318569	-0.596596
62356		9.577190	0.815941	-1.909755	-0.005874	-0.006834	-0.017529	-0.612549	0.308594	0.396484	0.213007	-0.705186	-0.318319	-0.596668
62357		9.582734	0.805134	-1.912919	-0.004989	-0.009310	-0.020615	-0.623047	0.317871	0.396973	0.212976	-0.705189	-0.318446	-0.596608
62358		9.580549	0.843384	-1.953394	-0.003676	-0.009640	-0.019232	-0.625244	0.310059	0.396484	0.212767	-0.705292	-0.318340	-0.596618
62359		9.591756	0.854482	-1.974887	0.003458	-0.005894	-0.018678	-0.630127	0.324951	0.404785	0.212661	-0.705313	-0.318342	-0.596630
62360		9.593800	0.831281	-1.930119	0.005635	-0.002910	-0.017373	-0.623291	0.318115	0.399902	0.212348	-0.705472	-0.317993	-0.596739
62361		9.589327	0.859893	-1.949792	0.000487	-0.006537	-0.018648	-0.621094	0.312256	0.388672	0.212152	-0.705568	-0.317854	-0.596770
62362		9.600074	0.826898	-1.961646	0.001871	-0.006069	-0.016933	-0.615967	0.313721	0.397705	0.212190	-0.705533	-0.317982	-0.596730
62363		9.598826	0.826782	-1.983934	0.002655	-0.001377	-0.020872	-0.609863	0.311768	0.398438	0.212170	-0.705504	-0.318036	-0.596742
62364		9.589536	0.841355	-1.928341	0.006229	-0.003245	-0.019822	-0.620361	0.315430	0.400146	0.212265	-0.705455	-0.318192	-0.596683
62365		9.587603	0.836779	-1.971991	0.003260	-0.003893	-0.019787	-0.618652	0.313232	0.393799	0.212153	-0.705491	-0.318143	-0.596706
62366		9.580023	0.852450	-1.992580	-0.001259	-0.000814	-0.019122	-0.622559	0.313721	0.395752	0.212128	-0.705454	-0.318184	-0.596737
62367		9.600738	0.824018	-1.932802	0.007599	-0.000594	-0.021645	-0.620117	0.310303	0.400635	0.212085	-0.705415	-0.318233	-0.596772
62368		9.582455	0.836144	-1.960786	0.002289	-0.000035	-0.020571	-0.625732	0.312988	0.390869	0.211998	-0.705400	-0.318221	-0.596827
62369		9.592933	0.802642	-1.957622	0.001256	-0.001830	-0.022618	-0.622314	0.313477	0.405029	0.211904	-0.705358	-0.318274	-0.596882
62370		9.576487	0.829525	-1.921844	0.008970	-0.001081	-0.028980	-0.619385	0.310303	0.410400	0.211718	-0.705354	-0.318272	-0.596954
62371		9.597229	0.840611	-1.941904	-0.000922	-0.003104	-0.028510	-0.619873	0.318115	0.402100	0.211433	-0.705406	-0.318183	-0.597041
62372		9.588795	0.857044	-1.948918	0.006923	-0.002459	-0.029647	-0.614990	0.313232	0.406494	0.211267	-0.705407	-0.318201	-0.597089
62373		9.568741	0.913396	-1.910776	0.001644	-0.004552	-0.026075	-0.623779	0.307129	0.405273	0.211110	-0.705440	-0.318195	-0.597109
62374		9.606338	0.864807	-1.950505	-0.003937	-0.004055	-0.020809	-0.615234	0.315674	0.397705	0.210868	-0.705503	-0.318071	-0.597185
62375		9.589153	0.886278	-1.936389	-0.001398	-0.002861	-0.020863	-0.616943	0.310059	0.399902	0.210817	-0.705502	-0.318092	-0.597193
62376		9.601516	0.860054	-1.939748	-0.005452	-0.003443	-0.018724	-0.624756	0.312012	0.397705	0.210720	-0.705521	-0.318067	-0.597219
62377		9.582489	0.870657	-1.954468	-0.002899	-0.002717	-0.019814	-0.626221	0.309082	0.407471	0.210553	-0.705549	-0.317990	-0.597286
62378		9.567587	0.856951	-1.950573	-0.002332	-0.002119	-0.020185	-0.618652	0.305664	0.398682	0.210279	-0.705628	-0.317794	-0.597393
62379		9.579560	0.872802	-1.949639	0.000179	-0.004368	-0.018067	-0.625977	0.317383	0.399658	0.210244	-0.705620	-0.317845	-0.597388
62380		9.567101	0.870109	-1.931023	0.000493	-0.004291	-0.015281	-0.619873	0.306152	0.404785	0.210081	-0.705709	-0.317672	-0.597432
62381		9.617779	0.878013	-1.943168	-0.001110	-0.002304	-0.017058	-0.625244	0.312988	0.395752	0.209968	-0.705741	-0.317598	-0.597474
62382		9.591672	0.858596	-1.933185	-0.000793	-0.000982	-0.019888	-0.620605	0.313721	0.392822	0.209840	-0.705742	-0.317547	-0.597545
62383		9.579858	0.858237	-1.927588	-0.001349	-0.002043	-0.020563	-0.620605	0.310303	0.401123	0.209790	-0.705713	-0.317589	-0.597574
62384		9.581126	0.870687	-1.933969	-0.005098	-0.000848	-0.020210	-0.621338	0.308105	0.400879	0.209640	-0.705728	-0.317515	-0.597648
62385		9.580655	0.875888	-1.933957	-0.004453	0.000082	-0.021288	-0.623535	0.308838	0.398682	0.209492	-0.705723	-0.317466	-0.597732
62386		9.591989	0.888004	-1.953760	-0.003167	-0.001973	-0.022310	-0.616943	0.306885	0.402832	0.209331	-0.705723	-0.317436	-0.597804
62387		9.597409	0.919783	-1.950999	0.003562	-0.000296	-0.019263	-0.621582	0.312988	0.406006	0.209312	-0.705697	-0.317467	-0.597825
62388		9.594736	0.871392	-1.921964	0.002475	-0.000226	-0.017159	-0.614502	0.308838	0.403809	0.209190	-0.705745	-0.317331	-0.597883
62389		9.576971	0.887149	-1.928842	0.005180	-0.002743	-0.018533	-0.625488	0.312256	0.399414	0.209200	-0.705740	-0.317378	-0.597861
62390		9.583599	0.876879	-1.944678	0.004504	-0.002737	-0.015381	-0.621094	0.303223	0.408203	0.209114	-0.705779	-0.317290	-0.597892
62391		9.574832	0.888405	-1.937796	0.006614	-0.001005	-0.015440	-0.622070	0.307861	0.399414	0.209053	-0.705801	-0.317224	-0.597921
62392		9.578704	0.864165	-1.954531	0.011685	0.001398	-0.015542	-0.626953	0.303467	0.402100	0.209104	-0.705759	-0.317254	-0.597938
62393		9.608266	0.870379	-1.911370	0.010720	0.000400	-0.017266	-0.621826	0.310791	0.398682	0.209050	-0.705741	-0.317233	-0.597990
62394		9.589389	0.879712	-1.925551	0.007332	0.000259	-0.017234	-0.616699	0.304199	0.394531	0.209048	-0.705717	-0.317239	-0.598015
62395		9.585333	0.865702	-1.949055	0.004968	-0.004659	-0.018509	-0.625488	0.308838	0.392090	0.209121	-0.705661	-0.317408	-0.597966
62396		9.581123	0.898784	-1.946879	0.008900	0.000466	-0.019013	-0.625244	0.304932	0.392578	0.209137	-0.705594	-0.317486	-0.597998
62397		9.575320	0.923815	-1.938070	0.007568	0.000007	-0.013739	-0.618408	0.302002	0.397705	0.209184	-0.705544	-0.317528	-0.598018
62398		9.609714	0.903117	-1.925471	0.001310	-0.001734	-0.008735	-0.620117	0.310791	0.403320	0.209256	-0.705537	-0.317525	-0.598003
62399		9.580458	0.863246	-1.938269	0.002455	-0.001002	-0.010515	-0.627441	0.308838	0.400391	0.209240	-0.705582	-0.317409	-0.598017
62400		9.579631	0.864257	-1.924836	0.003446	-0.000931	-0.010879	-0.620117	0.313477	0.395508	0.209161	-0.705629	-0.317257	-0.598069
62401		9.584976	0.890509	-1.957596	0.003195	-0.004118	-0.012209	-0.622314	0.305420	0.400635	0.209192	-0.705652	-0.317242	-0.598040
62402		9.575061	0.895258	-1.958382	0.005992	-0.000189	-0.011975	-0.620117	0.311035	0.395752	0.209201	-0.705652	-0.317196	-0.598060
62403		9.597114	0.866483	-1.912507	0.005713	-0.002444	-0.011223	-0.625244	0.305176	0.406250	0.209269	-0.705653	-0.317199	-0.598034
62404		9.596098	0.864617	-1.934556	0.004400	-0.002586	-0.013663	-0.626221	0.309570	0.393799	0.209154	-0.705712	-0.317066	-0.598075
62405		9.587224	0.872697	-1.962815	0.003561	-0.001993	-0.014722	-0.619141	0.310059	0.404297	0.209114	-0.705712	-0.317035	-0.598107
62406		9.568320	0.884857	-1.942447	0.007950	-0.002235	-0.016167	-0.624023	0.305908	0.389648	0.209109	-0.705726	-0.317023	-0.598098
62407		9.601726	0.907404	-1.925883	0.006441	-0.001642	-0.014063	-0.618164	0.308350	0.402588	0.209166	-0.705676	-0.317094	-0.598099
62408		9.596179	0.884898	-1.942934	0.002112	-0.000602	-0.012289	-0.627441	0.308594	0.398682	0.209174	-0.705690	-0.317040	-0.598108
62409		9.605388	0.885721	-1.943122	0.002476	-0.001926	-0.012615	-0.622314	0.307129	0.398438	0.209083	-0.705730	-0.316919	-0.598157
62410		9.595530	0.893813	-1.908899	0.006713	-0.002827	-0.012641	-0.623535	0.311279	0.402344	0.209099	-0.705739	-0.316904	-0.598149
62411		9.548934	0.868984	-1.893744	0.007427	-0.005010	-0.012251	-0.614746	0.304932	0.402832	0.209065	-0.705800	-0.316826	-0.598130
62412		9.557661	0.818069	-1.942083	0.005336	-0.007213	-0.013234	-0.615479	0.311279	0.400391	0.209114	-0.705829	-0.316877	-0.598052
62413		9.599712	0.834206	-1.947974	0.012447	-0.006971	-0.019289	-0.629150	0.311279	0.404297	0.209189	-0.705819	-0.317024	-0.597960
62414		9.582239	0.902832	-1.923501	0.011270	-0.009431	-0.019929	-0.619141	0.309082	0.395508	0.209025	-0.705905	-0.316966	-0.597946
62415		9.594076	0.871457	-1.950253	0.008037	-0.012369	-0.019129	-0.625000	0.309082	0.400635	0.209028	-0.705932	-0.317104	-0.597840
62416		9.562801	0.874103	-1.947459	0.010612	-0.009890	-0.017815	-0.620117	0.309326	0.407715	0.208957	-0.705989	-0.317120	-0.597789
62417		9.596125	0.899041	-1.947038	0.006568	-0.013172	-0.020158	-0.624512	0.308350	0.401855	0.208832	-0.706088	-0.317128	-0.597711
62418		9.592272	0.889709	-1.951690	0.005962	-0.012373	-0.016660	-0.624512	0.310059	0.400146	0.208716	-0.706183	-0.317104	-0.597652
62419		9.552527	0.896596	-1.976328	0.004225	-0.009333	-0.014603	-0.618896	0.306641	0.399658	0.208625	-0.706262	-0.317052	-0.597618
62420		9.592273	0.855652	-1.974478	0.004433	-0.007872	-0.015697	-0.620117	0.307129	0.392334	0.208613	-0.706291	-0.317095	-0.597566
62421		9.584890	0.878111	-1.940330	0.004810	-0.009658	-0.017071	-0.616211	0.308838	0.394043	0.208623	-0.706296	-0.317208	-0.597496
62422		9.545577	0.935145	-1.966855	-0.001237	-0.012164	-0.016590	-0.622803	0.315674	0.399658	0.208613	-0.706333	-0.317306	-0.597403
62423		9.608322	0.813637	-1.979790	-0.004988	-0.011003	-0.016221	-0.626709	0.316650	0.399658	0.208455	-0.706442	-0.317217	-0.597377
62424		9.594552	0.902081	-1.946282	0.003826	-0.007208	-0.020997	-0.616943	0.310303	0.413330	0.208302	-0.706498	-0.317175	-0.597387
62425		9.601081	0.892416	-1.962887	-0.000597	-0.005588	-0.016406	-0.612549	0.304443	0.403076	0.208185	-0.706584	-0.317074	-0.597379
62426		9.563370	0.910165	-1.957135	0.002772	-0.004955	-0.015411	-0.617188	0.312500	0.400879	0.208232	-0.706581	-0.317151	-0.597326
62427		9.599306	0.898301	-1.952188	-0.007494	-0.010029	-0.012702	-0.613281	0.312988	0.402588	0.208148	-0.706677	-0.317081	-0.597278
62428		9.595808	0.888134	-1.955717	-0.005470	-0.008614	-0.012059	-0.620850	0.312500	0.401123	0.208136	-0.706751	-0.317052	-0.597210
62429		9.571405	0.871167	-1.988253	0.001940	-0.007805	-0.014290	-0.619873	0.303711	0.403320	0.208082	-0.706815	-0.317014	-0.597173
62430		9.576510	0.904525	-1.951922	0.002608	-0.005145	-0.012951	-0.620850	0.307373	0.404297	0.208041	-0.706855	-0.316973	-0.597163
62431		9.587322	0.864453	-1.970947	0.003584	-0.004603	-0.012274	-0.616211	0.309326	0.406250	0.208002	-0.706904	-0.316905	-0.597154
62432		9.568835	0.877358	-1.964763	0.007610	-0.003961	-0.014458	-0.621826	0.302734	0.402588	0.208038	-0.706921	-0.316926	-0.597110
62433		9.595840	0.868725	-1.973169	0.009109	-0.004539	-0.016583	-0.616699	0.307129	0.408936	0.208004	-0.706928	-0.316944	-0.597104
62434		9.579575	0.894224	-1.951840	0.009655	-0.003470	-0.015913	-0.620850	0.305420	0.399658	0.208024	-0.706941	-0.316968	-0.597069
62435		9.572338	0.864987	-1.963667	0.006603	-0.006685	-0.018622	-0.627197	0.307373	0.401367	0.207978	-0.706950	-0.317022	-0.597046
62436		9.565906	0.890573	-1.956508	0.009066	-0.006255	-0.019024	-0.615723	0.305664	0.402588	0.207862	-0.706985	-0.317000	-0.597057
62437		9.569460	0.915160	-1.963235	0.007661	-0.008787	-0.015427	-0.613770	0.306396	0.400879	0.207894	-0.707010	-0.317082	-0.596972
62438		9.572151	0.884666	-1.989516	0.006589	-0.008732	-0.013301	-0.616699	0.302979	0.397217	0.207970	-0.707032	-0.317174	-0.596871
62439		9.600866	0.886320	-1.969917	0.003254	-0.007646	-0.011868	-0.623047	0.306152	0.402588	0.208001	-0.707054	-0.317214	-0.596813
62440		9.584772	0.862990	-1.961006	0.005381	-0.007286	-0.015084	-0.622070	0.311035	0.405762	0.207921	-0.707108	-0.317175	-0.596798
62441		9.537503	0.879932	-2.004898	0.006596	-0.009189	-0.014358	-0.616211	0.305908	0.406738	0.207859	-0.707189	-0.317133	-0.596746
62442		9.572645	0.865450	-1.972725	0.005578	-0.005823	-0.016184	-0.621338	0.306885	0.396973	0.207847	-0.707214	-0.317160	-0.596705
62443		9.596490	0.892079	-1.971477	0.006305	-0.007997	-0.015798	-0.616699	0.302246	0.393311	0.207821	-0.707238	-0.317197	-0.596666
62444		9.588764	0.861537	-1.970240	0.006394	-0.008590	-0.018613	-0.623535	0.303711	0.406982	0.207839	-0.707217	-0.317344	-0.596606
62445		9.570123	0.873822	-2.013460	0.007347	-0.005063	-0.021182	-0.619629	0.310547	0.404785	0.207702	-0.707243	-0.317331	-0.596631
62446		9.557445	0.870378	-1.981224	0.007902	-0.004455	-0.021563	-0.622559	0.304443	0.403076	0.207655	-0.707240	-0.317390	-0.596619
62447		9.572769	0.906432	-1.972017	0.006005	-0.004745	-0.022591	-0.612305	0.316406	0.396973	0.207533	-0.707242	-0.317418	-0.596644
62448		9.578662	0.892446	-2.009729	0.002835	-0.005983	-0.019339	-0.622314	0.305176	0.400879	0.207610	-0.707215	-0.317574	-0.596567
62449		9.569080	0.903118	-1.990103	0.005996	-0.006329	-0.016207	-0.622070	0.304443	0.410400	0.207546	-0.707244	-0.317567	-0.596558
62450		9.566994	0.899049	-1.985077	0.007762	-0.001995	-0.014569	-0.618164	0.302979	0.397949	0.207483	-0.707279	-0.317489	-0.596580
62451		9.577611	0.907815	-1.992043	0.004694	-0.004294	-0.015177	-0.619141	0.303955	0.414551	0.207486	-0.707270	-0.317529	-0.596568
62452		9.577193	0.861718	-1.990923	0.004898	-0.003295	-0.017326	-0.612061	0.305908	0.399658	0.207390	-0.707313	-0.317470	-0.596582
62453		9.581913	0.892798	-1.989006	0.003558	-0.002983	-0.018729	-0.618652	0.308838	0.404541	0.207444	-0.707267	-0.317598	-0.596550
62454		9.558404	0.881257	-1.999145	0.004847	-0.004549	-0.018719	-0.622559	0.313232	0.402588	0.207404	-0.707276	-0.317628	-0.596537
62455		9.561131	0.903611	-1.977515	0.006865	-0.003122	-0.018081	-0.622070	0.312256	0.400146	0.207367	-0.707283	-0.317631	-0.596540
62456		9.570556	0.906775	-1.992172	0.005674	-0.004201	-0.015565	-0.626709	0.309326	0.418457	0.207348	-0.707299	-0.317625	-0.596531
62457		9.595756	0.889783	-1.980565	0.003270	-0.003844	-0.014827	-0.614990	0.314941	0.409424	0.207163	-0.707406	-0.317425	-0.596575
62458		9.560836	0.870529	-1.970979	0.001737	-0.004995	-0.015132	-0.618896	0.307617	0.402832	0.207171	-0.707445	-0.317427	-0.596525
62459		9.565202	0.897831	-2.004165	0.001134	-0.002156	-0.016958	-0.620117	0.309570	0.406738	0.207121	-0.707446	-0.317414	-0.596547
62460		9.579803	0.877145	-1.999707	0.004511	-0.001961	-0.017023	-0.613281	0.309570	0.401367	0.207077	-0.707457	-0.317392	-0.596562
62461		9.578926	0.879732	-1.986560	0.004022	-0.002232	-0.017366	-0.613525	0.309814	0.404785	0.207138	-0.707421	-0.317487	-0.596532
62462		9.553674	0.910202	-1.992554	0.004337	-0.004343	-0.018035	-0.614746	0.305664	0.407227	0.207172	-0.707411	-0.317575	-0.596486
62463		9.581817	0.908689	-1.993440	0.004268	-0.004674	-0.017322	-0.615967	0.308594	0.406982	0.207166	-0.707419	-0.317622	-0.596454
62464		9.542363	0.918774	-1.981602	0.000651	-0.007587	-0.017550	-0.622070	0.305420	0.413330	0.207113	-0.707461	-0.317643	-0.596412
62465		9.593321	0.879875	-2.006894	-0.005828	-0.008243	-0.013883	-0.621582	0.305420	0.408936	0.206912	-0.707584	-0.317471	-0.596427
62466		9.590392	0.924456	-1.990643	0.006645	-0.004091	-0.015970	-0.614990	0.311279	0.407715	0.206845	-0.707619	-0.317427	-0.596431
62467		9.592825	0.891846	-1.988187	-0.001097	-0.004572	-0.015471	-0.618652	0.301758	0.406982	0.206826	-0.707649	-0.317424	-0.596404
62468		9.571892	0.893123	-1.997420	0.000016	-0.008058	-0.015415	-0.620117	0.307617	0.406250	0.206717	-0.707715	-0.317376	-0.596390
62469		9.567945	0.878707	-2.021645	0.007212	-0.004399	-0.018465	-0.617432	0.300293	0.405518	0.206673	-0.707726	-0.317396	-0.596381
62470		9.562903	0.911304	-2.019864	0.008844	-0.001189	-0.016443	-0.625000	0.296143	0.406982	0.206676	-0.707704	-0.317424	-0.596391
62471		9.573145	0.918743	-2.012870	0.008581	-0.002520	-0.013575	-0.621094	0.303955	0.403320	0.206571	-0.707740	-0.317317	-0.596442
62472		9.599296	0.905988	-1.979830	0.006976	-0.003547	-0.012106	-0.616455	0.311035	0.401123	0.206559	-0.707765	-0.317272	-0.596440
62473		9.564986	0.887592	-1.983575	0.004485	-0.001936	-0.017065	-0.623291	0.314697	0.397461	0.206592	-0.707739	-0.317331	-0.596428
62474		9.565646	0.894924	-2.025405	0.004768	-0.002198	-0.013520	-0.627686	0.308350	0.398926	0.206596	-0.707744	-0.317303	-0.596435
62475		9.572018	0.881644	-2.013074	0.007228	0.002031	-0.016858	-0.617188	0.302246	0.407715	0.206522	-0.707722	-0.317235	-0.596523
62476		9.572454	0.889663	-1.991654	0.004934	0.000190	-0.012517	-0.617920	0.309326	0.402588	0.206531	-0.707721	-0.317193	-0.596544
62477		9.590224	0.883126	-1.999347	0.003920	-0.002077	-0.015643	-0.624268	0.304199	0.405029	0.206538	-0.707714	-0.317208	-0.596542
62478		9.564931	0.913148	-2.004842	0.003183	-0.000369	-0.017091	-0.614258	0.304688	0.410156	0.206423	-0.707724	-0.317124	-0.596615
62479		9.576881	0.878041	-1.987737	0.004616	-0.001721	-0.019576	-0.614258	0.305176	0.401855	0.206409	-0.707705	-0.317178	-0.596613
62480		9.560800	0.903609	-2.027949	0.003501	0.001303	-0.020695	-0.620361	0.306152	0.409180	0.206418	-0.707637	-0.317264	-0.596644
62481		9.572220	0.918489	-2.012221	0.006047	0.004272	-0.018329	-0.624023	0.305176	0.398926	0.206387	-0.707596	-0.317239	-0.596718
62482		9.579410	0.910533	-1.977964	0.005128	0.000740	-0.015746	-0.617432	0.304443	0.400879	0.206333	-0.707578	-0.317188	-0.596784
62483		9.567034	0.902354	-1.979192	0.006229	0.001961	-0.016509	-0.618408	0.302246	0.408936	0.206362	-0.707526	-0.317221	-0.596819
62484		9.550431	0.924123	-1.991284	0.007745	0.003585	-0.015158	-0.619873	0.310059	0.406006	0.206374	-0.707490	-0.317197	-0.596870
62485		9.566574	0.908761	-1.978485	0.008245	-0.000378	-0.012944	-0.623047	0.309082	0.391602	0.206422	-0.707485	-0.317186	-0.596865
62486		9.601563	0.886018	-2.000976	0.008732	-0.000100	-0.012606	-0.623291	0.306885	0.405029	0.206475	-0.707452	-0.317190	-0.596884
62487		9.572743	0.897699	-1.966458	0.011754	0.000046	-0.015515	-0.620361	0.305664	0.401367	0.206480	-0.707438	-0.317179	-0.596905
62488		9.568887	0.881253	-1.975644	0.006356	-0.001144	-0.015031	-0.618652	0.302490	0.398193	0.206476	-0.707427	-0.317172	-0.596922
62489		9.549223	0.887972	-1.976549	0.011959	-0.003188	-0.015804	-0.618896	0.308105	0.400879	0.206521	-0.707401	-0.317242	-0.596901
62490		9.571051	0.903689	-2.003777	0.012273	-0.004833	-0.015419	-0.616699	0.312744	0.400146	0.206585	-0.707393	-0.317320	-0.596847
62491		9.571515	0.912644	-1.997707	0.014103	-0.004853	-0.013680	-0.620361	0.305420	0.402344	0.206730	-0.707374	-0.317440	-0.596755
62492		9.599931	0.910166	-1.998181	0.010317	0.000945	-0.014106	-0.620361	0.309082	0.408691	0.206769	-0.707345	-0.317441	-0.596775
62493		9.589274	0.912422	-1.970987	0.004381	-0.001324	-0.014291	-0.619385	0.306641	0.398926	0.206750	-0.707362	-0.317396	-0.596785
62494		9.559287	0.860166	-1.998171	0.004823	-0.002303	-0.015346	-0.616943	0.300537	0.403320	0.206745	-0.707354	-0.317404	-0.596793
62495		9.543756	0.889110	-2.017765	0.007646	-0.002691	-0.015040	-0.617676	0.308350	0.401855	0.206750	-0.707348	-0.317422	-0.596788
62496		9.566983	0.914887	-2.001916	0.007335	-0.001504	-0.016490	-0.612549	0.298828	0.409180	0.206786	-0.707323	-0.317473	-0.596779
62497		9.579934	0.881370	-2.012560	0.006040	-0.003263	-0.012506	-0.622559	0.304932	0.407471	0.206821	-0.707335	-0.317482	-0.596747
62498		9.572561	0.903442	-1.977222	0.007713	-0.002814	-0.016828	-0.620850	0.297363	0.406006	0.206759	-0.707353	-0.317450	-0.596764
62499		9.568685	0.887591	-1.986527	0.005116	-0.000166	-0.017913	-0.620361	0.300293	0.401855	0.206656	-0.707349	-0.317397	-0.596832
62500		9.561390	0.908065	-1.999276	0.007018	-0.000311	-0.017952	-0.616455	0.305664	0.403076	0.206604	-0.707327	-0.317392	-0.596880
62501		9.563369	0.925148	-1.998291	0.005840	-0.000942	-0.014352	-0.622559	0.309082	0.406250	0.206642	-0.707309	-0.317412	-0.596877
62502		9.582292	0.924661	-1.998254	0.001519	0.000457	-0.011449	-0.616455	0.302490	0.401123	0.206609	-0.707333	-0.317303	-0.596919
62503		9.576017	0.892613	-1.994297	0.004500	0.002459	-0.010136	-0.622559	0.307373	0.400391	0.206664	-0.707308	-0.317260	-0.596951
62504		9.571178	0.867744	-1.996363	0.005481	0.002554	-0.010517	-0.615723	0.307617	0.404297	0.206684	-0.707297	-0.317177	-0.597002
62505		9.583904	0.888359	-1.987614	0.004194	-0.002773	-0.013209	-0.618652	0.307129	0.412354	0.206725	-0.707301	-0.317192	-0.596975
62506		9.562302	0.882379	-2.003188	0.005941	0.000655	-0.013691	-0.625488	0.302979	0.405273	0.206737	-0.707304	-0.317153	-0.596989
62507		9.562001	0.885395	-2.003295	0.009755	-0.000093	-0.014824	-0.620117	0.303223	0.405029	0.206678	-0.707311	-0.317078	-0.597040
62508		9.563635	0.900698	-1.988714	0.009093	-0.001833	-0.014056	-0.619873	0.302734	0.402588	0.206679	-0.707315	-0.317061	-0.597044
62509		9.584115	0.911141	-1.960550	0.007441	-0.003207	-0.011848	-0.623047	0.305176	0.401855	0.206681	-0.707336	-0.317024	-0.597038
62510		9.585575	0.866875	-1.986496	0.002740	-0.004067	-0.015296	-0.613770	0.310791	0.401123	0.206592	-0.707370	-0.316960	-0.597063
62511		9.569115	0.893614	-1.978929	0.003294	-0.003914	-0.016742	-0.622070	0.303711	0.399170	0.206642	-0.707353	-0.317047	-0.597019
62512		9.560640	0.907600	-1.999877	0.005299	-0.002463	-0.016112	-0.616455	0.309326	0.400879	0.206582	-0.707357	-0.317017	-0.597051
62513		9.563147	0.928948	-1.978327	0.007752	-0.004383	-0.010406	-0.625244	0.301270	0.403809	0.206678	-0.707368	-0.317047	-0.596989
62514		9.598858	0.910777	-1.980525	0.004260	-0.005285	-0.008881	-0.623047	0.308838	0.396484	0.206588	-0.707450	-0.316889	-0.597007
62515		9.566592	0.842582	-1.995469	0.003749	-0.002247	-0.013235	-0.621582	0.310303	0.401611	0.206562	-0.707460	-0.316841	-0.597030
62516		9.555145	0.896906	-1.999083	0.007887	-0.004634	-0.013979	-0.614746	0.311279	0.398926	0.206574	-0.707478	-0.316846	-0.597001
62517		9.573545	0.895114	-1.986426	0.006836	-0.004602	-0.011817	-0.624268	0.301758	0.401611	0.206683	-0.707475	-0.316913	-0.596931
62518		9.575326	0.911129	-1.986596	0.004275	-0.006203	-0.011006	-0.619385	0.304688	0.396973	0.206590	-0.707547	-0.316794	-0.596941
62519		9.590121	0.885490	-2.017789	0.007806	-0.004041	-0.011143	-0.626709	0.312256	0.402344	0.206620	-0.707561	-0.316781	-0.596921
62520		9.579728	0.888170	-2.005231	0.009273	-0.003662	-0.011188	-0.618164	0.298096	0.404297	0.206618	-0.707599	-0.316715	-0.596912
62521		9.546825	0.874169	-2.001556	0.007737	-0.003911	-0.009362	-0.619385	0.310059	0.405029	0.206617	-0.707639	-0.316645	-0.596902
62522		9.567957	0.886492	-2.001246	0.009270	-0.003660	-0.011192	-0.624268	0.309082	0.404785	0.206678	-0.707659	-0.316643	-0.596859
62523		9.572861	0.864226	-1.969795	0.006470	-0.004669	-0.014679	-0.621826	0.306396	0.403809	0.206621	-0.707698	-0.316592	-0.596858
62524		9.584929	0.881622	-1.996968	0.006620	-0.002282	-0.013675	-0.622314	0.304932	0.405029	0.206595	-0.707715	-0.316546	-0.596872
62525		9.582559	0.872375	-2.012534	0.010164	-0.001037	-0.015938	-0.614502	0.317139	0.399170	0.206571	-0.707711	-0.316526	-0.596895
62526		9.572146	0.876281	-1.999576	0.008109	-0.003284	-0.016907	-0.620605	0.308838	0.395752	0.206693	-0.707670	-0.316670	-0.596827
62527		9.563919	0.893825	-1.985749	0.008485	-0.004131	-0.016182	-0.619141	0.307861	0.397705	0.206701	-0.707661	-0.316712	-0.596812
62528		9.584539	0.903695	-2.020523	0.007008	-0.004047	-0.015080	-0.625000	0.303955	0.406738	0.206712	-0.707660	-0.316739	-0.596795
62529		9.560365	0.882909	-2.023596	0.005464	0.001195	-0.013756	-0.622803	0.304688	0.404541	0.206629	-0.707675	-0.316618	-0.596869
62530		9.576495	0.866835	-1.997034	0.008839	0.000980	-0.014906	-0.616455	0.299805	0.405273	0.206603	-0.707665	-0.316569	-0.596917
62531		9.581588	0.903280	-1.987544	0.007542	-0.002967	-0.014414	-0.613281	0.312744	0.400635	0.206592	-0.707674	-0.316562	-0.596914
62532		9.567299	0.881991	-2.004709	0.005095	-0.003446	-0.013987	-0.622559	0.301758	0.400635	0.206691	-0.707656	-0.316647	-0.596855
62533		9.579361	0.902081	-1.983055	0.003678	-0.003030	-0.013609	-0.618408	0.305420	0.407471	0.206601	-0.707690	-0.316555	-0.596896
62534		9.565118	0.880738	-2.000080	0.005143	-0.002648	-0.013657	-0.620850	0.310547	0.398193	0.206586	-0.707710	-0.316521	-0.596894
62535		9.561861	0.867928	-1.974409	0.004762	-0.001798	-0.014390	-0.622070	0.306885	0.412842	0.206589	-0.707705	-0.316513	-0.596904
62536		9.573891	0.885556	-2.001301	0.004226	-0.002873	-0.015066	-0.614990	0.302734	0.412109	0.206513	-0.707747	-0.316438	-0.596920
62537		9.573111	0.887699	-1.988364	0.004168	-0.003206	-0.014342	-0.611084	0.307129	0.402344	0.206494	-0.707773	-0.316417	-0.596907
62538		9.598092	0.865551	-1.983690	0.001999	-0.001556	-0.016487	-0.611328	0.302979	0.404053	0.206537	-0.707743	-0.316486	-0.596891
62539		9.579978	0.880881	-2.004185	0.003941	-0.000430	-0.015134	-0.617188	0.310059	0.400146	0.206577	-0.707715	-0.316525	-0.596889
62540		9.550995	0.890233	-2.018392	0.003454	-0.000710	-0.015476	-0.618164	0.302979	0.404785	0.206599	-0.707693	-0.316546	-0.596898
62541		9.589519	0.891421	-1.983335	0.005411	-0.000504	-0.016249	-0.617432	0.303223	0.399414	0.206564	-0.707684	-0.316527	-0.596930
62542		9.585948	0.875228	-1.992475	0.004277	-0.002529	-0.015810	-0.616943	0.308838	0.413086	0.206533	-0.707681	-0.316522	-0.596946
62543		9.557783	0.891010	-1.999675	0.004825	-0.002373	-0.017265	-0.624512	0.311279	0.405029	0.206524	-0.707686	-0.316543	-0.596933
62544		9.566670	0.891951	-1.986403	0.005787	-0.001346	-0.015527	-0.619141	0.306885	0.407471	0.206485	-0.707695	-0.316500	-0.596958
62545		9.557247	0.901999	-1.965762	0.007202	-0.001755	-0.015912	-0.618164	0.306152	0.403564	0.206479	-0.707694	-0.316502	-0.596960
62546		9.592496	0.880487	-1.988794	0.006450	-0.004629	-0.014741	-0.617432	0.311035	0.405518	0.206475	-0.707712	-0.316510	-0.596937
62547		9.592551	0.885983	-2.017435	0.003617	-0.003808	-0.013979	-0.611084	0.306641	0.404541	0.206495	-0.707727	-0.316520	-0.596906
62548		9.580894	0.882237	-1.998416	0.002693	-0.003576	-0.014323	-0.619629	0.310303	0.402832	0.206544	-0.707725	-0.316572	-0.596865
62549		9.548384	0.870428	-2.008128	0.006168	-0.002646	-0.015874	-0.618896	0.303711	0.399170	0.206550	-0.707721	-0.316591	-0.596857
62550		9.578997	0.882701	-2.007546	0.007520	-0.002927	-0.014467	-0.619873	0.299805	0.400635	0.206539	-0.707724	-0.316582	-0.596862
62551		9.587635	0.882207	-1.980573	0.004852	-0.001105	-0.015890	-0.619141	0.307617	0.402832	0.206460	-0.707727	-0.316524	-0.596916
62552		9.573542	0.861705	-1.997154	0.005954	-0.001251	-0.019868	-0.624512	0.317139	0.407959	0.206426	-0.707701	-0.316563	-0.596939
62553		9.563956	0.869867	-2.025281	0.006335	-0.002096	-0.019140	-0.620117	0.306396	0.403809	0.206406	-0.707693	-0.316593	-0.596939
62554		9.567125	0.898815	-1.996144	0.010566	-0.002394	-0.018166	-0.616943	0.305420	0.400879	0.206401	-0.707677	-0.316636	-0.596937
62555		9.575993	0.900138	-1.982913	0.007841	-0.000908	-0.018861	-0.611328	0.308838	0.401855	0.206404	-0.707639	-0.316695	-0.596950
62556		9.575775	0.905060	-1.997355	0.003178	-0.003745	-0.015071	-0.622070	0.297363	0.408936	0.206470	-0.707625	-0.316774	-0.596901
62557		9.571076	0.881572	-2.000300	0.003487	-0.000815	-0.017322	-0.625244	0.304688	0.400635	0.206320	-0.707651	-0.316665	-0.596980
62558		9.569756	0.879182	-2.008009	0.007335	-0.000263	-0.017081	-0.619141	0.304199	0.401123	0.206239	-0.707646	-0.316609	-0.597044
62559		9.570008	0.888173	-1.986901	0.009882	0.000905	-0.018982	-0.612305	0.307129	0.402100	0.206235	-0.707599	-0.316650	-0.597080
62560		9.572583	0.912041	-1.978523	0.008755	-0.001124	-0.018540	-0.621826	0.311523	0.407715	0.206313	-0.707544	-0.316775	-0.597051
