// Start Time: Unknown
// Update Rate: 40.0Hz
// Filter Profile: human (46.1)
// Firmware Version: 4.6.0
PacketCounter	SampleTimeFine	Acc_X	Acc_Y	Acc_Z	Gyr_X	Gyr_Y	Gyr_Z	Mag_X	Mag_Y	Mag_Z	Quat_q0	Quat_q1	Quat_q2	Quat_q3
61647		9.453153	-2.361496	0.968517	0.007157	0.006611	0.009682	-0.551025	0.462646	0.225586	0.373130	-0.644591	-0.187341	-0.640453
61648		9.469018	-2.359148	0.956896	0.002204	0.007601	0.007795	-0.549316	0.462646	0.223877	0.373228	-0.644538	-0.187261	-0.640472
61649		9.451094	-2.355386	0.974081	0.004573	0.004388	0.005275	-0.551025	0.467285	0.213867	0.373319	-0.644493	-0.187234	-0.640472
61650		9.462079	-2.349993	0.949314	0.003328	0.005754	0.004719	-0.558105	0.460205	0.221436	0.373397	-0.644443	-0.187196	-0.640489
61651		9.462777	-2.340574	0.996980	0.004467	0.000530	0.004058	-0.556641	0.461426	0.212158	0.373465	-0.644428	-0.187198	-0.640463
61652		9.465054	-2.315547	1.015886	0.002281	0.000464	0.008173	-0.547852	0.462646	0.214844	0.373548	-0.644431	-0.187151	-0.640426
61653		9.472172	-2.313168	0.998563	-0.006087	0.001659	0.007762	-0.559082	0.464844	0.211426	0.373560	-0.644457	-0.187039	-0.640425
61654		9.477088	-2.332333	0.985805	-0.006124	0.000948	0.010142	-0.547119	0.460938	0.216309	0.373586	-0.644490	-0.186917	-0.640413
61655		9.451260	-2.353950	0.969768	-0.004977	-0.001370	0.011262	-0.549561	0.461914	0.219238	0.373621	-0.644535	-0.186810	-0.640378
61656		9.450637	-2.356683	0.969196	-0.008829	-0.000031	0.010453	-0.543457	0.471436	0.214844	0.373619	-0.644587	-0.186675	-0.640366
61657		9.454950	-2.381592	0.932204	-0.007308	-0.003726	0.012045	-0.550537	0.470459	0.205566	0.373634	-0.644665	-0.186558	-0.640313
61658		9.439162	-2.392895	0.966067	-0.005437	-0.002044	0.009275	-0.547363	0.464600	0.210693	0.373644	-0.644719	-0.186473	-0.640278
61659		9.449525	-2.429025	0.939876	-0.006379	-0.001196	0.009455	-0.541504	0.458984	0.201416	0.373651	-0.644776	-0.186369	-0.640246
61660		9.458066	-2.430792	0.943504	0.000820	0.000393	0.004546	-0.543701	0.468750	0.210693	0.373691	-0.644782	-0.186347	-0.640224
61661		9.465147	-2.377586	0.927581	0.001086	0.001441	0.003162	-0.549316	0.465576	0.210205	0.373726	-0.644786	-0.186323	-0.640206
61662		9.462419	-2.385014	0.958055	0.002957	0.000843	0.004888	-0.543701	0.469727	0.213867	0.373779	-0.644794	-0.186311	-0.640170
61663		9.463479	-2.355422	0.955488	0.001592	-0.000550	0.005192	-0.545410	0.473877	0.203369	0.373823	-0.644828	-0.186286	-0.640118
61664		9.455830	-2.375777	0.947406	0.000456	-0.001607	0.006492	-0.545898	0.467285	0.216553	0.373875	-0.644863	-0.186255	-0.640061
61665		9.460922	-2.394077	0.934513	-0.002429	0.000696	0.005207	-0.541748	0.465088	0.219482	0.373873	-0.644913	-0.186202	-0.640028
61666		9.471151	-2.414450	0.934679	-0.002875	0.002929	0.004997	-0.549316	0.464111	0.210449	0.373866	-0.644958	-0.186133	-0.640007
61667		9.449595	-2.412552	0.959532	0.001544	0.002114	0.005157	-0.546387	0.459961	0.217773	0.373897	-0.644971	-0.186113	-0.639981
61668		9.444416	-2.426040	0.922065	-0.005144	0.003096	0.003098	-0.552490	0.477295	0.209473	0.373847	-0.645021	-0.186044	-0.639980
61669		9.441786	-2.433156	0.952198	-0.001137	-0.001056	0.001300	-0.544922	0.462646	0.212646	0.373843	-0.645069	-0.186025	-0.639939
61670		9.435548	-2.406874	0.966641	-0.000797	-0.000864	-0.000347	-0.549072	0.466797	0.218506	0.373817	-0.645114	-0.186027	-0.639908
61671		9.467381	-2.428645	0.942689	-0.001552	0.005265	-0.003708	-0.539062	0.465576	0.218262	0.373757	-0.645125	-0.186011	-0.639937
61672		9.436810	-2.429704	0.941074	0.002494	0.005826	-0.004020	-0.550293	0.469238	0.219482	0.373751	-0.645117	-0.186011	-0.639949
61673		9.457334	-2.457238	0.943992	0.004122	0.001985	-0.005074	-0.545654	0.462646	0.217773	0.373720	-0.645135	-0.186055	-0.639936
61674		9.446849	-2.421981	0.969429	0.008479	-0.005352	-0.006100	-0.551758	0.464600	0.208740	0.373703	-0.645180	-0.186183	-0.639863
61675		9.452528	-2.387145	0.957961	0.011501	0.000291	-0.008387	-0.548340	0.470459	0.215576	0.373730	-0.645111	-0.186343	-0.639870
61676		9.472443	-2.369396	0.938769	0.009362	0.003844	-0.004863	-0.540527	0.469971	0.224854	0.373777	-0.645073	-0.186407	-0.639863
61677		9.459947	-2.370086	0.944458	0.004736	-0.000152	-0.005684	-0.541016	0.457520	0.214355	0.373745	-0.645147	-0.186435	-0.639799
61678		9.455131	-2.401630	0.955793	0.000666	-0.002523	-0.005074	-0.554688	0.468994	0.206055	0.373672	-0.645184	-0.186505	-0.639783
61679		9.455001	-2.405510	0.931860	-0.002243	-0.002029	-0.006062	-0.550049	0.470703	0.209229	0.373619	-0.645171	-0.186559	-0.639812
61680		9.463536	-2.394560	0.937470	-0.003462	0.001146	-0.006918	-0.551514	0.474121	0.212402	0.373565	-0.645164	-0.186570	-0.639847
61681		9.436269	-2.418167	0.952275	-0.007422	0.004911	-0.009584	-0.550049	0.471680	0.214111	0.373464	-0.645161	-0.186539	-0.639918
61682		9.440919	-2.463525	0.942854	-0.004898	0.002888	-0.010848	-0.547119	0.467285	0.215820	0.373356	-0.645169	-0.186548	-0.639970
61683		9.446829	-2.462685	0.955759	-0.000356	0.000836	-0.015406	-0.540039	0.466797	0.210938	0.373225	-0.645179	-0.186640	-0.640010
61684		9.456492	-2.408782	0.961085	0.001432	0.000470	-0.019692	-0.549072	0.465088	0.213135	0.373133	-0.645151	-0.186765	-0.640055
61685		9.459642	-2.348159	0.932639	0.002515	0.001913	-0.016528	-0.549316	0.460205	0.219482	0.373022	-0.645108	-0.186897	-0.640125
61686		9.500825	-2.371841	0.987284	0.013387	-0.003109	-0.017079	-0.553467	0.474609	0.210449	0.372900	-0.645103	-0.187156	-0.640125
61687		9.449227	-2.356830	0.912392	-0.014720	0.002909	-0.016958	-0.547607	0.463135	0.208252	0.372719	-0.645101	-0.187126	-0.640241
61688		9.474040	-2.364824	0.931105	0.008501	0.001032	-0.015366	-0.545166	0.467773	0.211426	0.372691	-0.644995	-0.187319	-0.640309
61689		9.450998	-2.384846	0.937394	-0.005909	0.003487	-0.012473	-0.548340	0.466064	0.213623	0.372601	-0.644987	-0.187324	-0.640367
61690		9.471644	-2.360865	0.941040	-0.003773	0.003941	-0.012129	-0.549561	0.468262	0.212402	0.372488	-0.644977	-0.187355	-0.640434
61691		9.474319	-2.337102	0.936790	-0.003263	0.001951	-0.010102	-0.543945	0.462158	0.214844	0.372417	-0.644970	-0.187380	-0.640475
61692		9.451518	-2.353172	0.965982	-0.003999	0.001324	-0.008631	-0.543701	0.458740	0.213379	0.372299	-0.645017	-0.187392	-0.640493
61693		9.458401	-2.377516	0.951442	-0.001222	0.001453	-0.009197	-0.550781	0.465576	0.219482	0.372181	-0.645029	-0.187447	-0.640533
61694		9.465275	-2.401871	0.937073	-0.000125	0.001800	-0.008118	-0.549561	0.466797	0.210938	0.372058	-0.645084	-0.187478	-0.640540
61695		9.455922	-2.390263	0.935799	0.002747	0.002882	-0.009243	-0.551025	0.468506	0.216797	0.372059	-0.645020	-0.187547	-0.640583
61696		9.470512	-2.390140	0.953245	-0.000240	0.004225	-0.009966	-0.547607	0.463135	0.214600	0.371987	-0.645026	-0.187569	-0.640613
61697		9.469754	-2.363580	0.981367	0.003293	0.001604	-0.009591	-0.549072	0.466309	0.220215	0.371925	-0.645021	-0.187646	-0.640631
61698		9.453934	-2.345374	0.945895	0.000819	0.000955	-0.008291	-0.555176	0.471191	0.213379	0.371823	-0.645103	-0.187665	-0.640603
61699		9.448078	-2.371996	0.936151	0.003408	-0.000820	-0.007739	-0.545898	0.462646	0.214111	0.371832	-0.645075	-0.187731	-0.640606
61700		9.484413	-2.369873	0.951732	-0.000205	-0.000249	-0.009629	-0.544434	0.462402	0.218994	0.371753	-0.645102	-0.187782	-0.640610
61701		9.472157	-2.369911	0.956936	0.001233	0.003198	-0.008413	-0.554932	0.462402	0.213379	0.371656	-0.645170	-0.187795	-0.640593
61702		9.461784	-2.368845	0.909228	0.002331	0.003546	-0.007333	-0.549805	0.461426	0.209473	0.371579	-0.645101	-0.187883	-0.640682
61703		9.444971	-2.396849	0.949395	0.002235	-0.000312	-0.008552	-0.558838	0.466309	0.215576	0.371549	-0.645035	-0.187988	-0.640735
61704		9.456364	-2.413122	0.949611	0.005550	0.000822	-0.013948	-0.543701	0.466797	0.216309	0.371438	-0.644976	-0.188152	-0.640811
61705		9.467910	-2.353492	0.925200	0.004908	0.001148	-0.013038	-0.541504	0.458008	0.212646	0.371431	-0.645016	-0.188202	-0.640759
61706		9.477570	-2.350451	0.929515	0.002435	0.000497	-0.011739	-0.548584	0.473877	0.210449	0.371360	-0.645028	-0.188282	-0.640766
61707		9.459862	-2.333061	0.947473	0.008351	0.000485	-0.010322	-0.548828	0.468018	0.204346	0.371540	-0.644958	-0.188345	-0.640713
61708		9.460417	-2.330468	0.948309	0.000789	0.004330	-0.010688	-0.549805	0.458008	0.218262	0.371658	-0.644795	-0.188395	-0.640795
61709		9.476188	-2.394572	0.939341	0.004646	0.003005	-0.009876	-0.549805	0.468750	0.213135	0.371489	-0.644826	-0.188494	-0.640832
61710		9.467536	-2.356966	0.912261	0.006628	0.002271	-0.010784	-0.550537	0.462646	0.213379	0.371551	-0.644783	-0.188570	-0.640817
61711		9.479461	-2.327939	0.935735	0.005514	0.003018	-0.009787	-0.543213	0.458984	0.218018	0.371516	-0.644738	-0.188666	-0.640854
61712		9.481863	-2.304534	0.932172	0.005024	0.004537	-0.007626	-0.546875	0.456299	0.214600	0.371439	-0.644806	-0.188693	-0.640823
61713		9.473063	-2.342956	0.930569	0.004474	0.005815	-0.007276	-0.546875	0.459229	0.220947	0.371338	-0.644788	-0.188758	-0.640880
61714		9.463758	-2.366822	0.954246	0.007370	0.003527	-0.005989	-0.552002	0.461670	0.209229	0.371224	-0.644886	-0.188797	-0.640836
61715		9.461810	-2.351303	0.936008	0.003192	0.003559	-0.007235	-0.547852	0.460449	0.216797	0.371233	-0.644775	-0.188884	-0.640916
61716		9.461515	-2.395215	0.914665	0.005386	0.004261	-0.005079	-0.542725	0.463623	0.213623	0.371183	-0.644809	-0.188908	-0.640905
61717		9.479306	-2.338532	0.948459	0.005814	0.005406	-0.007273	-0.551758	0.463135	0.212402	0.371258	-0.644810	-0.188908	-0.640860
61718		9.479656	-2.336541	0.949862	0.001714	0.004581	-0.008781	-0.544678	0.465576	0.223389	0.371224	-0.644754	-0.188960	-0.640920
61719		9.452169	-2.365454	0.941905	0.002400	0.002689	-0.007578	-0.555176	0.473145	0.219238	0.371136	-0.644949	-0.188898	-0.640794
61720		9.459650	-2.344358	0.950943	-0.000484	0.006784	-0.009161	-0.552734	0.461426	0.214844	0.371115	-0.644985	-0.188843	-0.640786
61721		9.459592	-2.347522	0.929216	0.001085	0.006715	-0.008169	-0.546631	0.458496	0.212891	0.371027	-0.644945	-0.188886	-0.640865
61722		9.492399	-2.362326	0.929904	0.001389	0.006197	-0.007436	-0.544678	0.462402	0.201904	0.370976	-0.644915	-0.188912	-0.640916
61723		9.470502	-2.347961	0.957569	0.001635	0.005438	-0.008514	-0.556885	0.457275	0.214844	0.371150	-0.644721	-0.188956	-0.640998
61724		9.473827	-2.334080	0.951722	-0.000662	0.001972	-0.009815	-0.549072	0.463623	0.210938	0.370924	-0.644701	-0.189069	-0.641115
61725		9.452974	-2.329041	0.976642	0.000278	0.004037	-0.008214	-0.554932	0.463867	0.210449	0.370945	-0.644656	-0.189085	-0.641143
61726		9.463800	-2.351235	0.954241	-0.005319	0.005327	-0.009201	-0.555664	0.458008	0.211914	0.370882	-0.644579	-0.189096	-0.641255
61727		9.461941	-2.335419	0.935777	-0.000592	0.004024	-0.008298	-0.546631	0.466797	0.213135	0.370743	-0.644509	-0.189178	-0.641381
61728		9.491384	-2.347168	0.967974	-0.006910	0.006493	-0.008119	-0.554443	0.458984	0.220703	0.370760	-0.644540	-0.189072	-0.641372
61729		9.461710	-2.362387	0.940428	-0.000436	0.002313	-0.008818	-0.556885	0.464844	0.215332	0.370520	-0.644641	-0.189111	-0.641397
61730		9.466367	-2.352859	0.955600	0.005330	0.001121	-0.008647	-0.550293	0.466064	0.208252	0.370483	-0.644620	-0.189201	-0.641413
61731		9.477769	-2.329090	0.955405	0.006705	0.001426	-0.011011	-0.546387	0.452881	0.220703	0.370608	-0.644513	-0.189294	-0.641421
61732		9.462281	-2.345909	0.944531	0.004225	0.003675	-0.007948	-0.552246	0.460693	0.219727	0.370388	-0.644635	-0.189337	-0.641413
61733		9.470756	-2.374206	0.952270	-0.002528	0.004366	-0.011821	-0.552490	0.465332	0.215332	0.370183	-0.644721	-0.189345	-0.641442
61734		9.474592	-2.354457	0.969703	0.004186	0.002336	-0.011822	-0.561279	0.464111	0.213623	0.370163	-0.644719	-0.189402	-0.641438
61735		9.491376	-2.352480	0.933861	0.004729	0.003967	-0.010395	-0.548096	0.464844	0.205811	0.370110	-0.644615	-0.189525	-0.641537
61736		9.473455	-2.335076	0.952686	0.015650	0.002628	-0.011506	-0.560059	0.464111	0.212402	0.370346	-0.644434	-0.189678	-0.641538
61737		9.471150	-2.303507	0.960075	0.006328	0.004610	-0.011764	-0.551270	0.464844	0.217285	0.370317	-0.644313	-0.189813	-0.641637
61738		9.497726	-2.270757	0.925731	0.010719	0.003120	-0.009224	-0.547119	0.473145	0.212646	0.370352	-0.644332	-0.189882	-0.641576
61739		9.502338	-2.301465	0.942415	0.003183	0.003564	-0.007209	-0.550049	0.462402	0.219727	0.370548	-0.644351	-0.189796	-0.641470
61740		9.467975	-2.324789	0.998484	0.000240	0.003325	-0.005837	-0.561279	0.459473	0.211182	0.370470	-0.644468	-0.189767	-0.641406
61741		9.467595	-2.333774	0.952560	0.001356	0.002581	-0.006826	-0.556641	0.455566	0.216064	0.370375	-0.644366	-0.189880	-0.641529
61742		9.466939	-2.322742	0.955059	0.003785	0.000722	-0.005452	-0.552734	0.464355	0.214355	0.370231	-0.644378	-0.189991	-0.641568
61743		9.461121	-2.309814	0.944806	0.000625	0.001952	-0.005367	-0.553955	0.465088	0.216064	0.370234	-0.644405	-0.189975	-0.641544
61744		9.472738	-2.362307	0.969605	-0.003068	0.003358	-0.007001	-0.551025	0.464111	0.214355	0.370181	-0.644452	-0.189935	-0.641539
61745		9.476767	-2.318332	0.960598	0.001662	0.002064	-0.006094	-0.551514	0.469727	0.213379	0.370197	-0.644480	-0.189922	-0.641505
61746		9.465911	-2.343683	0.938560	0.002579	0.000514	-0.003905	-0.548828	0.460693	0.215088	0.370314	-0.644511	-0.189864	-0.641424
61747		9.459237	-2.276079	0.952692	0.007792	0.000610	-0.003380	-0.554443	0.457275	0.211670	0.370357	-0.644549	-0.189899	-0.641351
61748		9.483015	-2.291996	0.948358	0.005155	-0.000147	-0.001281	-0.544922	0.465576	0.214600	0.370350	-0.644516	-0.189972	-0.641367
61749		9.489809	-2.318115	0.934066	-0.001729	0.001777	-0.000471	-0.557617	0.457520	0.218506	0.370435	-0.644619	-0.189837	-0.641253
61750		9.481175	-2.312964	0.953694	-0.000949	0.000840	0.000173	-0.549561	0.459961	0.206055	0.370305	-0.644689	-0.189862	-0.641251
61751		9.455625	-2.317690	0.963440	-0.006322	0.002456	0.000168	-0.546631	0.459229	0.216064	0.370349	-0.644640	-0.189772	-0.641301
61752		9.449599	-2.346517	0.953625	-0.000088	-0.000953	0.000556	-0.556641	0.462646	0.204102	0.370339	-0.644759	-0.189715	-0.641204
61753		9.460033	-2.330724	0.928997	-0.000740	-0.002438	0.001754	-0.550293	0.461182	0.213623	0.370440	-0.644653	-0.189716	-0.641252
61754		9.488249	-2.274454	0.911061	0.000852	-0.003601	0.000679	-0.544678	0.458496	0.217529	0.370461	-0.644730	-0.189695	-0.641169
61755		9.455130	-2.239101	0.959741	-0.000991	-0.002854	0.009359	-0.553223	0.458984	0.217285	0.370494	-0.644919	-0.189561	-0.640999
61756		9.430655	-1.802725	1.145517	-0.023253	-0.005425	0.018520	-0.549805	0.458008	0.221924	0.370368	-0.645190	-0.189245	-0.640893
61757		9.458340	-1.704234	1.170407	-0.114226	-0.001041	0.038976	-0.546387	0.471191	0.218018	0.369639	-0.645971	-0.187995	-0.640896
61758		9.698992	-2.189301	0.791420	-0.140946	0.006922	0.072020	-0.546387	0.461914	0.223389	0.369222	-0.646835	-0.186127	-0.640809
61759		9.647692	-1.797456	0.384016	-0.098398	0.045320	0.088377	-0.551025	0.470947	0.216797	0.369198	-0.647269	-0.184366	-0.640894
61760		9.463082	-3.168619	0.608375	-0.076068	0.037726	0.086485	-0.545654	0.464355	0.212646	0.369458	-0.647527	-0.182827	-0.640925
61761		9.389800	-2.833689	1.125155	-0.021079	0.030975	0.068710	-0.550537	0.466064	0.225342	0.369990	-0.647504	-0.181930	-0.640896
61762		9.258623	-3.112101	1.004874	-0.030974	0.028158	0.033967	-0.553467	0.459473	0.219971	0.370012	-0.647616	-0.181261	-0.640959
61763		9.264507	-3.195610	0.871772	0.015861	0.020104	-0.001591	-0.546631	0.460938	0.220703	0.370065	-0.647392	-0.181363	-0.641125
61764		9.302213	-2.910744	0.988990	0.038864	0.013970	-0.031787	-0.546387	0.459717	0.220459	0.370100	-0.647106	-0.181852	-0.641256
61765		9.482793	-2.609249	1.027963	0.041748	0.006741	-0.052891	-0.539795	0.462402	0.220947	0.369965	-0.646824	-0.182564	-0.641416
61766		9.491475	-2.585991	0.949338	0.056518	0.006828	-0.061808	-0.548340	0.460938	0.213867	0.369946	-0.646513	-0.183387	-0.641506
61767		9.529067	-2.399936	0.926030	0.062987	0.009167	-0.061225	-0.540771	0.458984	0.216553	0.370002	-0.646013	-0.184323	-0.641710
61768		9.418101	-2.153423	1.017492	0.068857	0.009781	-0.053456	-0.554688	0.469971	0.212646	0.370159	-0.645596	-0.185184	-0.641790
61769		9.556511	-1.947767	1.121871	0.034112	0.012037	-0.038708	-0.549316	0.457031	0.210693	0.370248	-0.645242	-0.185660	-0.641957
61770		9.483940	-2.137655	1.031220	0.007173	0.011262	-0.026830	-0.550049	0.463135	0.218018	0.370108	-0.645048	-0.185881	-0.642169
61771		9.452178	-2.106512	0.938992	0.017403	0.010293	-0.008007	-0.546875	0.470459	0.219971	0.370196	-0.644965	-0.185981	-0.642173
61772		9.500638	-2.219197	0.979025	0.007349	0.011318	0.007764	-0.548828	0.465820	0.216797	0.370414	-0.645012	-0.185798	-0.642054
61773		9.515147	-2.343741	1.045032	-0.008887	0.009333	0.013340	-0.549805	0.462158	0.216064	0.370500	-0.645102	-0.185504	-0.641999
61774		9.477218	-2.428511	0.987342	-0.008858	0.008237	0.011270	-0.551514	0.470947	0.219482	0.370525	-0.645172	-0.185269	-0.641981
61775		9.430628	-2.427411	0.947373	0.008189	0.003615	0.013179	-0.550781	0.466064	0.207520	0.370747	-0.645247	-0.185122	-0.641819
61776		9.459808	-2.367601	1.000217	0.015958	0.003504	0.012173	-0.548340	0.458740	0.216553	0.371073	-0.645128	-0.185092	-0.641760
61777		9.498599	-2.442775	1.034891	-0.002703	0.014486	0.008673	-0.552979	0.463379	0.211670	0.371095	-0.645122	-0.184922	-0.641802
61778		9.381170	-2.471170	1.011643	0.013005	0.005549	0.009089	-0.551514	0.468018	0.213623	0.371295	-0.645032	-0.184919	-0.641778
61779		9.396262	-2.383500	0.976495	0.007393	-0.001496	0.007162	-0.548340	0.469971	0.221924	0.371453	-0.645061	-0.184877	-0.641670
61780		9.390016	-2.408312	0.990254	0.016728	-0.001680	0.007155	-0.544189	0.459473	0.205566	0.371651	-0.645171	-0.184873	-0.641446
61781		9.465932	-2.450911	1.036851	0.005772	0.005332	0.001399	-0.551270	0.469971	0.211914	0.371770	-0.645068	-0.184854	-0.641485
61782		9.442775	-2.494002	0.995273	0.010662	0.004596	-0.002676	-0.552734	0.459717	0.213623	0.371916	-0.644991	-0.184882	-0.641470
61783		9.433892	-2.417932	0.967636	0.020264	-0.001536	-0.001086	-0.555176	0.467285	0.208984	0.372005	-0.644927	-0.185079	-0.641426
61784		9.454983	-2.359789	0.992382	0.020828	-0.001003	-0.001720	-0.556641	0.460693	0.213623	0.372200	-0.644793	-0.185252	-0.641397
61785		9.452363	-2.480968	1.049072	0.005425	0.000892	-0.002637	-0.539062	0.472412	0.204102	0.372149	-0.644759	-0.185349	-0.641433
61786		9.428872	-2.468145	1.030789	0.008658	-0.000731	-0.007153	-0.543945	0.460205	0.214600	0.372379	-0.644707	-0.185345	-0.641353
61787		9.424303	-2.348700	0.991993	0.011230	-0.006116	-0.006014	-0.545654	0.460693	0.215332	0.372378	-0.644778	-0.185468	-0.641246
61788		9.457277	-2.363978	0.990386	0.010228	-0.007794	-0.003186	-0.546143	0.459473	0.208496	0.372378	-0.644873	-0.185574	-0.641120
61789		9.458019	-2.392471	1.036995	0.005382	-0.004068	-0.005940	-0.550537	0.466797	0.211914	0.372367	-0.644867	-0.185665	-0.641107
61790		9.452273	-2.424949	1.002901	0.004330	-0.005988	-0.004923	-0.541016	0.466553	0.203125	0.372382	-0.644905	-0.185731	-0.641040
61791		9.429652	-2.346933	0.955687	0.002290	-0.007776	-0.001371	-0.544678	0.460693	0.221924	0.372531	-0.644920	-0.185726	-0.640941
61792		9.458441	-2.325609	0.961505	-0.009211	-0.002243	0.001836	-0.546631	0.469482	0.214600	0.372372	-0.645152	-0.185592	-0.640838
61793		9.460604	-2.455533	1.006023	-0.007857	-0.000840	0.001551	-0.545410	0.465820	0.210938	0.372381	-0.645269	-0.185450	-0.640756
61794		9.452480	-2.470691	0.975807	-0.001678	-0.004504	0.000136	-0.549316	0.464355	0.214600	0.372416	-0.645341	-0.185403	-0.640677
61795		9.429271	-2.448401	1.002509	0.006975	-0.007510	-0.002554	-0.547363	0.463867	0.214600	0.372425	-0.645409	-0.185485	-0.640579
61796		9.401210	-2.423442	1.016238	-0.004529	-0.006228	-0.005008	-0.555176	0.467041	0.213379	0.372329	-0.645524	-0.185480	-0.640521
61797		9.434802	-2.458856	0.965287	-0.009559	-0.004410	-0.006653	-0.551270	0.465332	0.223633	0.372192	-0.645588	-0.185470	-0.640539
61798		9.463021	-2.471420	0.949882	-0.004443	-0.009524	-0.011222	-0.548828	0.466064	0.220947	0.371971	-0.645793	-0.185532	-0.640443
61799		9.444339	-2.404485	0.966255	0.003384	-0.007583	-0.010702	-0.538574	0.464600	0.211914	0.371868	-0.645924	-0.185630	-0.640341
61800		9.428377	-2.411322	0.954668	-0.004477	-0.006149	-0.013605	-0.548340	0.470215	0.201172	0.371787	-0.646023	-0.185641	-0.640286
61801		9.436330	-2.429486	0.961478	-0.004658	-0.008055	-0.012496	-0.547852	0.469238	0.222168	0.371808	-0.645971	-0.185695	-0.640311
61802		9.482779	-2.395294	0.976938	-0.003207	-0.003888	-0.013625	-0.541504	0.467285	0.213379	0.371676	-0.646111	-0.185730	-0.640236
61803		9.443913	-2.400075	0.945276	-0.005197	-0.003159	-0.012722	-0.541016	0.469727	0.210938	0.371613	-0.646189	-0.185719	-0.640197
61804		9.488188	-2.392200	0.942776	-0.003513	-0.003370	-0.014349	-0.555664	0.470215	0.215576	0.371598	-0.646232	-0.185727	-0.640160
61805		9.469414	-2.410364	0.938331	0.003894	-0.007285	-0.013140	-0.542725	0.461914	0.212646	0.371547	-0.646251	-0.185874	-0.640128
61806		9.450869	-2.423453	0.956887	0.002461	-0.007833	-0.012587	-0.543213	0.470947	0.216309	0.371481	-0.646311	-0.185975	-0.640076
61807		9.448693	-2.351653	0.960579	0.010197	-0.006835	-0.011521	-0.540527	0.466553	0.221680	0.371562	-0.646369	-0.186092	-0.639936
61808		9.413064	-2.420270	0.947399	-0.001897	-0.003197	-0.011539	-0.545410	0.455322	0.215820	0.371487	-0.646519	-0.186102	-0.639826
61809		9.475097	-2.412276	0.953167	-0.001944	-0.001629	-0.013634	-0.546387	0.464844	0.223145	0.371290	-0.646559	-0.186184	-0.639876
61810		9.457311	-2.439759	0.947880	0.009465	-0.001564	-0.015097	-0.546875	0.459473	0.214600	0.371230	-0.646616	-0.186336	-0.639808
61811		9.466269	-2.426201	0.953513	0.006315	-0.005053	-0.016497	-0.546875	0.463379	0.211914	0.371120	-0.646620	-0.186513	-0.639817
61812		9.462184	-2.379643	0.939106	0.012334	-0.006988	-0.017383	-0.546875	0.467041	0.208496	0.371109	-0.646583	-0.186739	-0.639794
61813		9.430675	-2.359078	0.939004	0.008748	-0.005100	-0.015406	-0.552246	0.472412	0.214600	0.371153	-0.646521	-0.186900	-0.639785
61814		9.439639	-2.345457	0.944279	0.002842	-0.003312	-0.017131	-0.550537	0.464600	0.210693	0.371131	-0.646508	-0.187025	-0.639774
61815		9.452975	-2.409793	0.942716	0.005392	-0.003503	-0.018664	-0.540039	0.461426	0.213623	0.371066	-0.646448	-0.187200	-0.639822
61816		9.474543	-2.353101	0.942705	0.012170	-0.003461	-0.017134	-0.550781	0.466064	0.212646	0.371071	-0.646437	-0.187381	-0.639777
61817		9.471719	-2.351244	0.951351	0.004634	-0.001226	-0.015431	-0.550049	0.452881	0.222656	0.371038	-0.646390	-0.187509	-0.639805
61818		9.479315	-2.333522	0.935786	0.006928	-0.002466	-0.015596	-0.546875	0.466309	0.211182	0.370818	-0.646441	-0.187690	-0.639828
61819		9.451055	-2.382167	0.930790	0.001708	-0.006191	-0.015542	-0.542725	0.475098	0.218262	0.370787	-0.646451	-0.187803	-0.639803
61820		9.447130	-2.371496	0.940462	-0.001649	-0.002158	-0.012876	-0.548584	0.465820	0.220703	0.370834	-0.646541	-0.187809	-0.639683
61821		9.489073	-2.349309	0.919021	0.000286	-0.001315	-0.015864	-0.548584	0.463135	0.204346	0.370734	-0.646600	-0.187899	-0.639655
61822		9.459976	-2.383306	0.939820	0.003198	-0.001775	-0.014867	-0.553955	0.464844	0.216309	0.370720	-0.646496	-0.188003	-0.639738
61823		9.471579	-2.358264	0.938696	-0.003274	-0.000533	-0.015953	-0.551758	0.460449	0.217529	0.370582	-0.646500	-0.188083	-0.639790
61824		9.473859	-2.358773	0.959237	-0.006585	-0.004129	-0.016533	-0.550781	0.458740	0.215332	0.370363	-0.646567	-0.188157	-0.639828
61825		9.487355	-2.358351	0.929730	-0.013507	-0.002937	-0.013377	-0.553467	0.453369	0.218506	0.370118	-0.646645	-0.188141	-0.639895
61826		9.497672	-2.329428	0.905985	-0.004458	-0.005460	-0.015882	-0.553955	0.462891	0.214355	0.369835	-0.646712	-0.188247	-0.639960
61827		9.474308	-2.339788	0.912466	-0.012892	0.000827	-0.019003	-0.553467	0.458008	0.211426	0.369606	-0.646719	-0.188268	-0.640079
61828		9.474075	-2.326908	0.914431	-0.007062	0.004159	-0.011389	-0.547852	0.460693	0.218506	0.369463	-0.646664	-0.188265	-0.640218
61829		9.468673	-2.307634	0.927617	-0.002327	0.002885	-0.010481	-0.552002	0.462158	0.218750	0.369381	-0.646692	-0.188269	-0.640236
61830		9.471107	-2.329827	0.900349	-0.005438	-0.001085	-0.007724	-0.547363	0.460938	0.216797	0.369282	-0.646756	-0.188257	-0.640232
61831		9.472284	-2.363026	0.923953	0.004848	-0.003854	-0.007622	-0.547119	0.459717	0.224609	0.369284	-0.646795	-0.188326	-0.640171
61832		9.471621	-2.286010	0.898316	0.001036	-0.002320	-0.006640	-0.549316	0.458496	0.212158	0.369208	-0.646914	-0.188344	-0.640090
61833		9.497515	-2.345421	0.916356	0.002351	0.005616	-0.005745	-0.549072	0.459229	0.214844	0.369220	-0.646839	-0.188348	-0.640157
61834		9.456849	-2.362622	0.938733	0.006975	0.003860	-0.008434	-0.555176	0.465088	0.216309	0.369237	-0.646778	-0.188415	-0.640189
61835		9.464893	-2.356212	0.922185	0.003249	0.000920	-0.007131	-0.551025	0.471436	0.211426	0.369253	-0.646751	-0.188466	-0.640192
61836		9.473179	-2.344644	0.928309	-0.003534	0.000858	-0.008648	-0.554443	0.457520	0.218018	0.369318	-0.646727	-0.188459	-0.640181
61837		9.465855	-2.352190	0.922583	0.002014	0.001174	-0.009741	-0.551270	0.461670	0.213379	0.369214	-0.646716	-0.188523	-0.640234
61838		9.481801	-2.335832	0.911870	-0.001885	0.005372	-0.008792	-0.563965	0.463379	0.209229	0.369185	-0.646664	-0.188518	-0.640304
61839		9.478431	-2.335814	0.921646	0.005964	0.002648	-0.009762	-0.551758	0.456787	0.216797	0.369183	-0.646509	-0.188633	-0.640428
61840		9.477846	-2.324004	0.924243	0.000977	0.001056	-0.009014	-0.544678	0.459961	0.216797	0.369091	-0.646509	-0.188673	-0.640469
61841		9.457190	-2.364895	0.926239	0.007284	-0.000269	-0.007118	-0.547119	0.460693	0.218750	0.369135	-0.646524	-0.188735	-0.640411
61842		9.457664	-2.362862	0.926590	0.004536	0.000283	-0.008919	-0.554199	0.458740	0.217773	0.369128	-0.646549	-0.188791	-0.640372
61843		9.471010	-2.357881	0.922136	0.005124	-0.000279	-0.011611	-0.552734	0.461182	0.220215	0.369052	-0.646534	-0.188895	-0.640401
61844		9.487134	-2.340846	0.911111	0.001084	0.002719	-0.011909	-0.543701	0.462891	0.219482	0.368971	-0.646539	-0.188949	-0.640427
61845		9.479368	-2.307363	0.905195	0.008677	0.002568	-0.012095	-0.548096	0.457031	0.215820	0.369017	-0.646539	-0.189042	-0.640372
61846		9.486194	-2.315973	0.916819	0.005821	0.001454	-0.010997	-0.545166	0.455322	0.216797	0.368981	-0.646516	-0.189124	-0.640393
61847		9.479130	-2.317786	0.934983	0.008258	0.001420	-0.009918	-0.549805	0.462891	0.222168	0.368964	-0.646504	-0.189207	-0.640390
61848		9.488432	-2.320358	0.916128	0.002096	0.000317	-0.009987	-0.545898	0.464844	0.219482	0.368925	-0.646557	-0.189253	-0.640344
61849		9.479558	-2.348996	0.915492	0.002315	0.002467	-0.009293	-0.551758	0.455322	0.218506	0.368954	-0.646585	-0.189278	-0.640292
61850		9.484377	-2.313394	0.905180	0.006760	0.006048	-0.012035	-0.550293	0.469238	0.218262	0.368881	-0.646526	-0.189361	-0.640369
61851		9.464602	-2.317344	0.928658	0.007723	0.001596	-0.011620	-0.551758	0.453857	0.219238	0.368966	-0.646505	-0.189463	-0.640312
61852		9.501536	-2.257795	0.916232	0.003716	0.002315	-0.007490	-0.547607	0.457275	0.214111	0.368879	-0.646508	-0.189501	-0.640348
61853		9.485585	-2.331462	0.934511	-0.004421	0.006250	-0.009600	-0.558594	0.461426	0.222168	0.368801	-0.646486	-0.189466	-0.640425
61854		9.485771	-2.334758	0.912708	-0.002634	0.008346	-0.007917	-0.549561	0.456543	0.218750	0.368711	-0.646467	-0.189443	-0.640503
61855		9.497884	-2.315513	0.934605	-0.001333	0.004090	-0.009123	-0.552002	0.456055	0.215332	0.368620	-0.646480	-0.189439	-0.640543
61856		9.495423	-2.330447	0.919412	-0.001122	0.008050	-0.008719	-0.556152	0.456543	0.213379	0.368546	-0.646424	-0.189424	-0.640647
61857		9.464006	-2.322033	0.919995	0.005186	0.006739	-0.006818	-0.550781	0.460205	0.216553	0.368535	-0.646323	-0.189463	-0.640744
61858		9.466984	-2.308392	0.915074	0.011216	0.004844	-0.007693	-0.552490	0.457520	0.206543	0.368605	-0.646256	-0.189548	-0.640746
61859		9.485699	-2.264882	0.968791	0.006022	0.007860	-0.004673	-0.556152	0.461670	0.208252	0.368685	-0.646109	-0.189571	-0.640842
61860		9.499066	-2.306984	0.943646	-0.001428	0.007386	-0.002961	-0.554932	0.454346	0.210938	0.368734	-0.646006	-0.189530	-0.640929
61861		9.488693	-2.327518	0.945931	0.000037	0.005038	-0.005268	-0.563232	0.452881	0.213623	0.368680	-0.645939	-0.189518	-0.641031
61862		9.461032	-2.317451	0.937047	-0.003747	0.005461	-0.006351	-0.549561	0.456299	0.212158	0.368519	-0.645877	-0.189492	-0.641194
61863		9.486210	-2.347232	0.908169	0.000434	0.003668	-0.004801	-0.552246	0.456299	0.219971	0.368516	-0.645850	-0.189477	-0.641227
61864		9.479641	-2.283861	0.943985	0.000266	0.003570	-0.003992	-0.549072	0.461182	0.215332	0.368453	-0.645883	-0.189439	-0.641242
61865		9.485647	-2.325160	0.958060	-0.006674	0.001578	-0.004421	-0.545654	0.458740	0.212891	0.368427	-0.645933	-0.189370	-0.641226
61866		9.463106	-2.317183	0.961187	0.002115	0.003471	-0.006413	-0.553223	0.458740	0.215088	0.368466	-0.645915	-0.189378	-0.641220
61867		9.470986	-2.311077	0.945581	0.005478	0.009846	-0.006662	-0.553711	0.459473	0.213867	0.368494	-0.645821	-0.189392	-0.641294
61868		9.482212	-2.333541	0.925082	0.004353	0.010581	-0.005682	-0.552490	0.456787	0.216553	0.368536	-0.645719	-0.189390	-0.641373
61869		9.485028	-2.320430	0.920419	0.007070	0.004367	-0.004800	-0.548828	0.459473	0.221436	0.368551	-0.645684	-0.189417	-0.641392
61870		9.486560	-2.318015	0.966304	-0.001614	0.004135	-0.005703	-0.550293	0.458496	0.215332	0.368502	-0.645742	-0.189367	-0.641377
61871		9.475097	-2.333978	0.946936	0.000983	0.006015	-0.005721	-0.558594	0.456055	0.215088	0.368501	-0.645717	-0.189348	-0.641408
61872		9.443544	-2.331332	0.923572	-0.002713	0.005580	-0.007065	-0.549316	0.458740	0.214600	0.368395	-0.645680	-0.189321	-0.641514
61873		9.498319	-2.342945	0.923588	0.007715	0.004051	-0.005689	-0.544189	0.458984	0.215332	0.368458	-0.645638	-0.189364	-0.641507
61874		9.478635	-2.317206	0.943949	0.003744	0.003030	-0.009809	-0.551270	0.455811	0.212402	0.368474	-0.645637	-0.189404	-0.641487
61875		9.469628	-2.376132	0.946707	0.005372	0.002589	-0.013210	-0.553711	0.467041	0.211914	0.368426	-0.645578	-0.189500	-0.641546
61876		9.462431	-2.280984	0.935157	0.009145	0.003980	-0.012410	-0.544434	0.446533	0.221680	0.368535	-0.645478	-0.189639	-0.641543
61877		9.486071	-2.249039	0.954860	0.007550	0.008284	-0.007794	-0.556641	0.461426	0.216797	0.368429	-0.645478	-0.189623	-0.641609
61878		9.480848	-2.276012	0.947685	0.003164	0.011073	-0.006486	-0.549561	0.458252	0.206299	0.368447	-0.645395	-0.189611	-0.641685
61879		9.494883	-2.281561	0.943303	-0.002672	0.007629	-0.005560	-0.552734	0.458008	0.219482	0.368485	-0.645311	-0.189578	-0.641757
61880		9.484336	-2.337651	0.925253	-0.003505	0.006505	-0.007701	-0.554932	0.457764	0.213379	0.368391	-0.645330	-0.189524	-0.641809
61881		9.475850	-2.325526	0.968898	-0.000712	0.003057	-0.007656	-0.546875	0.454102	0.218506	0.368340	-0.645308	-0.189528	-0.641858
61882		9.479185	-2.276071	0.983333	-0.011099	0.006628	-0.007536	-0.559814	0.468750	0.220703	0.368180	-0.645374	-0.189396	-0.641923
61883		9.478154	-2.275916	0.939553	-0.003611	0.004842	-0.004810	-0.560059	0.464355	0.214355	0.368183	-0.645395	-0.189351	-0.641913
61884		9.497233	-2.289202	0.923316	-0.003390	0.005185	-0.003827	-0.554199	0.451172	0.218750	0.368189	-0.645366	-0.189308	-0.641951
61885		9.452379	-2.345792	0.932828	-0.000158	-0.000732	-0.005371	-0.558838	0.456299	0.218750	0.368057	-0.645422	-0.189287	-0.641977
61886		9.480870	-2.327746	0.916334	0.000721	-0.002517	-0.004992	-0.551025	0.456543	0.213867	0.367966	-0.645472	-0.189295	-0.641977
61887		9.467598	-2.283547	0.942862	0.001110	-0.002077	-0.004816	-0.549561	0.461670	0.214600	0.367950	-0.645504	-0.189306	-0.641951
61888		9.493308	-2.272445	0.956554	0.001126	-0.000733	-0.000976	-0.556396	0.452637	0.212646	0.368021	-0.645543	-0.189284	-0.641877
61889		9.476727	-2.287675	0.923120	0.001437	-0.001247	-0.000253	-0.552002	0.465088	0.209961	0.367988	-0.645552	-0.189261	-0.641894
61890		9.497199	-2.275322	0.924257	-0.003563	0.000757	-0.000105	-0.554199	0.455566	0.215332	0.368086	-0.645559	-0.189214	-0.641845
61891		9.474398	-2.401112	0.936686	-0.012268	0.004130	-0.001591	-0.553467	0.459961	0.214355	0.367966	-0.645610	-0.189061	-0.641907
61892		9.466958	-2.393956	1.001319	0.012579	0.000862	-0.007064	-0.557861	0.461914	0.218262	0.368052	-0.645554	-0.189178	-0.641880
61893		9.464411	-2.317533	0.931977	0.002832	0.000958	-0.011385	-0.559814	0.459961	0.217285	0.368001	-0.645546	-0.189248	-0.641896
61894		9.475378	-2.293428	0.931333	0.006938	-0.001779	-0.009285	-0.553223	0.466553	0.224365	0.367971	-0.645534	-0.189348	-0.641895
61895		9.484581	-2.316197	0.961801	0.002884	0.001202	-0.009593	-0.553467	0.462158	0.212402	0.367970	-0.645587	-0.189392	-0.641831
61896		9.503120	-2.287718	0.944474	0.006422	0.004065	-0.010062	-0.556152	0.463379	0.215820	0.368021	-0.645513	-0.189474	-0.641851
61897		9.461425	-2.300745	0.945359	0.007084	0.005092	-0.007113	-0.554199	0.459961	0.212891	0.368086	-0.645452	-0.189531	-0.641859
61898		9.468475	-2.248860	0.951639	0.007576	0.002868	-0.006908	-0.554688	0.459229	0.219238	0.368139	-0.645393	-0.189597	-0.641868
61899		9.482218	-2.315693	0.951899	0.001072	0.003351	-0.005675	-0.555664	0.459961	0.224365	0.368111	-0.645407	-0.189587	-0.641873
61900		9.486212	-2.342480	0.946491	-0.001223	-0.000393	-0.008775	-0.553467	0.458252	0.218506	0.368011	-0.645485	-0.189596	-0.641849
61901		9.490596	-2.343456	0.914231	0.002430	-0.002002	-0.008927	-0.557861	0.464844	0.216553	0.367956	-0.645526	-0.189645	-0.641825
61902		9.483931	-2.284360	0.925114	0.006797	-0.005492	-0.007891	-0.557617	0.462891	0.216309	0.367991	-0.645549	-0.189756	-0.641749
61903		9.461424	-2.306508	0.929893	0.007095	-0.004196	-0.007455	-0.559082	0.458008	0.214355	0.368018	-0.645560	-0.189857	-0.641692
61904		9.468198	-2.321266	0.917101	0.003595	-0.000681	-0.008397	-0.557373	0.456787	0.220947	0.367974	-0.645540	-0.189917	-0.641720
61905		9.473747	-2.315683	0.953565	0.004046	0.002523	-0.009057	-0.559326	0.461426	0.208496	0.367907	-0.645539	-0.189961	-0.641747
61906		9.497170	-2.325012	0.928259	0.003473	0.000639	-0.012259	-0.559570	0.457275	0.219971	0.367890	-0.645462	-0.190056	-0.641806
61907		9.476444	-2.293937	0.926693	0.010828	0.001997	-0.013682	-0.556885	0.453369	0.208008	0.367841	-0.645410	-0.190197	-0.641844
61908		9.468285	-2.255379	0.944183	0.003861	0.004235	-0.008536	-0.549072	0.452393	0.216309	0.367807	-0.645318	-0.190234	-0.641946
61909		9.504235	-2.262851	0.914533	0.001805	0.002177	-0.006818	-0.554199	0.453125	0.217041	0.367751	-0.645334	-0.190227	-0.641963
61910		9.501956	-2.273161	0.921380	0.001592	-0.002492	-0.004887	-0.548584	0.460449	0.207275	0.367684	-0.645382	-0.190231	-0.641952
61911		9.485605	-2.307423	0.937020	-0.005185	-0.002607	-0.006428	-0.548584	0.458740	0.212891	0.367685	-0.645411	-0.190222	-0.641926
61912		9.478341	-2.315701	0.930851	0.001895	0.001322	-0.007075	-0.554199	0.464355	0.210938	0.367707	-0.645410	-0.190243	-0.641908
61913		9.486508	-2.273369	0.934578	0.006219	0.003265	-0.006904	-0.557373	0.467529	0.210693	0.367808	-0.645344	-0.190310	-0.641896
61914		9.480508	-2.260370	0.924749	0.003760	0.002574	-0.005651	-0.561035	0.463135	0.214844	0.367914	-0.645288	-0.190360	-0.641877
61915		9.494399	-2.321991	0.948585	0.000956	0.006014	-0.005699	-0.550293	0.455566	0.210449	0.367930	-0.645234	-0.190358	-0.641923
61916		9.466657	-2.312235	0.939891	0.003484	0.005142	-0.004875	-0.553467	0.452637	0.215576	0.367959	-0.645183	-0.190351	-0.641959
61917		9.486138	-2.294015	0.920696	-0.000465	0.002292	-0.008701	-0.546875	0.457031	0.211670	0.367856	-0.645189	-0.190344	-0.642014
61918		9.478829	-2.332361	0.918476	0.005076	0.002650	-0.009757	-0.553223	0.457031	0.216309	0.367880	-0.645156	-0.190405	-0.642015
61919		9.485831	-2.274543	0.947488	0.006736	0.001751	-0.009024	-0.557129	0.467041	0.215576	0.367876	-0.645137	-0.190474	-0.642017
61920		9.483807	-2.253292	0.952083	0.001824	0.002885	-0.009143	-0.552002	0.455566	0.214600	0.367918	-0.645112	-0.190531	-0.642000
61921		9.477818	-2.276113	0.921641	-0.001761	0.002924	-0.006922	-0.549561	0.458740	0.215088	0.367862	-0.645121	-0.190506	-0.642030
61922		9.484336	-2.316517	0.936388	0.000512	0.005327	-0.007654	-0.555176	0.462402	0.219238	0.367866	-0.645107	-0.190504	-0.642043
61923		9.474546	-2.269547	0.955890	0.001212	0.005257	-0.006756	-0.551758	0.456543	0.221924	0.367881	-0.645101	-0.190511	-0.642039
61924		9.497895	-2.254546	0.904347	-0.000471	-0.000226	-0.006076	-0.562256	0.455811	0.221436	0.367824	-0.645175	-0.190505	-0.641999
61925		9.495566	-2.259681	0.934364	0.000062	-0.000394	-0.004374	-0.554688	0.452393	0.222412	0.367736	-0.645218	-0.190492	-0.642009
61926		9.489341	-2.272726	0.950057	-0.000216	0.002173	-0.003599	-0.554932	0.464600	0.222900	0.367655	-0.645272	-0.190444	-0.642017
61927		9.472952	-2.312606	0.943531	0.001559	0.001127	-0.005456	-0.554199	0.455322	0.220459	0.367681	-0.645320	-0.190462	-0.641948
61928		9.479707	-2.302610	0.905271	0.002021	0.002522	-0.005827	-0.558594	0.465820	0.217285	0.367639	-0.645343	-0.190459	-0.641950
61929		9.482399	-2.309249	0.949271	0.004367	0.005881	-0.007104	-0.555176	0.458252	0.219482	0.367699	-0.645293	-0.190497	-0.641955
61930		9.468836	-2.244604	0.928195	0.003719	0.006197	-0.006216	-0.549805	0.462158	0.218506	0.367703	-0.645268	-0.190502	-0.641976
61931		9.481624	-2.265842	0.951657	0.001797	0.007852	-0.005884	-0.554688	0.454590	0.214600	0.367754	-0.645249	-0.190486	-0.641969
61932		9.494498	-2.292486	0.951491	0.000267	0.004275	-0.006298	-0.557373	0.460205	0.211914	0.367706	-0.645231	-0.190463	-0.642022
61933		9.479545	-2.285688	0.914458	0.002754	0.004508	-0.003430	-0.560059	0.460205	0.217285	0.367748	-0.645184	-0.190450	-0.642050
61934		9.483432	-2.277152	0.930202	0.002848	0.003653	-0.003688	-0.555664	0.458984	0.212891	0.367764	-0.645165	-0.190448	-0.642061
61935		9.477031	-2.315455	0.973047	0.003015	0.003751	-0.004492	-0.557373	0.452881	0.225830	0.367790	-0.645131	-0.190445	-0.642080
61936		9.473565	-2.265977	0.930188	0.002367	0.004066	-0.003605	-0.552734	0.454102	0.212158	0.367731	-0.645165	-0.190421	-0.642087
61937		9.515616	-2.249689	0.931881	-0.003581	0.005068	-0.003019	-0.549561	0.462402	0.218506	0.367689	-0.645159	-0.190334	-0.642143
61938		9.478740	-2.302583	0.924945	0.003747	0.005737	-0.002097	-0.551025	0.459961	0.219727	0.367782	-0.645159	-0.190311	-0.642096
61939		9.467168	-2.308703	0.952772	0.002860	0.007518	-0.002477	-0.558105	0.452881	0.224609	0.367840	-0.645151	-0.190274	-0.642083
61940		9.474963	-2.303154	0.937030	0.003257	0.004802	-0.005838	-0.558350	0.450195	0.217773	0.367775	-0.645159	-0.190273	-0.642111
61941		9.505658	-2.298505	0.941555	0.005157	0.002441	-0.003838	-0.554932	0.453125	0.220459	0.367728	-0.645146	-0.190273	-0.642151
61942		9.489265	-2.271603	0.952798	0.008240	0.002113	-0.003639	-0.551758	0.454590	0.220215	0.367734	-0.645147	-0.190300	-0.642140
61943		9.491839	-2.284178	0.973546	0.001478	0.005847	-0.003983	-0.553467	0.459717	0.213135	0.367714	-0.645155	-0.190255	-0.642156
61944		9.474207	-2.289495	0.943879	0.007770	0.006392	-0.002347	-0.555908	0.463379	0.213379	0.367812	-0.645092	-0.190256	-0.642163
61945		9.489492	-2.268847	0.957098	0.002073	0.002768	-0.004035	-0.555420	0.458496	0.221924	0.367862	-0.645076	-0.190252	-0.642152
61946		9.489807	-2.273138	0.934350	0.006306	-0.000097	-0.004515	-0.546387	0.459961	0.215332	0.367878	-0.645108	-0.190290	-0.642099
61947		9.496198	-2.278147	0.968813	0.006670	-0.000361	-0.002010	-0.553223	0.471436	0.217041	0.367969	-0.645137	-0.190302	-0.642014
61948		9.481046	-2.266863	0.954375	0.001234	0.002280	-0.000018	-0.559814	0.450439	0.210449	0.368101	-0.645166	-0.190269	-0.641919
61949		9.479666	-2.288111	0.960074	0.001526	0.003578	0.000416	-0.553467	0.461182	0.214844	0.368071	-0.645129	-0.190199	-0.641994
61950		9.465601	-2.311733	0.970539	0.000775	0.003400	-0.002264	-0.554688	0.460449	0.204834	0.368109	-0.645132	-0.190159	-0.641982
61951		9.468346	-2.304840	0.941246	0.001256	0.002986	-0.002345	-0.549805	0.456055	0.214111	0.368158	-0.645081	-0.190123	-0.642015
61952		9.473545	-2.280801	0.928557	0.004245	0.003516	-0.001887	-0.558838	0.460938	0.216553	0.368199	-0.645074	-0.190095	-0.642007
61953		9.477254	-2.272825	0.944281	0.002947	0.004147	-0.000116	-0.559326	0.457764	0.208740	0.368250	-0.645061	-0.190060	-0.642002
61954		9.480851	-2.265345	0.959902	0.001189	0.003384	0.002024	-0.557129	0.455566	0.215088	0.368290	-0.645025	-0.189988	-0.642035
61955		9.480841	-2.271052	0.937208	-0.001056	0.001683	0.000421	-0.561768	0.461670	0.220459	0.368272	-0.645048	-0.189914	-0.642044
61956		9.499863	-2.310665	0.946010	-0.001286	-0.005043	0.000850	-0.557373	0.466553	0.218018	0.368262	-0.645142	-0.189883	-0.641965
61957		9.474421	-2.285647	0.951030	-0.000368	-0.004766	0.002727	-0.558105	0.457764	0.216797	0.368330	-0.645232	-0.189848	-0.641846
61958		9.485803	-2.274119	0.947579	-0.000890	-0.000735	0.002234	-0.557373	0.465332	0.208008	0.368333	-0.645282	-0.189778	-0.641816
61959		9.488193	-2.324394	0.946988	-0.000138	0.001959	0.002299	-0.555176	0.454346	0.213623	0.368421	-0.645266	-0.189711	-0.641801
61960		9.485420	-2.336759	0.954173	-0.000692	0.001419	0.002926	-0.557617	0.462891	0.216309	0.368421	-0.645290	-0.189615	-0.641804
61961		9.461307	-2.295721	0.932392	0.003251	-0.000230	-0.000602	-0.552979	0.457764	0.214111	0.368474	-0.645308	-0.189608	-0.641757
61962		9.454955	-2.253895	0.918699	-0.000692	0.001420	0.002926	-0.554443	0.461182	0.213379	0.368506	-0.645341	-0.189518	-0.641733
61963		9.476127	-2.307712	0.948326	-0.003692	0.006566	0.003388	-0.557861	0.467041	0.218994	0.368551	-0.645340	-0.189384	-0.641748
61964		9.510180	-2.174666	0.955081	-0.003171	0.002534	0.003881	-0.555908	0.465088	0.216553	0.368618	-0.645388	-0.189287	-0.641690
61965		9.517247	-1.941333	0.986444	-0.023731	0.004433	0.014360	-0.556885	0.453125	0.215088	0.368601	-0.645533	-0.188925	-0.641660
61966		9.514134	-2.125044	0.819348	-0.081108	0.021970	0.025310	-0.557861	0.459961	0.216797	0.368160	-0.645814	-0.187909	-0.641929
61967		9.460811	-2.497791	0.800811	-0.040672	0.009232	0.032134	-0.555420	0.452881	0.220947	0.368116	-0.646029	-0.187240	-0.641933
61968		9.410523	-2.368696	1.035162	-0.034119	0.011534	0.030121	-0.549805	0.458496	0.217041	0.368062	-0.646213	-0.186613	-0.641962
61969		9.355224	-2.337460	1.053546	-0.079252	0.008314	0.025604	-0.551758	0.457520	0.221924	0.367659	-0.646615	-0.185678	-0.642059
61970		9.380689	-1.846026	1.019457	-0.049949	-0.001277	0.054467	-0.543457	0.464111	0.220703	0.367682	-0.647037	-0.184789	-0.641877
61971		9.625294	-1.226709	0.803627	-0.056015	0.015931	0.103835	-0.546631	0.462402	0.224609	0.368159	-0.647475	-0.183379	-0.641567
61972		9.677717	-0.992465	0.452421	-0.059692	0.022824	0.197446	-0.540771	0.461670	0.228271	0.369334	-0.648088	-0.181155	-0.640903
61973		9.900309	-0.494103	0.444019	0.007002	0.022888	0.328212	-0.541016	0.468750	0.220459	0.372078	-0.648705	-0.178404	-0.639462
61974		10.037043	0.038822	0.801909	0.022437	0.042636	0.498157	-0.532227	0.480225	0.218994	0.376358	-0.649408	-0.174321	-0.637366
61975		9.844239	0.101785	1.252503	0.016943	0.051295	0.692436	-0.530029	0.489014	0.214844	0.382184	-0.650459	-0.168587	-0.634363
61976		9.334564	-0.537246	1.274793	-0.080044	0.075806	0.842017	-0.514648	0.499512	0.205322	0.388406	-0.652002	-0.160752	-0.631025
61977		8.217499	-3.397888	0.615199	-0.472813	0.084073	0.840989	-0.497559	0.512939	0.218750	0.391418	-0.655271	-0.149774	-0.628474
61978		9.089819	-4.432524	1.308858	-0.110043	-0.001319	0.860212	-0.490723	0.531494	0.216553	0.397392	-0.657442	-0.141901	-0.624270
61979		9.794982	-1.352480	1.716032	0.170975	-0.002135	0.997817	-0.477295	0.537842	0.197510	0.406738	-0.658349	-0.135096	-0.618781
61980		8.989076	-0.140109	1.487021	-0.029773	0.041702	1.171522	-0.459229	0.550049	0.205322	0.415739	-0.660037	-0.125054	-0.613086
61981		8.162127	-2.762184	0.621637	-0.077683	-0.003539	1.303111	-0.442627	0.566895	0.208008	0.425181	-0.662409	-0.113791	-0.606206
61982		6.908402	-5.174428	0.990452	-0.054077	-0.017495	1.300081	-0.420410	0.580811	0.203125	0.434670	-0.664590	-0.102800	-0.599011
61983		8.985337	-3.824930	0.588725	0.168380	-0.010908	1.345689	-0.403076	0.601074	0.198242	0.446255	-0.665377	-0.093045	-0.591162
61984		9.481375	1.224907	0.663950	-0.102788	0.135654	1.450515	-0.361572	0.614258	0.202393	0.456402	-0.666505	-0.079603	-0.584065
61985		6.092254	-9.549198	-0.296576	-1.131201	-0.115639	1.303469	-0.347656	0.618896	0.222168	0.456509	-0.674990	-0.061315	-0.576393
61986		7.301118	-9.633475	-0.117732	-0.464853	-0.072912	1.114457	-0.322754	0.628662	0.220459	0.460609	-0.678983	-0.049068	-0.569574
61987		9.400738	-7.050670	-0.928794	-1.192107	0.006755	0.728857	-0.314209	0.629150	0.244873	0.455673	-0.686178	-0.034406	-0.565985
61988		4.895202	-18.623632	0.216759	-0.822835	-0.108822	0.289900	-0.306885	0.634033	0.248779	0.450624	-0.691757	-0.026754	-0.563644
61989		8.772394	-19.611026	2.477114	-0.211119	-0.162054	-0.628913	-0.322266	0.631836	0.260254	0.444323	-0.693881	-0.031594	-0.565781
61990		16.384442	-16.745604	2.299013	0.324330	-0.247416	-1.279635	-0.343018	0.612549	0.249756	0.437943	-0.693245	-0.046266	-0.570506
61991		20.021172	-10.293879	4.646151	0.662310	-0.153638	-1.385492	-0.367432	0.602295	0.249268	0.433644	-0.689800	-0.063709	-0.576255
61992		13.659512	-7.641955	1.657722	1.045648	-0.028609	-1.470058	-0.389160	0.589600	0.229248	0.431946	-0.683008	-0.083927	-0.582991
61993		5.227761	-3.797055	-1.854312	1.270186	0.180401	-1.880212	-0.420166	0.583740	0.204834	0.429111	-0.672606	-0.108101	-0.593110
61994		3.852415	3.269096	-2.878689	0.768583	0.532590	-1.978509	-0.458496	0.560547	0.193848	0.421474	-0.661635	-0.127420	-0.606929
61995		3.755125	0.969791	-2.589013	0.277989	0.571957	-1.393914	-0.473389	0.537109	0.187256	0.414044	-0.653521	-0.137940	-0.618426
61996		1.301738	-2.512433	0.374812	-0.105196	0.520442	-0.487990	-0.494385	0.537842	0.185303	0.410308	-0.649210	-0.138356	-0.625325
61997		1.558822	1.311647	-0.293252	0.612507	0.099278	-0.032214	-0.495361	0.529297	0.166748	0.415202	-0.645252	-0.142827	-0.625186
61998		1.653450	2.168390	1.010279	-0.122734	0.072778	0.348593	-0.486084	0.542480	0.159912	0.417083	-0.645970	-0.138633	-0.624136
61999		0.911826	1.364924	-0.457747	-0.788056	0.134733	0.692518	-0.479736	0.549561	0.181152	0.416344	-0.650204	-0.126145	-0.622880
62000		0.021785	-1.163501	-0.306145	-0.365428	-0.066184	0.877491	-0.454346	0.571777	0.183594	0.420093	-0.653993	-0.116464	-0.618265
62001		0.851997	-0.462216	-0.041168	0.409227	-0.307338	1.040642	-0.442627	0.566895	0.179688	0.431012	-0.655699	-0.112678	-0.609583
62002		2.650344	3.174414	2.332062	-0.000839	-0.317002	1.204113	-0.416504	0.588623	0.189941	0.439702	-0.659768	-0.104460	-0.600380
62003		7.250157	0.019695	-2.961991	-2.402190	-0.250979	1.991673	-0.386475	0.598633	0.232666	0.434194	-0.676976	-0.071273	-0.590000
62004		13.729298	-4.832016	2.337246	-1.807734	0.380233	1.276443	-0.368896	0.606689	0.260986	0.428502	-0.684890	-0.045036	-0.587609
62005		26.731229	-15.784396	0.118974	-1.644573	0.171397	0.677095	-0.346680	0.600098	0.277100	0.419411	-0.692686	-0.026220	-0.586167
62006		18.123576	-30.392642	2.936015	0.055891	-0.446825	0.240143	-0.349365	0.596436	0.279297	0.421539	-0.695771	-0.026909	-0.580933
62007		18.310725	-26.622352	5.833965	1.030251	-0.371501	-0.721124	-0.363037	0.599121	0.271484	0.425099	-0.692727	-0.042547	-0.581042
62008		20.795312	-17.168636	0.781019	1.621011	-0.280702	-1.433497	-0.377930	0.595947	0.248535	0.428417	-0.685144	-0.068052	-0.585154
62009		14.181007	-2.330708	-1.336686	2.113188	-0.213589	-1.888129	-0.411133	0.580078	0.217529	0.432253	-0.673370	-0.100607	-0.591277
62010		6.770404	5.829936	-4.103835	2.328766	0.006661	-2.259527	-0.452881	0.563232	0.182617	0.434806	-0.657371	-0.136588	-0.600126
62011		3.858803	2.922746	-2.567107	0.726274	-0.075423	-1.601095	-0.478760	0.551514	0.174072	0.428537	-0.651124	-0.155523	-0.606800
62012		2.601550	-3.963913	-0.081030	0.944318	-0.316498	-0.423556	-0.484131	0.550293	0.161133	0.432370	-0.647615	-0.167801	-0.604561
62013		1.243645	1.266117	0.045237	1.693241	-0.524113	0.396356	-0.478271	0.561279	0.143311	0.447881	-0.643120	-0.180166	-0.594424
62014		0.714448	1.773271	1.992373	0.354085	-0.192827	0.573159	-0.462158	0.567871	0.135498	0.454555	-0.643867	-0.179262	-0.588795
62015		0.403877	0.295058	0.545988	-0.112876	-0.024596	0.852688	-0.458984	0.579590	0.144775	0.459869	-0.646592	-0.171700	-0.583916
62016		0.679066	0.353006	0.436695	-0.674830	0.118732	0.999655	-0.428955	0.594238	0.149902	0.461926	-0.651708	-0.157979	-0.580469
62017		0.519477	-1.544783	0.113852	-0.629937	0.164144	1.114500	-0.405762	0.599365	0.160400	0.465172	-0.656302	-0.143329	-0.576489
62018		0.959037	0.113318	1.223203	-0.107181	0.180144	1.268122	-0.398193	0.615479	0.159180	0.473712	-0.657848	-0.131025	-0.570671
62019		2.176255	2.065308	1.579180	-0.468401	0.227434	1.431384	-0.367920	0.625732	0.164551	0.480378	-0.661254	-0.114507	-0.564685
62020		3.381788	4.706966	5.463926	-1.313889	0.202867	1.883398	-0.333008	0.637939	0.190186	0.482923	-0.670159	-0.088349	-0.556657
62021		2.538964	-12.768828	-3.390095	-2.562448	-0.307757	2.307580	-0.294922	0.652588	0.236572	0.476731	-0.689704	-0.052862	-0.542441
62022		15.395550	-7.326186	-0.939942	-0.997199	0.541311	1.318841	-0.273193	0.657471	0.247314	0.477332	-0.692704	-0.031349	-0.539751
62023		23.359697	-22.209548	-4.751532	-1.199191	0.188267	0.466486	-0.270020	0.655273	0.266846	0.470129	-0.698706	-0.017979	-0.538949
62024		23.977344	-26.649555	-0.677576	0.108077	-0.191046	-0.152302	-0.263428	0.650146	0.266602	0.470023	-0.699351	-0.021073	-0.538092
62025		19.497436	-26.283549	7.326985	0.770764	-0.163519	-0.931006	-0.282471	0.649414	0.259521	0.470418	-0.695626	-0.035229	-0.541821
62026		15.277417	-21.815028	4.724613	1.316186	-0.234691	-1.853855	-0.308838	0.639648	0.241699	0.469008	-0.688396	-0.061436	-0.549880
62027		13.288019	-8.822855	-0.562381	1.932187	-0.266973	-2.428857	-0.355469	0.624268	0.202637	0.468360	-0.676538	-0.096880	-0.559955
62028		9.989760	6.387214	-5.342771	2.298935	0.014639	-2.664235	-0.410400	0.614746	0.173828	0.468727	-0.659119	-0.135186	-0.572349
62029		5.978527	9.542579	-1.942210	1.241456	-0.064890	-2.293784	-0.435059	0.590332	0.160156	0.462183	-0.648113	-0.163208	-0.582837
62030		4.675748	-0.002020	-0.227174	0.352005	-0.150222	-1.178435	-0.458740	0.575928	0.152588	0.456074	-0.644738	-0.176102	-0.587620
62031		0.997704	0.152978	1.245721	0.838189	-0.325334	-0.226845	-0.463623	0.573975	0.144287	0.460422	-0.641841	-0.185933	-0.584364
62032		-0.942619	1.459878	2.925422	-0.696809	0.284229	-0.430367	-0.477783	0.566895	0.151367	0.452326	-0.642768	-0.182657	-0.590666
62033		-2.030979	-3.716820	0.317186	-1.045589	0.475649	-0.749591	-0.486084	0.555176	0.161133	0.439413	-0.643389	-0.178255	-0.600993
62034		0.486543	0.427684	-1.755517	-0.700457	0.323200	-0.895852	-0.496582	0.544922	0.167969	0.427721	-0.642773	-0.178371	-0.609984
62035		1.054660	1.509871	-1.148912	-0.759014	0.290030	-0.776482	-0.519043	0.523193	0.170898	0.416310	-0.642862	-0.177213	-0.618069
62036		-0.272153	-1.858012	0.597048	-0.320097	0.095260	-0.379926	-0.521973	0.515869	0.177246	0.411017	-0.642962	-0.177325	-0.621467
62037		0.558160	0.887113	-0.774091	0.940281	-0.420890	0.007758	-0.516113	0.519775	0.166016	0.417664	-0.641397	-0.186701	-0.615881
62038		5.300247	6.890857	2.732336	0.419741	-0.327615	0.401982	-0.502686	0.531738	0.163574	0.423359	-0.642673	-0.188424	-0.610111
62039		5.029099	-10.524072	-7.754584	-3.149444	-0.500635	3.303776	-0.454102	0.551025	0.213623	0.421401	-0.669895	-0.140243	-0.594973
62040		16.817312	-1.977739	8.851324	-0.033104	-0.305234	2.198530	-0.410400	0.588135	0.228027	0.436788	-0.675972	-0.123150	-0.580614
62041		13.906474	-1.244475	0.028763	0.418404	0.004495	1.900588	-0.376953	0.609131	0.216064	0.453996	-0.676429	-0.109958	-0.569421
62042		11.745996	-22.813034	-5.560824	0.055086	-0.466153	0.975953	-0.364014	0.612305	0.217285	0.460757	-0.680758	-0.104677	-0.559745
62043		30.050155	-7.645742	3.926352	1.387940	-0.381247	0.748720	-0.349854	0.628174	0.206543	0.477235	-0.676313	-0.110139	-0.550198
62044		7.381976	-16.134695	6.799488	-1.862577	0.521761	0.186693	-0.348145	0.625000	0.224365	0.463351	-0.683942	-0.092523	-0.555850
62045		4.323609	-15.298072	2.420078	0.714135	0.004238	-0.317461	-0.357178	0.617920	0.215820	0.467262	-0.679408	-0.100075	-0.556826
62046		9.283354	-10.583383	0.211540	-0.272630	0.027971	-1.002700	-0.373047	0.611816	0.216309	0.457956	-0.679524	-0.106358	-0.563215
62047		8.324358	-5.006258	-1.917006	0.144772	0.214134	-1.038492	-0.388916	0.599365	0.223145	0.452131	-0.675773	-0.114824	-0.570722
62048		8.111280	-0.420883	0.291606	-0.274763	0.146761	-1.184710	-0.401367	0.590576	0.223877	0.441474	-0.674546	-0.121782	-0.579015
62049		7.120657	-6.043148	2.740528	-0.005613	-0.079372	-1.085137	-0.421631	0.573730	0.223633	0.433387	-0.673489	-0.131087	-0.584298
62050		7.944306	-1.525591	1.384424	0.196623	-0.062233	-0.973305	-0.435791	0.572021	0.223389	0.427767	-0.671277	-0.140828	-0.588701
62051		7.358875	-1.457510	-1.998122	0.174671	-0.107868	-0.958219	-0.458008	0.557861	0.227783	0.421928	-0.669452	-0.150493	-0.592590
62052		9.234899	-0.878352	-0.035770	0.380709	-0.213160	-0.942568	-0.460938	0.543457	0.225830	0.417635	-0.667250	-0.162090	-0.595051
62053		10.148021	-2.553093	0.983033	-0.036348	-0.146160	-0.772691	-0.481689	0.534180	0.227539	0.411197	-0.666996	-0.168767	-0.597956
62054		10.096205	-1.970163	0.999843	-0.153943	-0.098458	-0.647139	-0.482178	0.523926	0.240479	0.404798	-0.667187	-0.173334	-0.600795
62055		10.350416	-3.095939	-0.299927	0.207305	-0.109694	-0.516032	-0.494873	0.523682	0.235596	0.402289	-0.665910	-0.179432	-0.602106
62056		10.176348	-2.853475	-1.120930	0.344401	-0.006959	-0.421220	-0.498047	0.514893	0.232178	0.401884	-0.663339	-0.185338	-0.603424
62057		9.757285	-1.578274	-0.160679	0.450638	0.067172	-0.339340	-0.502686	0.515869	0.227539	0.403137	-0.659833	-0.191008	-0.604664
62058		9.334917	-1.956947	0.985408	0.239134	0.102915	-0.290470	-0.512207	0.510010	0.217773	0.403087	-0.657219	-0.194495	-0.606429
62059		9.622680	-1.703321	0.894606	-0.006075	0.137933	-0.261718	-0.511230	0.505859	0.220703	0.401371	-0.655607	-0.195821	-0.608880
62060		9.472904	-2.347610	0.343729	-0.010417	0.169002	-0.222983	-0.514404	0.498779	0.222900	0.399966	-0.653879	-0.196593	-0.611408
62061		9.626580	-1.884031	0.163582	-0.154042	0.228331	-0.235285	-0.523193	0.500732	0.219727	0.397433	-0.652375	-0.196072	-0.614824
62062		9.502926	-2.627280	-0.086013	-0.316129	0.279806	-0.257393	-0.517578	0.494629	0.213867	0.393547	-0.651200	-0.194272	-0.619127
62063		9.547721	-2.671689	0.054756	-0.109962	0.266624	-0.206608	-0.525635	0.488525	0.214844	0.391710	-0.649213	-0.193742	-0.622535
62064		9.512166	-2.995650	0.593728	0.143126	0.132870	-0.151037	-0.526367	0.493164	0.212402	0.392030	-0.647152	-0.195389	-0.623963
62065		9.008148	-3.549653	1.959928	0.375235	0.035027	-0.160290	-0.531982	0.494629	0.208740	0.393906	-0.644686	-0.199388	-0.624069
62066		9.042429	-2.722989	1.873203	0.390413	0.039607	-0.143358	-0.538330	0.494629	0.201172	0.396038	-0.642134	-0.203337	-0.624077
62067		9.307082	-1.937835	1.037981	0.148050	0.087913	-0.184473	-0.539062	0.482666	0.193848	0.396024	-0.640284	-0.205492	-0.625280
62068		9.470645	-2.677551	0.543152	0.115730	0.106570	-0.203918	-0.544678	0.490234	0.194092	0.395652	-0.638386	-0.207475	-0.626800
62069		9.264009	-2.524498	0.856170	0.264522	0.061500	-0.159823	-0.547852	0.482422	0.190674	0.396685	-0.636216	-0.210478	-0.627351
62070		9.349033	-1.151739	1.545633	0.211903	0.009175	-0.138439	-0.546387	0.488770	0.178711	0.397324	-0.634765	-0.213159	-0.627511
62071		9.485720	-1.283430	1.670248	0.099104	0.024477	-0.076809	-0.544922	0.483643	0.195068	0.397600	-0.633910	-0.214400	-0.627777
62072		9.624807	-1.308690	1.495481	-0.023843	0.041551	-0.039230	-0.550049	0.475586	0.180176	0.397223	-0.633644	-0.214262	-0.628332
62073		9.438195	-2.146840	1.176243	-0.071978	0.047717	-0.013838	-0.542480	0.479980	0.189453	0.396694	-0.633622	-0.213550	-0.628930
62074		9.327007	-2.133797	0.824613	-0.085090	0.034722	0.003699	-0.547119	0.484863	0.186523	0.396156	-0.633823	-0.212635	-0.629377
62075		9.458755	-2.214444	0.879385	-0.079775	0.003470	0.012146	-0.545898	0.480713	0.194336	0.395648	-0.634262	-0.211858	-0.629516
62076		9.408536	-2.153066	1.092575	0.009545	-0.016678	0.037065	-0.545166	0.481201	0.193115	0.395984	-0.634487	-0.211678	-0.629138
62077		9.464092	-1.971306	1.308938	-0.031114	-0.002438	0.041365	-0.538330	0.487061	0.188477	0.396071	-0.634811	-0.211077	-0.628959
62078		9.453647	-2.234469	1.324700	-0.097881	0.014122	0.042910	-0.536621	0.484863	0.190430	0.395691	-0.635337	-0.209858	-0.629075
62079		9.487038	-2.423648	1.080808	-0.079595	0.005736	0.050739	-0.535156	0.483887	0.195557	0.395494	-0.635858	-0.208760	-0.629038
62080		9.305021	-2.613689	0.863362	-0.033592	0.013685	0.048870	-0.544922	0.486328	0.197266	0.395664	-0.636086	-0.207994	-0.628954
62081		9.335022	-2.668878	0.775075	-0.005391	0.015802	0.040546	-0.544678	0.488037	0.189209	0.395996	-0.636135	-0.207509	-0.628856
62082		9.521355	-2.624269	1.138756	0.022187	0.006870	0.019060	-0.544189	0.488037	0.189209	0.396361	-0.636057	-0.207466	-0.628719
62083		9.419534	-2.475200	1.339933	0.061877	-0.006663	0.014775	-0.539062	0.491943	0.193359	0.396971	-0.635878	-0.207834	-0.628393
62084		9.425235	-2.216876	1.063662	0.009633	-0.019372	0.017953	-0.546631	0.497070	0.194824	0.397159	-0.636069	-0.207817	-0.628087
62085		9.537098	-2.113419	0.930901	-0.021334	-0.031233	0.025007	-0.540771	0.490723	0.196777	0.397123	-0.636525	-0.207563	-0.627732
62086		9.439744	-2.511629	0.942257	-0.041288	-0.023435	0.025340	-0.532715	0.483398	0.198486	0.396949	-0.637020	-0.207109	-0.627489
62087		9.366480	-2.461881	0.967278	-0.035997	-0.018946	0.022213	-0.537354	0.490234	0.189697	0.396802	-0.637448	-0.206697	-0.627283
62088		9.432744	-2.600639	1.073309	-0.034980	-0.023018	0.012011	-0.538330	0.485596	0.187256	0.396581	-0.637869	-0.206408	-0.627091
62089		9.403501	-2.646723	1.066683	-0.017390	-0.029018	0.003434	-0.538818	0.488281	0.197754	0.396416	-0.638225	-0.206359	-0.626849
62090		9.460029	-2.386239	1.010428	-0.024308	-0.024785	-0.004734	-0.535645	0.482178	0.198730	0.396137	-0.638567	-0.206286	-0.626701
62091		9.474554	-2.430858	0.980313	-0.017035	-0.020149	-0.002543	-0.542725	0.475098	0.192871	0.395941	-0.638844	-0.206228	-0.626561
62092		9.441612	-2.534337	0.898722	0.000378	-0.023539	-0.004584	-0.535156	0.490479	0.192627	0.395856	-0.639049	-0.206355	-0.626364
62093		9.450107	-2.529608	0.875958	0.009853	-0.021921	-0.007985	-0.531982	0.484619	0.202637	0.395841	-0.639187	-0.206568	-0.626162
62094		9.465878	-2.400690	0.987409	0.026115	-0.015870	-0.006806	-0.536865	0.481445	0.202637	0.395970	-0.639209	-0.206852	-0.625965
62095		9.509023	-2.315173	0.995843	-0.008926	-0.012151	-0.009438	-0.540283	0.486328	0.195068	0.395802	-0.639366	-0.206870	-0.625905
62096		9.501556	-2.406049	0.929750	-0.025809	-0.006453	-0.008376	-0.537109	0.492188	0.192383	0.395531	-0.639559	-0.206732	-0.625925
62097		9.418958	-2.467063	0.858419	-0.009921	-0.013171	-0.002256	-0.541992	0.484131	0.203613	0.395427	-0.639739	-0.206705	-0.625815
62098		9.411903	-2.499758	0.877658	-0.004071	-0.015663	-0.006387	-0.536133	0.486816	0.197266	0.395312	-0.639907	-0.206755	-0.625699
62099		9.438635	-2.434815	0.950305	0.021349	-0.018031	-0.004642	-0.537598	0.484619	0.192383	0.395420	-0.639968	-0.207010	-0.625484
62100		9.489338	-2.309268	0.958150	0.001373	-0.014139	-0.005281	-0.530518	0.494873	0.202148	0.395373	-0.640092	-0.207103	-0.625356
62101		9.423293	-2.594522	0.961234	-0.017582	-0.012817	-0.012366	-0.538574	0.489502	0.202881	0.395131	-0.640290	-0.207077	-0.625316
62102		9.410125	-2.582019	0.866144	-0.006833	-0.019381	-0.017806	-0.538330	0.492432	0.196777	0.394903	-0.640470	-0.207215	-0.625230
62103		9.437593	-2.346126	0.859704	0.014474	-0.023641	-0.017101	-0.534424	0.482422	0.200195	0.394849	-0.640575	-0.207546	-0.625047
62104		9.481067	-2.289508	0.871538	-0.001412	-0.019090	-0.011982	-0.533203	0.485352	0.206787	0.394709	-0.640740	-0.207681	-0.624921
62105		9.479759	-2.321403	0.903237	-0.006408	-0.014154	-0.010448	-0.541016	0.488525	0.197510	0.394553	-0.640900	-0.207730	-0.624839
62106		9.508628	-2.418257	0.926398	-0.019089	-0.007434	-0.008555	-0.545654	0.484863	0.200684	0.394333	-0.641065	-0.207654	-0.624833
62107		9.433759	-2.596528	0.859748	-0.000514	-0.008826	-0.012500	-0.535645	0.473633	0.208008	0.394218	-0.641140	-0.207759	-0.624794
62108		9.404191	-2.610389	0.808518	0.008319	-0.017008	-0.021139	-0.534912	0.486328	0.205811	0.394072	-0.641223	-0.208021	-0.624714
62109		9.428353	-2.414251	0.891415	0.019778	-0.020301	-0.022264	-0.540039	0.482422	0.200684	0.394020	-0.641270	-0.208402	-0.624571
62110		9.490129	-2.286148	0.924188	-0.000226	-0.014648	-0.023229	-0.545654	0.494141	0.204834	0.393812	-0.641362	-0.208621	-0.624535
62111		9.490901	-2.303018	0.852393	-0.000607	-0.013047	-0.015286	-0.530762	0.487549	0.203125	0.393672	-0.641466	-0.208761	-0.624470
62112		9.499108	-2.372033	0.796323	-0.011833	-0.011792	-0.010453	-0.538574	0.485352	0.204834	0.393491	-0.641631	-0.208764	-0.624414
62113		9.465086	-2.479684	0.845400	-0.002917	-0.004965	-0.012587	-0.545654	0.484375	0.206787	0.393371	-0.641691	-0.208822	-0.624407
62114		9.468923	-2.451061	0.881952	0.002353	-0.006781	-0.014098	-0.536133	0.483154	0.201416	0.393268	-0.641737	-0.208942	-0.624386
62115		9.476150	-2.397079	0.882359	0.002336	0.001332	-0.016149	-0.536133	0.480713	0.203857	0.393183	-0.641710	-0.209045	-0.624432
62116		9.461874	-2.413546	0.872598	-0.001481	0.001350	-0.019127	-0.543457	0.490723	0.206055	0.393038	-0.641698	-0.209136	-0.624506
62117		9.457371	-2.422232	0.814767	0.003584	0.003060	-0.020567	-0.541992	0.485596	0.211182	0.392932	-0.641642	-0.209270	-0.624584
62118		9.489968	-2.325057	0.824189	0.003397	0.004168	-0.017776	-0.538818	0.485352	0.200439	0.392838	-0.641593	-0.209360	-0.624663
62119		9.518872	-2.291142	0.853768	0.003160	0.008249	-0.013368	-0.541504	0.481689	0.203857	0.392804	-0.641514	-0.209418	-0.624747
62120		9.482588	-2.342949	0.852264	0.004299	0.007747	-0.005812	-0.542969	0.479004	0.199951	0.392824	-0.641456	-0.209420	-0.624793
62121		9.443517	-2.414045	0.835340	0.001271	0.006249	-0.005739	-0.543701	0.481201	0.199707	0.392815	-0.641421	-0.209414	-0.624837
62122		9.476927	-2.390211	0.854761	-0.000444	0.006790	-0.008321	-0.542725	0.481201	0.205811	0.392777	-0.641382	-0.209414	-0.624901
62123		9.490415	-2.408612	0.880022	0.001165	0.010763	-0.012940	-0.536621	0.480957	0.206299	0.392719	-0.641300	-0.209427	-0.625017
62124		9.442118	-2.387893	0.843850	0.011675	0.007088	-0.009265	-0.531006	0.488037	0.199707	0.392771	-0.641207	-0.209506	-0.625053
62125		9.469378	-2.338510	0.898620	0.013183	0.010689	-0.008962	-0.547607	0.483154	0.204102	0.392874	-0.641073	-0.209593	-0.625096
62126		9.458555	-2.378428	0.911089	-0.003912	0.014745	-0.010830	-0.545410	0.479736	0.209229	0.392801	-0.640988	-0.209536	-0.625249
62127		9.467807	-2.419573	0.878088	-0.003366	0.015884	-0.013809	-0.544678	0.477783	0.202637	0.392702	-0.640890	-0.209484	-0.625429
62128		9.472180	-2.407628	0.895357	0.003331	0.012225	-0.013109	-0.545654	0.478516	0.214844	0.392661	-0.640782	-0.209514	-0.625556
62129		9.473752	-2.390254	0.869468	0.015546	0.012287	-0.016605	-0.538574	0.476562	0.201904	0.392671	-0.640621	-0.209632	-0.625675
62130		9.446617	-2.364418	0.908067	0.018648	0.008404	-0.015567	-0.540527	0.489014	0.198730	0.392731	-0.640462	-0.209819	-0.625737
62131		9.466962	-2.287076	0.900549	0.022458	0.008399	-0.012576	-0.539307	0.479004	0.205811	0.392867	-0.640288	-0.210023	-0.625761
62132		9.478935	-2.302479	0.905886	0.016169	0.014000	-0.009357	-0.547852	0.481445	0.206787	0.392966	-0.640121	-0.210100	-0.625845
62133		9.462079	-2.399925	0.895561	0.009998	0.013651	-0.009376	-0.538086	0.484131	0.193359	0.393005	-0.639985	-0.210131	-0.625949
62134		9.487024	-2.436638	0.924003	0.015999	0.010027	-0.009580	-0.543213	0.481934	0.200928	0.393122	-0.639831	-0.210266	-0.625986
62135		9.489689	-2.384260	0.938004	0.017553	0.018205	-0.017261	-0.535645	0.484375	0.194092	0.393188	-0.639596	-0.210411	-0.626137
62136		9.475163	-2.400211	0.934153	0.032658	0.021830	-0.018577	-0.533203	0.487793	0.195312	0.393401	-0.639248	-0.210684	-0.626267
62137		9.431624	-2.317711	0.903383	0.025142	0.017326	-0.017349	-0.539551	0.479248	0.198975	0.393559	-0.638978	-0.210904	-0.626369
62138		9.470700	-2.336085	0.898746	0.027231	0.010048	-0.018992	-0.542236	0.478027	0.200439	0.393668	-0.638756	-0.211175	-0.626435
62139		9.489420	-2.308081	0.978016	0.024033	0.003340	-0.014465	-0.541992	0.486328	0.199951	0.393759	-0.638616	-0.211412	-0.626441
62140		9.484986	-2.310605	0.944779	0.012087	0.007596	-0.015690	-0.537842	0.488037	0.192871	0.393776	-0.638497	-0.211550	-0.626505
62141		9.469597	-2.355555	0.921282	0.015898	0.008217	-0.015036	-0.549072	0.479004	0.199463	0.393852	-0.638347	-0.211730	-0.626549
62142		9.474003	-2.328437	0.983556	0.013221	0.008344	-0.012832	-0.542725	0.488770	0.199951	0.393875	-0.638222	-0.211849	-0.626622
62143		9.436156	-2.323834	0.927310	0.011409	0.009124	-0.012853	-0.543945	0.484619	0.199707	0.393917	-0.638103	-0.211950	-0.626683
62144		9.472914	-2.273518	0.910516	0.008228	0.007546	-0.012000	-0.553223	0.481689	0.201660	0.393925	-0.638014	-0.212026	-0.626743
62145		9.507622	-2.177015	0.911654	0.003472	0.008027	-0.004128	-0.540283	0.479980	0.197266	0.393933	-0.637965	-0.211995	-0.626798
62146		9.503605	-2.163843	0.968437	-0.000555	0.011209	0.003711	-0.537842	0.474365	0.204834	0.394004	-0.637930	-0.211863	-0.626833
62147		9.460855	-2.358989	0.962176	-0.004126	0.012476	0.007765	-0.544678	0.485107	0.198975	0.394059	-0.637928	-0.211634	-0.626878
62148		9.424465	-2.452499	0.943932	0.001449	0.008702	0.003312	-0.549072	0.486084	0.204102	0.394136	-0.637903	-0.211531	-0.626890
62149		9.447793	-2.488847	0.948579	0.002626	0.000165	-0.006302	-0.555664	0.485840	0.199463	0.394109	-0.637920	-0.211540	-0.626886
62150		9.492488	-2.356274	0.990912	0.004316	0.002656	-0.008769	-0.547119	0.483643	0.197754	0.394080	-0.637892	-0.211589	-0.626916
62151		9.481861	-2.372717	0.972945	0.009449	0.002018	-0.014122	-0.543945	0.481934	0.196777	0.394062	-0.637831	-0.211725	-0.626945
62152		9.463167	-2.257036	0.921160	0.009628	0.003590	-0.011178	-0.543945	0.484863	0.200684	0.394076	-0.637764	-0.211831	-0.626969
62153		9.472443	-2.254071	0.926393	0.014532	0.001632	-0.004381	-0.545898	0.474854	0.197754	0.394175	-0.637713	-0.211917	-0.626928
62154		9.473835	-2.255744	0.949043	-0.001244	0.003413	0.000737	-0.540283	0.480713	0.197754	0.394174	-0.637734	-0.211838	-0.626934
62155		9.485409	-2.281772	0.928911	0.002881	0.003563	0.002142	-0.546631	0.486816	0.192627	0.394239	-0.637740	-0.211780	-0.626907
62156		9.460225	-2.317691	0.945033	-0.001001	0.001397	0.004413	-0.539307	0.485840	0.201904	0.394300	-0.637775	-0.211709	-0.626858
62157		9.487029	-2.346697	0.962481	0.004207	-0.001934	0.005878	-0.541260	0.489502	0.200928	0.394395	-0.637835	-0.211643	-0.626758
62158		9.460882	-2.403739	0.983972	-0.008015	-0.002924	0.003209	-0.537354	0.472900	0.188477	0.394376	-0.637954	-0.211514	-0.626693
62159		9.450141	-2.372598	0.952125	0.005015	-0.001603	0.001894	-0.542480	0.484375	0.198486	0.394448	-0.637971	-0.211532	-0.626624
62160		9.468002	-2.385737	0.914379	0.004480	-0.001514	0.000179	-0.540771	0.488525	0.196533	0.394499	-0.638003	-0.211527	-0.626561
62161		9.474295	-2.276936	0.924837	0.016294	-0.007613	0.002606	-0.538574	0.483887	0.200928	0.394665	-0.638028	-0.211634	-0.626395
62162		9.456795	-2.214178	0.949074	0.011308	-0.008124	0.011852	-0.537842	0.480469	0.203369	0.394844	-0.638116	-0.211610	-0.626201
62163		9.484384	-2.239306	0.912031	0.000745	-0.013576	0.017414	-0.537598	0.494873	0.199707	0.394954	-0.638318	-0.211474	-0.625971
62164		9.487557	-2.280303	0.884474	0.007964	-0.001657	0.023980	-0.533936	0.477783	0.198486	0.395250	-0.638401	-0.211307	-0.625757
62165		9.505274	-2.376106	1.006988	-0.000896	0.008942	0.023114	-0.543457	0.484863	0.198975	0.395458	-0.638442	-0.211019	-0.625680
62166		9.447803	-2.597319	1.011779	-0.018174	0.010464	0.012094	-0.538818	0.483643	0.197021	0.395445	-0.638522	-0.210684	-0.625720
62167		9.387363	-2.608360	0.932064	-0.001174	0.004345	0.000153	-0.537598	0.494385	0.200195	0.395467	-0.638533	-0.210611	-0.625719
62168		9.388984	-2.490299	0.953353	0.010829	-0.003177	-0.008625	-0.542236	0.481445	0.197998	0.395521	-0.638528	-0.210732	-0.625650
62169		9.471828	-2.326831	0.951998	0.008205	0.000894	-0.012073	-0.540527	0.484619	0.200928	0.395497	-0.638488	-0.210842	-0.625669
62170		9.481417	-2.330456	0.933692	0.011121	-0.001250	-0.010584	-0.542969	0.488525	0.198486	0.395509	-0.638461	-0.210963	-0.625648
62171		9.472701	-2.305933	0.902086	0.013777	0.001317	-0.007059	-0.535889	0.488770	0.204834	0.395587	-0.638404	-0.211077	-0.625618
62172		9.478824	-2.365776	0.927302	0.005128	0.003265	-0.004327	-0.548584	0.481201	0.198486	0.395625	-0.638399	-0.211062	-0.625604
62173		9.460661	-2.416766	0.933507	0.008607	0.007374	-0.009480	-0.541260	0.487549	0.195312	0.395626	-0.638311	-0.211124	-0.625672
62174		9.456926	-2.385411	0.939046	0.010482	0.007526	-0.010029	-0.541016	0.490479	0.195801	0.395679	-0.638208	-0.211217	-0.625712
62175		9.473128	-2.318411	0.914844	0.009050	-0.004190	-0.008269	-0.546875	0.475586	0.197021	0.395712	-0.638210	-0.211342	-0.625647
62176		9.478226	-2.279652	0.944782	-0.003064	0.003289	-0.005382	-0.538818	0.489746	0.196533	0.395630	-0.638222	-0.211298	-0.625702
62177		9.481512	-2.424130	0.921666	-0.011698	0.006447	-0.007346	-0.543945	0.481201	0.197510	0.395534	-0.638249	-0.211196	-0.625770
62178		9.472948	-2.423332	0.918640	-0.010996	0.007032	-0.008769	-0.547607	0.483398	0.198242	0.395395	-0.638263	-0.211101	-0.625875
62179		9.440126	-2.310274	0.946154	0.000307	0.003141	-0.006650	-0.542480	0.478271	0.197754	0.395350	-0.638257	-0.211096	-0.625911
62180		9.495760	-2.269867	0.934286	-0.003008	0.003613	-0.003617	-0.543701	0.485840	0.199951	0.395301	-0.638274	-0.211035	-0.625945
62181		9.463257	-2.410938	0.919189	-0.010259	0.015154	-0.004035	-0.536621	0.488525	0.194336	0.395236	-0.638239	-0.210860	-0.626081
62182		9.427231	-2.390718	0.878024	0.002823	0.012281	-0.002252	-0.544434	0.486572	0.199707	0.395322	-0.638158	-0.210812	-0.626125
62183		9.468185	-2.321653	0.942522	0.000979	0.010334	-0.001332	-0.544189	0.483398	0.194824	0.395356	-0.638112	-0.210729	-0.626179
62184		9.463147	-2.417323	1.000495	-0.015071	0.006596	-0.006071	-0.542236	0.492432	0.191650	0.395218	-0.638151	-0.210596	-0.626271
62185		9.426130	-2.394523	0.935435	0.002775	0.003529	-0.003719	-0.542725	0.486816	0.195312	0.395277	-0.638124	-0.210624	-0.626252
62186		9.459738	-2.334693	0.896836	-0.000663	0.007267	-0.003183	-0.537842	0.489990	0.196533	0.395292	-0.638095	-0.210578	-0.626287
62187		9.465611	-2.299306	0.950078	0.004350	0.005667	-0.001281	-0.542236	0.489746	0.200684	0.395379	-0.638065	-0.210559	-0.626269
62188		9.485472	-2.368111	0.969098	-0.018787	0.005394	0.001476	-0.536133	0.483154	0.192139	0.395279	-0.638167	-0.210321	-0.626309
62189		9.449272	-2.422997	0.965402	-0.007237	-0.000801	-0.001153	-0.543213	0.487061	0.200439	0.395247	-0.638236	-0.210256	-0.626280
62190		9.437814	-2.411976	0.939614	0.007919	-0.009769	0.000962	-0.540039	0.488281	0.192871	0.395305	-0.638321	-0.210306	-0.626140
62191		9.433772	-2.294617	0.945976	0.006922	-0.007762	0.003032	-0.545410	0.485840	0.189941	0.395408	-0.638383	-0.210359	-0.625994
62192		9.462856	-2.296837	0.903239	0.006612	-0.006386	0.008363	-0.536377	0.482178	0.199463	0.395537	-0.638439	-0.210373	-0.625851
62193		9.494922	-2.358029	0.938545	0.007669	-0.002651	0.012823	-0.541992	0.487061	0.188477	0.395703	-0.638504	-0.210286	-0.625709
62194		9.489887	-2.412845	0.960748	0.006985	0.007018	0.006929	-0.538330	0.494629	0.195557	0.395875	-0.638447	-0.210256	-0.625668
62195		9.440507	-2.471016	0.964114	0.014488	0.003107	0.006047	-0.538330	0.483154	0.209961	0.396111	-0.638400	-0.210289	-0.625555
62196		9.411757	-2.441813	0.926665	0.016210	0.003801	0.003953	-0.530762	0.481934	0.195557	0.396261	-0.638375	-0.210256	-0.625498
62197		9.449115	-2.389671	0.952718	0.009879	-0.002054	-0.000080	-0.539062	0.489014	0.192627	0.396363	-0.638385	-0.210299	-0.625408
62198		9.483425	-2.383570	0.947548	0.010423	0.002984	-0.002026	-0.537109	0.491699	0.191895	0.396481	-0.638332	-0.210366	-0.625365
62199		9.454416	-2.396423	0.944991	-0.000020	0.006919	-0.004032	-0.541016	0.486816	0.200439	0.396529	-0.638294	-0.210356	-0.625377
62200		9.462006	-2.392546	0.929383	0.000828	0.010875	-0.002882	-0.538574	0.487061	0.193359	0.396548	-0.638246	-0.210273	-0.625442
62201		9.468015	-2.364448	0.959666	0.002581	0.000736	-0.001972	-0.539795	0.485840	0.194092	0.396588	-0.638253	-0.210280	-0.625406
62202		9.457833	-2.363160	0.933901	0.001356	-0.002768	0.002791	-0.537354	0.491455	0.197266	0.396634	-0.638308	-0.210251	-0.625330
62203		9.472769	-2.350494	0.920592	-0.004304	-0.001429	0.004069	-0.540771	0.480469	0.199219	0.396674	-0.638392	-0.210159	-0.625251
62204		9.477795	-2.375464	0.961928	-0.010004	0.005618	0.006005	-0.541504	0.485596	0.200439	0.396634	-0.638461	-0.209937	-0.625281
62205		9.469658	-2.475857	0.954294	-0.005229	0.015067	0.001601	-0.534424	0.492432	0.196533	0.396642	-0.638421	-0.209746	-0.625381
62206		9.409925	-2.500986	0.927686	0.005874	0.011999	-0.001918	-0.541260	0.489014	0.194336	0.396765	-0.638333	-0.209720	-0.625401
62207		9.446579	-2.387344	0.943766	0.015185	0.002789	-0.001441	-0.539795	0.485596	0.193359	0.396911	-0.638262	-0.209811	-0.625349
62208		9.467647	-2.345899	0.961167	0.010033	0.001924	0.000159	-0.544434	0.490479	0.193115	0.397015	-0.638229	-0.209849	-0.625305
62209		9.472944	-2.361238	0.929119	-0.002125	0.001254	-0.000786	-0.540283	0.484131	0.187988	0.397022	-0.638253	-0.209816	-0.625287
62210		9.442500	-2.477456	0.949874	0.003762	-0.002703	0.003961	-0.537354	0.489990	0.196289	0.397097	-0.638283	-0.209822	-0.625207
62211		9.444687	-2.458907	0.965851	0.013310	0.007156	-0.002208	-0.540283	0.484619	0.203857	0.397243	-0.638194	-0.209874	-0.625188
62212		9.450772	-2.437736	0.974811	0.005190	0.012626	-0.005183	-0.536133	0.486816	0.188477	0.397256	-0.638117	-0.209803	-0.625282
62213		9.454900	-2.353425	0.950706	0.015510	0.007439	-0.004340	-0.536377	0.494629	0.211426	0.397411	-0.637991	-0.209918	-0.625273
62214		9.480366	-2.259253	0.947368	0.011321	0.002749	0.002223	-0.543213	0.486084	0.201172	0.397549	-0.638001	-0.209869	-0.625191
62215		9.474076	-2.391884	0.966288	-0.000890	0.002661	0.005588	-0.540039	0.489990	0.206543	0.397574	-0.638052	-0.209730	-0.625170
62216		9.461046	-2.491526	0.944720	0.003665	0.002682	0.002860	-0.539795	0.487793	0.194092	0.397629	-0.638088	-0.209629	-0.625132
62217		9.427539	-2.468925	0.967757	0.009371	0.004670	-0.001703	-0.534668	0.496094	0.194824	0.397722	-0.638034	-0.209660	-0.625118
62218		9.420696	-2.427529	0.952402	0.013373	0.008086	-0.002777	-0.540771	0.490234	0.191406	0.397903	-0.637934	-0.209729	-0.625082
62219		9.434288	-2.396111	0.965480	0.015278	0.001926	-0.001631	-0.536621	0.489014	0.202881	0.398051	-0.637864	-0.209837	-0.625023
62220		9.435691	-2.405237	0.965576	0.006126	0.002163	-0.000285	-0.540527	0.491211	0.190430	0.398112	-0.637878	-0.209796	-0.624983
62221		9.482192	-2.455418	0.945309	0.004392	-0.000044	-0.001929	-0.535889	0.493896	0.198486	0.398172	-0.637874	-0.209838	-0.624935
62222		9.461835	-2.436831	0.940321	0.008092	0.004450	-0.006099	-0.534912	0.493652	0.199219	0.398249	-0.637831	-0.209883	-0.624914
62223		9.459125	-2.408416	0.967087	0.007551	0.008449	-0.006792	-0.538330	0.489014	0.191895	0.398327	-0.637761	-0.209906	-0.624929
62224		9.439369	-2.338410	0.950692	0.008047	0.005642	-0.004121	-0.541748	0.488281	0.208496	0.398404	-0.637697	-0.209949	-0.624931
62225		9.451451	-2.386488	0.959671	0.002060	0.002336	0.000053	-0.538818	0.500732	0.193115	0.398399	-0.637744	-0.209841	-0.624922
62226		9.439028	-2.507758	0.966903	0.001118	0.003760	-0.002204	-0.540771	0.486328	0.200439	0.398489	-0.637732	-0.209849	-0.624875
62227		9.452566	-2.453317	0.950057	0.003875	0.000643	-0.005987	-0.542480	0.483154	0.201172	0.398459	-0.637746	-0.209848	-0.624879
62228		9.440507	-2.388200	0.988033	0.008666	-0.001342	-0.005029	-0.538086	0.485107	0.189209	0.398444	-0.637757	-0.209873	-0.624869
62229		9.449681	-2.385990	0.992386	0.003613	0.001444	-0.004977	-0.539307	0.487061	0.197021	0.398454	-0.637739	-0.209914	-0.624868
62230		9.449087	-2.412912	0.977281	0.000914	0.003971	-0.005512	-0.540039	0.487793	0.188232	0.398430	-0.637734	-0.209888	-0.624897
62231		9.457361	-2.438694	0.966986	0.000122	0.009373	-0.007542	-0.536621	0.489746	0.194580	0.398424	-0.637659	-0.209896	-0.624975
62232		9.439668	-2.431100	0.984076	0.000186	0.010302	-0.008122	-0.542725	0.489502	0.197510	0.398422	-0.637596	-0.209873	-0.625048
62233		9.455034	-2.415606	0.973897	0.004251	0.010133	-0.008452	-0.538086	0.487549	0.191406	0.398418	-0.637517	-0.209868	-0.625132
62234		9.441649	-2.436597	0.987766	-0.002088	0.007573	-0.009139	-0.541260	0.488770	0.188965	0.398374	-0.637475	-0.209861	-0.625206
62235		9.456519	-2.383090	0.993703	0.000644	0.007771	-0.009552	-0.536377	0.488037	0.200928	0.398354	-0.637406	-0.209895	-0.625278
62236		9.445395	-2.370006	0.970882	-0.004214	0.008823	-0.009929	-0.540527	0.482910	0.196045	0.398272	-0.637394	-0.209815	-0.625369
62237		9.459995	-2.382908	0.944183	-0.008969	0.010529	-0.006784	-0.543213	0.488037	0.194824	0.398153	-0.637384	-0.209680	-0.625501
62238		9.451958	-2.435440	0.976483	-0.002137	0.008767	-0.007158	-0.541016	0.489014	0.193604	0.398105	-0.637344	-0.209632	-0.625588
62239		9.442939	-2.485309	0.986485	-0.005909	0.004820	-0.011202	-0.536865	0.483154	0.192139	0.398003	-0.637341	-0.209617	-0.625661
62240		9.449843	-2.388735	0.952352	0.004249	0.004104	-0.010854	-0.539307	0.488037	0.191162	0.397970	-0.637295	-0.209675	-0.625709
62241		9.441800	-2.409724	0.977754	0.000166	0.002149	-0.011915	-0.536133	0.487549	0.197510	0.397915	-0.637274	-0.209739	-0.625743
62242		9.476165	-2.386641	1.017754	-0.000931	0.000507	-0.008326	-0.541748	0.487305	0.199951	0.397862	-0.637306	-0.209733	-0.625747
62243		9.448868	-2.385468	0.983612	-0.006261	-0.002552	-0.007346	-0.543213	0.487793	0.197021	0.397738	-0.637393	-0.209677	-0.625756
62244		9.467518	-2.397136	0.945630	0.003057	-0.001188	-0.005734	-0.532471	0.489502	0.187744	0.397712	-0.637416	-0.209695	-0.625743
62245		9.464093	-2.396917	0.954765	0.004268	0.001710	-0.008142	-0.545654	0.493896	0.198975	0.397767	-0.637381	-0.209795	-0.625710
62246		9.450613	-2.410690	0.989698	0.005375	0.000352	-0.006682	-0.540283	0.491211	0.193848	0.397776	-0.637379	-0.209838	-0.625692
62247		9.437061	-2.343528	1.005571	0.002929	-0.003047	-0.004571	-0.546387	0.483643	0.203369	0.397796	-0.637410	-0.209887	-0.625631
62248		9.439496	-2.390140	0.987159	-0.003854	-0.000964	-0.002437	-0.540527	0.490234	0.193115	0.397683	-0.637495	-0.209769	-0.625656
62249		9.454504	-2.434669	0.964332	-0.002756	0.002196	-0.002293	-0.531738	0.491211	0.199707	0.397685	-0.637516	-0.209733	-0.625645
62250		9.462239	-2.430903	0.947863	-0.000548	0.009119	-0.004343	-0.533691	0.483154	0.190674	0.397722	-0.637498	-0.209655	-0.625667
62251		9.461404	-2.369117	0.937525	-0.000767	0.002090	-0.005385	-0.534668	0.491943	0.193359	0.397707	-0.637503	-0.209653	-0.625671
62252		9.433400	-2.434987	0.968302	0.004684	0.001890	-0.003871	-0.538086	0.490234	0.203613	0.397787	-0.637491	-0.209694	-0.625619
62253		9.413225	-2.423960	0.940667	0.006044	0.004250	-0.004733	-0.539551	0.488281	0.198975	0.397819	-0.637485	-0.209668	-0.625614
62254		9.451533	-2.430739	0.978399	0.011518	0.000137	-0.004241	-0.530518	0.490234	0.195801	0.397885	-0.637468	-0.209725	-0.625570
62255		9.453973	-2.410588	0.994021	0.001813	0.002828	-0.007340	-0.543457	0.488281	0.194824	0.397913	-0.637468	-0.209743	-0.625546
62256		9.463073	-2.451046	0.937670	0.008925	0.002396	-0.007327	-0.537842	0.489258	0.192139	0.397939	-0.637421	-0.209818	-0.625553
62257		9.452753	-2.424972	0.980915	-0.002505	0.002872	-0.012073	-0.536865	0.485352	0.193604	0.397874	-0.637410	-0.209860	-0.625590
62258		9.446396	-2.381765	0.963574	0.011088	-0.002161	-0.009892	-0.544189	0.486572	0.191406	0.397897	-0.637385	-0.209994	-0.625556
62259		9.446407	-2.349124	0.958071	0.002554	0.001618	-0.008387	-0.537842	0.484131	0.195068	0.397860	-0.637362	-0.210048	-0.625586
62260		9.464457	-2.403872	0.956636	0.005436	0.001284	-0.007252	-0.540283	0.490723	0.188477	0.397852	-0.637350	-0.210085	-0.625590
62261		9.448869	-2.378059	0.986951	0.006556	0.002050	-0.004403	-0.532715	0.487549	0.194336	0.397933	-0.637305	-0.210171	-0.625556
62262		9.469763	-2.394095	0.993720	0.000628	0.002653	-0.005877	-0.539795	0.489014	0.194824	0.397946	-0.637311	-0.210171	-0.625542
62263		9.431024	-2.405677	0.964290	0.004342	-0.000357	-0.003667	-0.535400	0.486084	0.196777	0.397977	-0.637321	-0.210198	-0.625502
62264		9.455296	-2.389820	0.955627	-0.002808	0.000343	-0.007777	-0.535889	0.483154	0.195801	0.397911	-0.637364	-0.210175	-0.625508
62265		9.469160	-2.380609	0.995833	0.005233	0.004535	-0.003097	-0.536133	0.490479	0.197754	0.397940	-0.637344	-0.210152	-0.625517
62266		9.433776	-2.441980	0.971159	-0.003843	0.006270	-0.004700	-0.542480	0.488037	0.193115	0.397930	-0.637354	-0.210077	-0.625539
62267		9.444157	-2.426333	0.946178	0.005362	-0.001765	-0.008057	-0.534668	0.488770	0.197998	0.397919	-0.637351	-0.210161	-0.625520
62268		9.470926	-2.355687	0.990742	0.002203	-0.001234	-0.005848	-0.547119	0.480957	0.193848	0.397923	-0.637390	-0.210173	-0.625475
62269		9.465700	-2.381721	0.962191	0.000199	0.001869	-0.007801	-0.542969	0.484375	0.196777	0.397814	-0.637386	-0.210164	-0.625551
62270		9.431814	-2.444419	0.958515	0.000311	0.003126	-0.006624	-0.538574	0.489014	0.192627	0.397749	-0.637388	-0.210134	-0.625600
62271		9.448995	-2.403082	0.983928	-0.004824	0.002842	-0.007392	-0.538818	0.490234	0.188721	0.397702	-0.637402	-0.210121	-0.625620
62272		9.489761	-2.398231	1.013646	-0.000687	0.005738	-0.006905	-0.541016	0.486328	0.192139	0.397722	-0.637359	-0.210154	-0.625641
62273		9.444781	-2.398737	0.972599	-0.003325	0.001025	-0.011821	-0.545166	0.483154	0.197998	0.397622	-0.637365	-0.210189	-0.625686
62274		9.447282	-2.413267	0.948390	0.006036	-0.006021	-0.009908	-0.536621	0.479980	0.192383	0.397532	-0.637405	-0.210261	-0.625679
62275		9.460785	-2.314372	0.991337	0.004282	-0.002802	-0.006806	-0.538818	0.489990	0.195068	0.397499	-0.637424	-0.210312	-0.625663
62276		9.460889	-2.364072	1.003864	-0.004899	0.001309	-0.004474	-0.547607	0.487549	0.195557	0.397470	-0.637466	-0.210271	-0.625652
62277		9.462649	-2.416118	0.941615	-0.002393	0.000523	-0.003511	-0.535645	0.484131	0.194824	0.397411	-0.637498	-0.210230	-0.625671
62278		9.464977	-2.396312	0.956549	0.003976	-0.000206	-0.006167	-0.547607	0.481445	0.194580	0.397411	-0.637508	-0.210261	-0.625650
62279		9.454979	-2.386225	0.953725	0.001143	0.000451	-0.005545	-0.544922	0.482422	0.188721	0.397327	-0.637517	-0.210248	-0.625699
62280		9.447772	-2.446382	0.961353	0.006309	-0.003177	-0.005798	-0.540527	0.491211	0.192627	0.397319	-0.637506	-0.210348	-0.625682
62281		9.437986	-2.435792	0.957773	0.002785	-0.004024	-0.009818	-0.541992	0.484863	0.198730	0.397311	-0.637524	-0.210462	-0.625630
62282		9.452632	-2.382068	0.961997	0.011371	0.001302	-0.008097	-0.541260	0.484619	0.200684	0.397319	-0.637489	-0.210527	-0.625638
62283		9.487102	-2.366288	0.979344	-0.000405	-0.001102	-0.010312	-0.538330	0.481201	0.195801	0.397202	-0.637535	-0.210513	-0.625670
62284		9.448239	-2.405095	0.933607	0.001580	0.000316	-0.009672	-0.538818	0.497559	0.200928	0.397125	-0.637546	-0.210532	-0.625702
62285		9.450050	-2.404685	0.955358	0.004994	-0.001612	-0.010546	-0.547852	0.486572	0.191406	0.397145	-0.637566	-0.210613	-0.625642
62286		9.441453	-2.395722	0.974394	0.002606	0.002551	-0.008948	-0.543701	0.490479	0.193604	0.397105	-0.637525	-0.210677	-0.625688
62287		9.452516	-2.350821	0.965249	0.000630	0.001733	-0.011918	-0.540039	0.482910	0.207031	0.397059	-0.637504	-0.210752	-0.625713
62288		9.448402	-2.355474	0.929704	0.000920	-0.002063	-0.007888	-0.540771	0.485596	0.194336	0.396935	-0.637585	-0.210677	-0.625734
62289		9.464295	-2.362743	0.945196	0.003966	-0.002325	-0.007545	-0.543457	0.487061	0.195557	0.396917	-0.637599	-0.210743	-0.625709
62290		9.484837	-2.312445	0.983811	0.002526	0.000420	-0.003701	-0.541504	0.483398	0.203369	0.396917	-0.637610	-0.210747	-0.625697
62291		9.466744	-2.341975	0.960731	-0.000823	0.005397	-0.002021	-0.546387	0.482910	0.194824	0.396861	-0.637639	-0.210607	-0.625749
62292		9.437996	-2.449648	0.909629	-0.004383	0.008461	-0.005020	-0.541016	0.490234	0.192871	0.396782	-0.637613	-0.210520	-0.625856
62293		9.473428	-2.400962	0.988275	0.002072	0.004153	-0.006935	-0.546387	0.484863	0.202637	0.396809	-0.637578	-0.210564	-0.625859
62294		9.465350	-2.372012	1.001174	-0.002789	0.005180	-0.007321	-0.532959	0.482422	0.193359	0.396686	-0.637597	-0.210460	-0.625953
62295		9.444077	-2.358757	0.951478	-0.005476	0.003174	-0.006547	-0.539307	0.486328	0.201172	0.396637	-0.637622	-0.210419	-0.625972
62296		9.460385	-2.381796	0.922580	-0.001147	0.003748	-0.004153	-0.539062	0.489746	0.201416	0.396597	-0.637653	-0.210331	-0.625996
62297		9.482591	-2.399724	0.950848	0.000132	0.000940	-0.007205	-0.539551	0.489746	0.196289	0.396557	-0.637692	-0.210301	-0.625991
62298		9.452647	-2.366906	0.986521	0.007234	-0.000066	-0.004851	-0.544434	0.477539	0.193115	0.396617	-0.637686	-0.210360	-0.625939
62299		9.444784	-2.432454	0.950446	0.002278	0.002425	-0.007356	-0.542236	0.494629	0.202637	0.396544	-0.637663	-0.210375	-0.626005
62300		9.470617	-2.389866	0.979926	0.010607	-0.000195	-0.006087	-0.534668	0.477539	0.197998	0.396603	-0.637663	-0.210426	-0.625950
62301		9.448366	-2.389354	0.959469	-0.001571	0.001441	-0.009790	-0.540771	0.486084	0.195312	0.396492	-0.637692	-0.210393	-0.626001
62302		9.453163	-2.357344	0.966615	0.006758	-0.001178	-0.008521	-0.539795	0.492676	0.198242	0.396495	-0.637683	-0.210480	-0.625979
62303		9.468277	-2.334232	0.976550	0.004182	-0.001928	-0.006575	-0.544922	0.487793	0.194580	0.396518	-0.637711	-0.210527	-0.625920
62304		9.452378	-2.380426	0.928930	0.002947	-0.000914	-0.003159	-0.540527	0.492432	0.188721	0.396531	-0.637725	-0.210551	-0.625890
62305		9.460765	-2.398867	0.939978	0.004512	0.000323	-0.006771	-0.538086	0.490967	0.199463	0.396612	-0.637689	-0.210680	-0.625833
62306		9.488381	-2.373569	0.945984	0.003511	0.005054	-0.005670	-0.540039	0.490479	0.193115	0.396647	-0.637675	-0.210668	-0.625828
62307		9.453715	-2.398417	0.960303	0.003320	0.007986	-0.009904	-0.539062	0.486572	0.196533	0.396679	-0.637597	-0.210728	-0.625867
62308		9.448613	-2.337472	0.958948	0.006123	0.003412	-0.004915	-0.536133	0.483398	0.194824	0.396720	-0.637573	-0.210749	-0.625858
62309		9.469924	-2.361034	0.943588	0.001849	0.005283	-0.004174	-0.537109	0.489990	0.196289	0.396739	-0.637555	-0.210725	-0.625873
62310		9.458127	-2.392771	0.956110	-0.005776	0.010605	-0.005472	-0.531250	0.486572	0.194824	0.396732	-0.637532	-0.210636	-0.625931
62311		9.458424	-2.442096	0.970633	-0.001931	0.005826	-0.009515	-0.536377	0.492920	0.191162	0.396723	-0.637519	-0.210637	-0.625950
62312		9.445726	-2.383850	0.986691	0.005978	0.004551	-0.008777	-0.543701	0.476807	0.197510	0.396820	-0.637454	-0.210754	-0.625915
62313		9.476055	-2.354619	0.962361	0.006975	0.001342	-0.006164	-0.535400	0.488525	0.197998	0.396757	-0.637443	-0.210749	-0.625968
62314		9.457325	-2.396106	0.968671	0.005483	0.000112	-0.009173	-0.541504	0.489258	0.190918	0.396774	-0.637447	-0.210811	-0.625932
62315		9.476890	-2.299609	0.950276	0.005099	-0.000946	-0.007014	-0.542480	0.483887	0.197754	0.396816	-0.637429	-0.210918	-0.625887
62316		9.490375	-2.354186	0.936004	-0.008044	0.005131	-0.005549	-0.551270	0.495605	0.192627	0.396704	-0.637464	-0.210800	-0.625962
62317		9.473865	-2.321629	0.989181	-0.003986	0.006515	-0.002152	-0.545898	0.493652	0.192871	0.396725	-0.637438	-0.210767	-0.625986
62318		9.468895	-2.356488	0.939545	-0.006273	0.010408	-0.003099	-0.533447	0.489990	0.195557	0.396741	-0.637399	-0.210697	-0.626040
62319		9.444251	-2.391699	0.956559	-0.000421	0.003459	0.000848	-0.536865	0.496094	0.188965	0.396834	-0.637423	-0.210649	-0.625972
62320		9.472944	-2.377618	0.961616	0.004124	0.002914	0.000493	-0.541504	0.477295	0.190430	0.397018	-0.637393	-0.210720	-0.625863
62321		9.441813	-2.402671	0.966240	-0.000249	0.004124	-0.002269	-0.533447	0.481201	0.193848	0.396973	-0.637381	-0.210664	-0.625922
62322		9.473001	-2.376727	0.963248	0.007601	-0.000198	-0.002335	-0.539307	0.489990	0.195312	0.397034	-0.637384	-0.210694	-0.625870
62323		9.470348	-2.379835	0.994332	0.011388	-0.000137	0.000682	-0.537842	0.482666	0.190430	0.397182	-0.637369	-0.210755	-0.625771
62324		9.438807	-2.382253	0.970155	0.010110	0.001149	0.000017	-0.537842	0.484863	0.196533	0.397288	-0.637336	-0.210806	-0.625720
62325		9.416683	-2.441803	0.940663	0.003931	0.005844	-0.003738	-0.536865	0.490967	0.192139	0.397315	-0.637311	-0.210777	-0.625738
62326		9.458052	-2.337178	0.967273	0.013655	0.003812	-0.002944	-0.535400	0.485596	0.187988	0.397495	-0.637234	-0.210894	-0.625663
62327		9.500186	-2.263247	0.999249	0.009676	-0.000237	0.000428	-0.541748	0.492432	0.188477	0.397638	-0.637207	-0.210977	-0.625572
62328		9.455383	-2.376030	0.961448	-0.004102	0.006778	0.000382	-0.541016	0.483643	0.193604	0.397712	-0.637183	-0.210943	-0.625561
62329		9.434203	-2.438429	0.953627	-0.001863	0.004680	0.000968	-0.539795	0.503662	0.194092	0.397707	-0.637196	-0.210843	-0.625584
62330		9.459975	-2.325832	0.963574	-0.004583	0.005062	-0.000959	-0.543213	0.490479	0.194824	0.397841	-0.637200	-0.210847	-0.625494
62331		9.446136	-2.392291	1.012028	0.001567	0.005484	-0.000838	-0.553711	0.482666	0.189209	0.397894	-0.637181	-0.210812	-0.625491
62332		9.456444	-2.400815	1.015998	-0.006889	0.003508	-0.000023	-0.537109	0.487305	0.188477	0.397777	-0.637197	-0.210690	-0.625590
62333		9.478500	-2.440508	0.955123	0.004460	0.005767	-0.002025	-0.543213	0.486816	0.198730	0.397874	-0.637141	-0.210722	-0.625575
62334		9.445041	-2.425234	0.955345	0.004729	0.004966	-0.003026	-0.540039	0.485840	0.192871	0.397882	-0.637125	-0.210679	-0.625600
62335		9.436625	-2.396981	0.968274	0.004729	0.002843	-0.004409	-0.548828	0.492920	0.199951	0.397907	-0.637102	-0.210698	-0.625602
62336		9.458653	-2.378831	1.035140	0.002645	0.000158	-0.006224	-0.541748	0.482422	0.194824	0.397879	-0.637120	-0.210706	-0.625599
62337		9.459752	-2.341969	0.976525	-0.000479	-0.003841	-0.002726	-0.538086	0.488525	0.191895	0.397811	-0.637189	-0.210667	-0.625585
62338		9.442215	-2.407526	0.913709	-0.003621	-0.000000	-0.003808	-0.537109	0.488037	0.191895	0.397804	-0.637226	-0.210658	-0.625554
62339		9.451231	-2.420619	0.969123	0.000875	0.001250	-0.004523	-0.537842	0.480957	0.192871	0.397832	-0.637230	-0.210683	-0.625523
62340		9.456295	-2.305130	1.024045	-0.001692	0.005343	-0.002147	-0.537598	0.487793	0.194580	0.397798	-0.637232	-0.210597	-0.625572
62341		9.464169	-2.416646	0.965448	-0.010194	0.000910	-0.004467	-0.529053	0.485107	0.199707	0.397721	-0.637305	-0.210514	-0.625575
62342		9.434248	-2.456407	0.923260	-0.001382	-0.002098	-0.003222	-0.539795	0.480469	0.198486	0.397715	-0.637392	-0.210464	-0.625507
62343		9.453460	-2.376161	0.955167	-0.001006	-0.003763	-0.004434	-0.541992	0.475098	0.192139	0.397607	-0.637476	-0.210400	-0.625512
62344		9.483387	-2.327226	1.019391	-0.003191	0.003511	-0.002829	-0.539795	0.490723	0.196777	0.397486	-0.637493	-0.210288	-0.625609
62345		9.456615	-2.422411	0.937841	-0.007420	0.003582	-0.001731	-0.546875	0.491699	0.196533	0.397464	-0.637541	-0.210191	-0.625607
62346		9.460144	-2.397728	0.900844	0.006641	0.000620	-0.002244	-0.546631	0.485840	0.189697	0.397516	-0.637531	-0.210221	-0.625574
62347		9.435963	-2.419476	0.983321	0.007585	-0.005640	-0.000441	-0.535889	0.487793	0.194092	0.397558	-0.637546	-0.210297	-0.625506
62348		9.464550	-2.318056	1.012362	-0.005716	-0.001162	-0.001912	-0.542969	0.494629	0.195801	0.397544	-0.637617	-0.210249	-0.625459
62349		9.438227	-2.436070	0.958878	0.000970	0.001910	-0.001024	-0.539551	0.485840	0.202148	0.397611	-0.637627	-0.210247	-0.625407
62350		9.430445	-2.466703	0.960755	0.000762	-0.002730	-0.004750	-0.541992	0.488525	0.200928	0.397546	-0.637702	-0.210199	-0.625388
62351		9.443926	-2.355350	0.973246	-0.007047	-0.007178	-0.006150	-0.540527	0.490234	0.193848	0.397412	-0.637836	-0.210146	-0.625354
62352		9.433009	-2.358567	0.996818	-0.018759	-0.011427	-0.008024	-0.540283	0.486572	0.196533	0.397218	-0.638026	-0.210108	-0.625296
62353		9.444118	-2.402408	0.957957	-0.017446	-0.008736	-0.000514	-0.536865	0.489014	0.197998	0.397060	-0.638220	-0.209969	-0.625245
62354		9.496867	-2.437555	0.896752	-0.005406	-0.006480	-0.001601	-0.541992	0.479980	0.198975	0.397028	-0.638340	-0.209932	-0.625155
62355		9.472731	-2.393113	0.913923	-0.006833	-0.001935	-0.004743	-0.543945	0.492432	0.203857	0.396865	-0.638429	-0.209821	-0.625205
62356		9.440891	-2.445830	0.997725	-0.013939	0.001174	-0.005715	-0.531494	0.483154	0.195801	0.396718	-0.638535	-0.209676	-0.625240
62357		9.419598	-2.396912	0.985373	-0.013548	0.002836	-0.010191	-0.541748	0.491943	0.196045	0.396571	-0.638598	-0.209596	-0.625295
62358		9.463605	-2.380011	0.909421	-0.009172	-0.000493	-0.008816	-0.546143	0.484131	0.197266	0.396483	-0.638651	-0.209590	-0.625298
62359		9.472900	-2.377432	0.912662	-0.004853	-0.002630	-0.005482	-0.547119	0.497070	0.204102	0.396359	-0.638715	-0.209544	-0.625327
62360		9.471505	-2.410058	0.948287	-0.000787	-0.002762	-0.005797	-0.541992	0.489746	0.198242	0.396333	-0.638777	-0.209549	-0.625279
62361		9.476057	-2.378633	0.954590	-0.006500	-0.001201	-0.008638	-0.539062	0.485596	0.191406	0.396239	-0.638832	-0.209540	-0.625285
62362		9.447656	-2.419221	0.933654	-0.004950	-0.003283	-0.008975	-0.536377	0.487549	0.199951	0.396165	-0.638872	-0.209595	-0.625273
62363		9.447456	-2.422865	0.888950	0.004888	0.000801	-0.006581	-0.531738	0.486328	0.196777	0.396189	-0.638874	-0.209634	-0.625242
62364		9.469693	-2.404077	0.955947	0.006451	0.002046	-0.010180	-0.537354	0.489502	0.199463	0.396228	-0.638842	-0.209734	-0.625216
62365		9.442615	-2.402640	0.922969	0.002066	0.002649	-0.010610	-0.540771	0.486084	0.194824	0.396217	-0.638829	-0.209788	-0.625219
62366		9.452003	-2.399128	0.927704	-0.001627	0.003237	-0.010123	-0.544678	0.489502	0.199707	0.396158	-0.638811	-0.209819	-0.625265
62367		9.475694	-2.402644	0.926211	0.007516	-0.002352	-0.009532	-0.541016	0.483154	0.199463	0.396149	-0.638806	-0.209920	-0.625241
62368		9.449566	-2.367352	0.952910	-0.004187	0.003681	-0.012829	-0.545166	0.489502	0.192627	0.396004	-0.638811	-0.209897	-0.625336
62369		9.447021	-2.452822	0.936725	-0.003440	0.004599	-0.012486	-0.537842	0.489014	0.203857	0.395936	-0.638768	-0.209959	-0.625402
62370		9.428660	-2.413780	0.946579	0.008335	0.003431	-0.015343	-0.538818	0.484863	0.210205	0.395919	-0.638723	-0.210063	-0.625424
62371		9.470945	-2.420740	0.930894	-0.005449	0.001926	-0.020892	-0.539795	0.491699	0.201904	0.395676	-0.638773	-0.210035	-0.625536
62372		9.453470	-2.360069	0.932945	0.007692	-0.001072	-0.014952	-0.534424	0.487549	0.206299	0.395670	-0.638755	-0.210183	-0.625508
62373		9.467806	-2.304572	0.937236	-0.005247	0.001714	-0.017607	-0.543213	0.482666	0.205078	0.395522	-0.638799	-0.210188	-0.625555
62374		9.471370	-2.340717	0.942239	-0.010230	0.002976	-0.015461	-0.534668	0.490234	0.197266	0.395279	-0.638852	-0.210105	-0.625682
62375		9.478037	-2.353044	0.910668	-0.005377	0.008944	-0.013241	-0.537842	0.486328	0.201172	0.395249	-0.638812	-0.210126	-0.625736
62376		9.467498	-2.362571	0.916285	-0.009023	0.009852	-0.011010	-0.546143	0.485596	0.197021	0.395147	-0.638803	-0.210043	-0.625837
62377		9.458073	-2.374314	0.943417	-0.007305	0.007840	-0.012132	-0.546387	0.481689	0.202881	0.395019	-0.638773	-0.210009	-0.625960
62378		9.460844	-2.360361	0.936973	-0.006661	0.007502	-0.012957	-0.538086	0.479980	0.196533	0.394832	-0.638766	-0.209924	-0.626113
62379		9.452582	-2.358995	0.933463	-0.003396	-0.000523	-0.008850	-0.544922	0.491455	0.199951	0.394739	-0.638801	-0.209924	-0.626135
62380		9.469632	-2.352676	0.919684	-0.002970	0.000867	-0.009252	-0.540283	0.482666	0.204346	0.394695	-0.638821	-0.209950	-0.626135
62381		9.490488	-2.388450	0.932662	-0.007792	0.002189	-0.007896	-0.544189	0.489502	0.196533	0.394559	-0.638886	-0.209849	-0.626188
62382		9.452950	-2.394480	0.947377	-0.005167	0.003889	-0.010398	-0.539307	0.490723	0.193604	0.394503	-0.638877	-0.209871	-0.626225
62383		9.454621	-2.378638	0.918482	-0.006018	0.004440	-0.012841	-0.541016	0.485352	0.202881	0.394469	-0.638854	-0.209940	-0.626247
62384		9.451982	-2.356518	0.921251	-0.005483	0.004967	-0.013454	-0.541504	0.482910	0.199219	0.394346	-0.638861	-0.209916	-0.626325
62385		9.456560	-2.367125	0.964633	-0.006769	0.006248	-0.014111	-0.544922	0.485352	0.199707	0.394206	-0.638849	-0.209896	-0.626432
62386		9.479141	-2.324389	0.906897	-0.010418	0.007150	-0.011880	-0.538818	0.480957	0.203125	0.394061	-0.638851	-0.209831	-0.626544
62387		9.491748	-2.311903	0.925589	-0.004529	0.002947	-0.008902	-0.540283	0.487061	0.206299	0.393956	-0.638887	-0.209770	-0.626593
62388		9.469579	-2.355410	0.940789	-0.009150	0.007383	-0.007519	-0.535400	0.484131	0.204590	0.393866	-0.638921	-0.209650	-0.626654
62389		9.457612	-2.307579	0.956256	-0.001399	0.008811	-0.006933	-0.546875	0.485352	0.201172	0.393855	-0.638908	-0.209584	-0.626697
62390		9.461755	-2.360886	0.917554	-0.001934	0.008285	-0.006317	-0.544434	0.478516	0.208984	0.393814	-0.638876	-0.209527	-0.626775
62391		9.458531	-2.340437	0.921682	0.006940	0.008367	-0.004286	-0.543701	0.480469	0.197998	0.393784	-0.638843	-0.209434	-0.626858
62392		9.450954	-2.370765	0.925465	0.012784	0.003841	-0.003051	-0.544922	0.478516	0.203125	0.393866	-0.638776	-0.209490	-0.626857
62393		9.481418	-2.379954	0.981406	0.008408	0.002308	-0.004865	-0.541748	0.486328	0.197021	0.393850	-0.638758	-0.209483	-0.626887
62394		9.459678	-2.359425	0.954154	0.002433	-0.000201	-0.007151	-0.536621	0.481934	0.196777	0.393862	-0.638759	-0.209548	-0.626856
62395		9.482199	-2.361412	0.930343	-0.001836	-0.003206	-0.006866	-0.544678	0.482422	0.195801	0.393827	-0.638812	-0.209578	-0.626814
62396		9.475912	-2.321687	0.933651	0.001794	-0.002590	-0.005393	-0.546143	0.481934	0.192383	0.393806	-0.638832	-0.209623	-0.626792
62397		9.495803	-2.279162	0.950230	0.002179	0.005160	-0.001644	-0.539795	0.477295	0.197510	0.393844	-0.638784	-0.209625	-0.626817
62398		9.473825	-2.331571	0.943728	-0.000409	0.009839	-0.001577	-0.540283	0.485352	0.203857	0.393843	-0.638743	-0.209527	-0.626892
62399		9.471605	-2.370651	0.937806	0.000506	0.008100	-0.001089	-0.545410	0.483398	0.198242	0.393877	-0.638735	-0.209433	-0.626911
62400		9.458293	-2.365363	0.966993	-0.001995	0.006744	-0.003431	-0.538086	0.488525	0.195801	0.393857	-0.638715	-0.209370	-0.626964
62401		9.459451	-2.351447	0.938542	-0.001020	0.003210	-0.002586	-0.544189	0.478516	0.200439	0.393927	-0.638716	-0.209381	-0.626916
62402		9.480988	-2.347159	0.938383	-0.000752	0.001807	-0.001272	-0.541016	0.488037	0.196533	0.393877	-0.638748	-0.209293	-0.626944
62403		9.456257	-2.375197	0.976655	-0.002514	0.000764	-0.000959	-0.546143	0.481934	0.207520	0.393920	-0.638779	-0.209279	-0.626890
62404		9.453724	-2.391310	0.940032	-0.003252	0.000451	-0.003615	-0.549072	0.484863	0.194092	0.393812	-0.638852	-0.209159	-0.626923
62405		9.465432	-2.357289	0.929691	-0.001758	0.002897	-0.005241	-0.537109	0.486328	0.204102	0.393784	-0.638833	-0.209167	-0.626958
62406		9.467805	-2.345052	0.922599	-0.000323	0.003805	-0.003983	-0.541992	0.481934	0.189941	0.393797	-0.638858	-0.209119	-0.626940
62407		9.476155	-2.335489	0.950192	-0.002033	0.003693	-0.004241	-0.537598	0.484863	0.201416	0.393807	-0.638829	-0.209140	-0.626956
62408		9.476850	-2.342158	0.928705	-0.006125	0.008652	-0.003475	-0.549316	0.483887	0.198975	0.393792	-0.638835	-0.209032	-0.626996
62409		9.474065	-2.345255	0.960568	-0.002955	0.004826	-0.002415	-0.542725	0.482666	0.195557	0.393748	-0.638835	-0.208955	-0.627049
62410		9.482913	-2.343585	0.965533	0.002028	0.002975	-0.002237	-0.546143	0.487305	0.200684	0.393780	-0.638819	-0.208954	-0.627045
62411		9.421832	-2.345548	0.981679	0.002373	-0.002343	-0.001952	-0.536621	0.480713	0.201660	0.393797	-0.638859	-0.208960	-0.626992
62412		9.436220	-2.428891	0.950307	-0.000289	-0.003768	-0.003511	-0.535156	0.488770	0.204590	0.393766	-0.638937	-0.208937	-0.626940
62413		9.467369	-2.402011	0.945993	0.008234	-0.005650	-0.005340	-0.549805	0.483887	0.202637	0.393839	-0.638991	-0.209027	-0.626808
62414		9.467736	-2.372074	0.961139	0.005078	-0.003944	-0.007783	-0.543457	0.482178	0.197021	0.393774	-0.639020	-0.209072	-0.626805
62415		9.437003	-2.373016	0.934796	-0.003302	-0.007166	-0.008933	-0.544434	0.483398	0.200928	0.393670	-0.639096	-0.209119	-0.626777
62416		9.455359	-2.368680	0.940654	0.003193	-0.012021	-0.008523	-0.539795	0.481934	0.204346	0.393595	-0.639194	-0.209214	-0.626693
62417		9.474142	-2.343774	0.939615	-0.001807	-0.008053	-0.007315	-0.547363	0.485107	0.202148	0.393495	-0.639307	-0.209216	-0.626639
62418		9.478580	-2.340592	0.928860	-0.000743	-0.007604	-0.006229	-0.541016	0.483398	0.200439	0.393414	-0.639395	-0.209239	-0.626593
62419		9.460186	-2.311350	0.913184	-0.003004	-0.006125	-0.004491	-0.540283	0.481201	0.202148	0.393359	-0.639486	-0.209238	-0.626535
62420		9.461560	-2.389469	0.908513	-0.001080	-0.005012	-0.005588	-0.540527	0.481445	0.197998	0.393292	-0.639565	-0.209234	-0.626497
62421		9.480602	-2.359640	0.952950	-0.003112	-0.004654	-0.006587	-0.537598	0.487549	0.199219	0.393225	-0.639630	-0.209255	-0.626466
62422		9.463815	-2.324450	0.885727	-0.007838	-0.001484	-0.006376	-0.544678	0.491211	0.202393	0.393184	-0.639698	-0.209249	-0.626424
62423		9.485938	-2.439411	0.894649	-0.014900	0.001003	-0.011597	-0.549561	0.488525	0.198486	0.393033	-0.639771	-0.209204	-0.626460
62424		9.485380	-2.329504	0.913737	0.003822	0.001001	-0.009936	-0.540771	0.485596	0.214844	0.393023	-0.639735	-0.209302	-0.626471
62425		9.492521	-2.337428	0.926083	-0.007864	0.003969	-0.008228	-0.531006	0.477539	0.204590	0.392883	-0.639815	-0.209158	-0.626524
62426		9.473990	-2.307729	0.912603	-0.004864	0.002806	-0.007314	-0.540771	0.485107	0.202637	0.392805	-0.639865	-0.209085	-0.626547
62427		9.491454	-2.324948	0.927805	-0.015262	0.004493	-0.004949	-0.538574	0.490234	0.204346	0.392688	-0.639936	-0.208944	-0.626594
62428		9.476050	-2.363954	0.902379	-0.016248	0.000131	-0.007056	-0.540039	0.488037	0.200195	0.392577	-0.640046	-0.208853	-0.626582
62429		9.435121	-2.380491	0.902078	-0.005180	-0.000666	-0.002508	-0.541260	0.479736	0.204346	0.392586	-0.640102	-0.208835	-0.626525
62430		9.477283	-2.321044	0.888262	-0.002853	0.003960	-0.002620	-0.543945	0.483398	0.202393	0.392539	-0.640129	-0.208740	-0.626559
62431		9.467340	-2.383646	0.905533	-0.000767	0.005144	-0.004501	-0.536621	0.480469	0.205078	0.392521	-0.640118	-0.208699	-0.626595
62432		9.470092	-2.366300	0.942812	0.006702	-0.001119	-0.001881	-0.542725	0.480957	0.203613	0.392566	-0.640147	-0.208704	-0.626535
62433		9.463820	-2.383831	0.914671	0.006620	-0.005101	-0.002124	-0.541016	0.482178	0.208984	0.392581	-0.640194	-0.208733	-0.626468
62434		9.452422	-2.359374	0.956225	0.006205	-0.005275	-0.006341	-0.541260	0.481689	0.201172	0.392551	-0.640256	-0.208764	-0.626414
62435		9.464683	-2.381062	0.912951	0.000846	-0.003893	-0.006682	-0.549561	0.480957	0.203125	0.392509	-0.640301	-0.208802	-0.626381
62436		9.459813	-2.322341	0.931279	0.003786	-0.002651	-0.008434	-0.537598	0.480225	0.205566	0.392431	-0.640315	-0.208843	-0.626402
62437		9.466230	-2.307849	0.914283	0.001684	-0.001717	-0.005171	-0.535645	0.481201	0.203369	0.392400	-0.640365	-0.208832	-0.626374
62438		9.474429	-2.331926	0.880013	-0.002323	-0.004018	-0.002193	-0.539307	0.479736	0.195801	0.392381	-0.640452	-0.208802	-0.626306
62439		9.496393	-2.371001	0.914244	-0.002629	0.002231	-0.003048	-0.542480	0.480713	0.205566	0.392379	-0.640456	-0.208790	-0.626308
62440		9.481752	-2.384262	0.927311	-0.003920	0.003508	-0.003703	-0.541016	0.488525	0.205566	0.392311	-0.640489	-0.208695	-0.626348
62441		9.435509	-2.356538	0.879981	-0.001867	0.001644	-0.006395	-0.537842	0.479980	0.207520	0.392297	-0.640517	-0.208689	-0.626331
62442		9.453684	-2.381197	0.871932	-0.002433	-0.002545	-0.004287	-0.541016	0.482910	0.196533	0.392228	-0.640601	-0.208630	-0.626307
62443		9.469361	-2.360652	0.902551	0.003655	-0.008172	-0.005797	-0.537109	0.476807	0.195068	0.392240	-0.640646	-0.208751	-0.626213
62444		9.481844	-2.397754	0.909403	-0.003027	-0.008566	-0.007603	-0.544434	0.480469	0.209473	0.392164	-0.640724	-0.208821	-0.626158
62445		9.465896	-2.384816	0.869869	0.005643	-0.008239	-0.008843	-0.545410	0.485107	0.205322	0.392076	-0.640800	-0.208871	-0.626118
62446		9.459266	-2.365047	0.879536	0.004172	-0.004304	-0.009639	-0.545410	0.480225	0.206543	0.392030	-0.640830	-0.208951	-0.626090
62447		9.479040	-2.341563	0.902030	0.001103	-0.001349	-0.010905	-0.534668	0.492432	0.194580	0.391918	-0.640855	-0.208969	-0.626129
62448		9.501756	-2.342580	0.878137	-0.003498	-0.001779	-0.009976	-0.546387	0.480225	0.199951	0.391967	-0.640867	-0.209112	-0.626038
62449		9.480020	-2.321743	0.850233	0.001826	0.001082	-0.006876	-0.542969	0.479004	0.209473	0.391926	-0.640853	-0.209139	-0.626069
62450		9.480851	-2.314810	0.895412	0.005391	0.003503	-0.005767	-0.541748	0.479492	0.199219	0.391891	-0.640848	-0.209104	-0.626108
62451		9.480391	-2.354985	0.910004	0.001645	0.003131	-0.004712	-0.542480	0.480713	0.214600	0.391892	-0.640826	-0.209114	-0.626126
62452		9.461945	-2.402691	0.871288	0.002281	-0.002371	-0.007727	-0.534912	0.477295	0.198486	0.391790	-0.640897	-0.209070	-0.626132
62453		9.471951	-2.358118	0.861242	0.001910	-0.002831	-0.007896	-0.541992	0.481934	0.200684	0.391773	-0.640918	-0.209143	-0.626097
62454		9.473591	-2.358270	0.882665	0.003555	-0.000918	-0.007997	-0.543457	0.484619	0.201172	0.391764	-0.640914	-0.209217	-0.626082
62455		9.486670	-2.304724	0.887399	0.002451	0.002867	-0.006319	-0.541992	0.488770	0.198730	0.391780	-0.640890	-0.209257	-0.626083
62456		9.483425	-2.333036	0.881174	0.000626	0.003612	-0.006361	-0.548096	0.481934	0.217529	0.391831	-0.640858	-0.209322	-0.626062
62457		9.491937	-2.371718	0.899338	-0.001598	0.000846	-0.007383	-0.537842	0.487549	0.208252	0.391683	-0.640927	-0.209209	-0.626122
62458		9.458526	-2.356037	0.898938	-0.001544	0.007556	-0.008068	-0.543213	0.485107	0.202637	0.391677	-0.640914	-0.209181	-0.626149
62459		9.471827	-2.330583	0.888681	-0.003073	0.004779	-0.008179	-0.541748	0.483154	0.206055	0.391637	-0.640902	-0.209176	-0.626187
62460		9.500664	-2.363000	0.884952	-0.002009	0.005231	-0.007098	-0.537842	0.485840	0.203613	0.391593	-0.640900	-0.209138	-0.626229
62461		9.461277	-2.360435	0.901046	-0.001503	0.002102	-0.006215	-0.536377	0.485840	0.203369	0.391599	-0.640916	-0.209148	-0.626206
62462		9.487291	-2.332220	0.884951	0.000552	0.000241	-0.008901	-0.541260	0.482910	0.211670	0.391603	-0.640930	-0.209211	-0.626168
62463		9.472419	-2.336898	0.920012	-0.002270	-0.001871	-0.007365	-0.540039	0.484619	0.207520	0.391514	-0.641006	-0.209171	-0.626159
62464		9.481567	-2.318427	0.872259	-0.004143	-0.001450	-0.009141	-0.545166	0.480957	0.210449	0.391434	-0.641067	-0.209169	-0.626148
62465		9.482384	-2.344913	0.855888	-0.015098	0.002402	-0.007092	-0.541016	0.479004	0.207031	0.391233	-0.641162	-0.209002	-0.626231
62466		9.504608	-2.334154	0.899846	0.000947	0.003145	-0.005615	-0.537354	0.487793	0.208984	0.391195	-0.641170	-0.208967	-0.626259
62467		9.467339	-2.369588	0.898651	-0.003262	0.001051	-0.005898	-0.542969	0.474609	0.206787	0.391182	-0.641221	-0.208945	-0.626222
62468		9.474770	-2.357258	0.903576	-0.002223	-0.000937	-0.007930	-0.543457	0.481201	0.205322	0.391055	-0.641268	-0.208903	-0.626268
62469		9.458592	-2.344529	0.865658	0.004851	-0.002183	-0.007334	-0.541992	0.476318	0.208008	0.391035	-0.641282	-0.208959	-0.626246
62470		9.475038	-2.310359	0.868117	0.003905	0.001059	-0.004136	-0.547363	0.473145	0.210449	0.391004	-0.641298	-0.208928	-0.626260
62471		9.488978	-2.308648	0.885617	0.003628	0.001852	-0.003141	-0.543945	0.480225	0.205322	0.390928	-0.641315	-0.208845	-0.626318
62472		9.484459	-2.371671	0.915593	0.000992	0.003468	-0.003879	-0.538330	0.484619	0.204834	0.390912	-0.641313	-0.208812	-0.626341
62473		9.467928	-2.359887	0.878973	0.001732	0.004391	-0.003538	-0.547607	0.488525	0.198730	0.390960	-0.641304	-0.208807	-0.626323
62474		9.461374	-2.348777	0.868073	0.003627	0.002463	-0.005441	-0.549805	0.486816	0.197754	0.391018	-0.641261	-0.208888	-0.626303
62475		9.479476	-2.324283	0.870384	0.003395	0.004189	-0.005014	-0.542969	0.474609	0.210205	0.391068	-0.641201	-0.208952	-0.626311
62476		9.495603	-2.360095	0.871544	-0.001645	0.005082	-0.004617	-0.543457	0.487793	0.203857	0.390973	-0.641220	-0.208836	-0.626391
62477		9.476220	-2.372440	0.871830	-0.001760	0.000777	-0.006592	-0.547119	0.476562	0.204590	0.390963	-0.641238	-0.208858	-0.626370
62478		9.454780	-2.346505	0.888912	0.003417	0.002682	-0.008692	-0.538574	0.479980	0.211670	0.390894	-0.641213	-0.208870	-0.626435
62479		9.471238	-2.381277	0.889500	0.000597	0.001176	-0.009459	-0.534668	0.479248	0.201416	0.390815	-0.641247	-0.208850	-0.626456
62480		9.464189	-2.346105	0.849475	0.005636	0.000285	-0.009854	-0.544678	0.480225	0.211426	0.390833	-0.641227	-0.208953	-0.626431
62481		9.494579	-2.310057	0.868977	0.008065	-0.001720	-0.010065	-0.547852	0.479248	0.197510	0.390782	-0.641237	-0.209006	-0.626435
62482		9.475811	-2.316360	0.913520	0.006306	0.001785	-0.005265	-0.544434	0.478516	0.202148	0.390813	-0.641185	-0.209082	-0.626443
62483		9.478567	-2.331932	0.890703	0.000987	0.004077	-0.006176	-0.543701	0.475098	0.207275	0.390787	-0.641161	-0.209079	-0.626486
62484		9.484589	-2.317976	0.875472	0.003574	0.006701	-0.002681	-0.544189	0.485352	0.206543	0.390771	-0.641134	-0.209005	-0.626547
62485		9.470681	-2.338822	0.866415	0.004067	0.000522	-0.002609	-0.545898	0.483887	0.193115	0.390809	-0.641148	-0.209012	-0.626508
62486		9.500798	-2.353521	0.877054	0.006632	0.000706	-0.002223	-0.547119	0.482666	0.206299	0.390922	-0.641095	-0.209125	-0.626453
62487		9.478761	-2.349466	0.901329	0.010467	0.002345	-0.002106	-0.542236	0.478271	0.202637	0.390992	-0.641061	-0.209154	-0.626434
62488		9.473063	-2.361291	0.918686	0.001985	0.000547	-0.005336	-0.542969	0.477051	0.198730	0.390973	-0.641068	-0.209165	-0.626436
62489		9.442276	-2.342525	0.886996	0.005153	-0.000533	-0.005204	-0.540283	0.483643	0.200195	0.390987	-0.641052	-0.209228	-0.626423
62490		9.469760	-2.324445	0.870742	0.006299	0.006955	-0.003075	-0.539551	0.490234	0.200439	0.391091	-0.640984	-0.209267	-0.626414
62491		9.491255	-2.319549	0.871390	0.011024	0.000151	-0.001788	-0.541260	0.482910	0.201904	0.391267	-0.640949	-0.209395	-0.626297
62492		9.497956	-2.349455	0.890308	0.006243	-0.002807	-0.003198	-0.542725	0.484619	0.211670	0.391323	-0.640965	-0.209462	-0.626224
62493		9.506540	-2.319117	0.909630	-0.000273	-0.003768	-0.003490	-0.542480	0.483154	0.201660	0.391282	-0.641052	-0.209424	-0.626173
62494		9.444833	-2.368248	0.894544	-0.000697	0.001224	-0.005509	-0.540283	0.474609	0.205322	0.391273	-0.641061	-0.209437	-0.626165
62495		9.462695	-2.328552	0.845246	0.001031	0.004398	-0.004443	-0.536865	0.487305	0.204346	0.391230	-0.641058	-0.209378	-0.626214
62496		9.481291	-2.347933	0.882965	0.005217	0.002842	-0.002662	-0.537354	0.474365	0.208252	0.391331	-0.641046	-0.209417	-0.626150
62497		9.477388	-2.369351	0.899476	0.001265	0.002672	-0.004867	-0.541504	0.479980	0.208008	0.391279	-0.641069	-0.209354	-0.626181
62498		9.501307	-2.331948	0.885032	0.005377	0.003519	-0.005741	-0.541260	0.471436	0.204590	0.391276	-0.641055	-0.209349	-0.626199
62499		9.459274	-2.366800	0.871611	-0.000403	0.004088	-0.007992	-0.543945	0.476562	0.202393	0.391173	-0.641050	-0.209298	-0.626285
62500		9.461297	-2.304952	0.874141	0.002504	0.006855	-0.006058	-0.540039	0.481934	0.205566	0.391151	-0.641001	-0.209277	-0.626356
62501		9.499366	-2.295007	0.861442	-0.000915	0.006000	-0.004275	-0.543945	0.485596	0.207764	0.391146	-0.640994	-0.209226	-0.626383
62502		9.491695	-2.297689	0.880410	-0.002902	0.006062	-0.001242	-0.542236	0.478027	0.204590	0.391145	-0.641008	-0.209130	-0.626402
62503		9.478539	-2.342063	0.899916	-0.000956	0.003852	0.000891	-0.543945	0.481445	0.202393	0.391147	-0.641027	-0.209035	-0.626413
62504		9.469458	-2.364077	0.903506	0.000340	0.003190	-0.000752	-0.539307	0.484131	0.204346	0.391169	-0.641030	-0.208994	-0.626410
62505		9.482126	-2.360778	0.899492	0.001635	0.002527	-0.002395	-0.541016	0.481201	0.211914	0.391211	-0.641038	-0.208984	-0.626378
62506		9.455904	-2.363567	0.888396	0.002460	0.005924	-0.005486	-0.547119	0.479980	0.205811	0.391182	-0.641034	-0.208920	-0.626422
62507		9.467016	-2.329488	0.879236	0.003478	0.004840	-0.001540	-0.541992	0.478271	0.205322	0.391189	-0.641017	-0.208866	-0.626453
62508		9.483894	-2.318726	0.911437	0.005791	0.004309	-0.003832	-0.541260	0.477295	0.204590	0.391207	-0.640990	-0.208855	-0.626474
62509		9.472958	-2.351002	0.923465	-0.000708	0.006393	-0.003322	-0.547607	0.483887	0.201660	0.391183	-0.640978	-0.208780	-0.626526
62510		9.486783	-2.403752	0.888267	-0.002669	0.004943	-0.003965	-0.536865	0.483154	0.203613	0.391163	-0.640966	-0.208742	-0.626562
62511		9.463439	-2.348248	0.899283	0.000514	-0.001304	-0.006012	-0.541748	0.481201	0.200684	0.391164	-0.641001	-0.208774	-0.626516
62512		9.458440	-2.297894	0.894974	0.003360	-0.003127	-0.002019	-0.537842	0.484375	0.200439	0.391199	-0.641031	-0.208812	-0.626450
62513		9.501268	-2.309749	0.899952	-0.003347	-0.001437	-0.002461	-0.545654	0.475830	0.205322	0.391216	-0.641082	-0.208814	-0.626388
62514		9.488304	-2.353785	0.918517	-0.001003	0.003528	-0.000840	-0.544922	0.484863	0.201172	0.391171	-0.641099	-0.208712	-0.626432
62515		9.462379	-2.406051	0.897935	-0.002110	0.002748	-0.003650	-0.546631	0.485840	0.202148	0.391171	-0.641102	-0.208699	-0.626433
62516		9.464383	-2.324396	0.892700	0.002725	0.000864	-0.002688	-0.537598	0.483398	0.202148	0.391208	-0.641101	-0.208719	-0.626404
62517		9.471257	-2.333723	0.904932	-0.000974	0.001408	-0.002215	-0.545654	0.478516	0.200439	0.391239	-0.641124	-0.208708	-0.626364
62518		9.487855	-2.328706	0.891473	-0.001386	0.000014	-0.001819	-0.540283	0.478027	0.199951	0.391214	-0.641150	-0.208674	-0.626366
62519		9.506037	-2.354161	0.883948	0.003950	0.000782	-0.000089	-0.547607	0.486572	0.202393	0.391267	-0.641150	-0.208675	-0.626331
62520		9.468271	-2.342117	0.891901	0.001517	0.002783	0.000117	-0.539551	0.472900	0.207520	0.391319	-0.641147	-0.208654	-0.626309
62521		9.458390	-2.341173	0.866914	-0.001328	0.003997	-0.001578	-0.543213	0.487305	0.207031	0.391258	-0.641175	-0.208531	-0.626360
62522		9.468772	-2.370022	0.877702	-0.000311	0.003521	0.000070	-0.545654	0.483643	0.208984	0.391294	-0.641196	-0.208469	-0.626337
62523		9.455151	-2.386072	0.912410	0.002845	-0.000606	-0.000602	-0.541260	0.479980	0.202637	0.391297	-0.641237	-0.208423	-0.626308
62524		9.475594	-2.379483	0.890155	0.002195	0.000333	-0.002079	-0.546143	0.476562	0.205078	0.391313	-0.641252	-0.208415	-0.626285
62525		9.470867	-2.378136	0.877761	0.007647	0.001454	-0.005154	-0.537354	0.487793	0.200684	0.391299	-0.641230	-0.208429	-0.626312
62526		9.470359	-2.369255	0.901289	0.003136	0.002867	-0.005379	-0.541992	0.483887	0.197266	0.391375	-0.641206	-0.208497	-0.626266
62527		9.479616	-2.345790	0.899321	0.005612	0.001798	-0.006151	-0.540771	0.484375	0.201416	0.391438	-0.641161	-0.208596	-0.626240
62528		9.485740	-2.331679	0.883447	0.002812	0.002729	-0.003820	-0.547363	0.479004	0.208252	0.391485	-0.641145	-0.208623	-0.626218
62529		9.472036	-2.352314	0.874042	0.002930	0.001866	-0.004032	-0.545166	0.479248	0.207275	0.391434	-0.641157	-0.208572	-0.626255
62530		9.487850	-2.339542	0.883987	0.004404	0.003110	-0.001050	-0.539307	0.474365	0.206055	0.391437	-0.641157	-0.208514	-0.626272
62531		9.456775	-2.357662	0.910633	-0.000207	0.000213	-0.003247	-0.532227	0.488770	0.200439	0.391378	-0.641199	-0.208448	-0.626287
62532		9.477379	-2.350479	0.888262	-0.000251	-0.000112	-0.004976	-0.545166	0.478027	0.200928	0.391448	-0.641220	-0.208516	-0.626200
62533		9.474559	-2.358601	0.874431	-0.001873	0.001019	-0.004074	-0.537598	0.481934	0.208496	0.391397	-0.641236	-0.208484	-0.626226
62534		9.481519	-2.367612	0.886617	0.001545	0.001271	-0.003553	-0.544189	0.487305	0.196045	0.391393	-0.641268	-0.208450	-0.626207
62535		9.453341	-2.381711	0.882813	0.004153	0.002393	-0.003729	-0.546143	0.483398	0.213135	0.391483	-0.641224	-0.208536	-0.626168
62536		9.470467	-2.349785	0.907774	-0.000153	0.004804	-0.005302	-0.537598	0.477051	0.214844	0.391413	-0.641240	-0.208444	-0.626226
62537		9.482279	-2.343500	0.882466	-0.001333	0.005210	-0.006170	-0.532959	0.481201	0.206543	0.391313	-0.641273	-0.208321	-0.626295
62538		9.491792	-2.389839	0.878264	-0.004232	0.001830	-0.005810	-0.534668	0.479248	0.208740	0.391269	-0.641320	-0.208276	-0.626289
62539		9.458279	-2.374731	0.876848	0.003405	-0.000977	-0.007173	-0.539307	0.483154	0.200195	0.391240	-0.641354	-0.208290	-0.626268
62540		9.460795	-2.341388	0.862300	0.002194	0.000941	-0.004371	-0.539062	0.475586	0.206055	0.391279	-0.641350	-0.208333	-0.626233
62541		9.488333	-2.358763	0.903727	0.001910	0.002950	-0.007970	-0.539795	0.477051	0.198975	0.391219	-0.641346	-0.208319	-0.626280
62542		9.465329	-2.372163	0.913070	0.001585	0.003419	-0.008707	-0.538086	0.485596	0.215332	0.391195	-0.641311	-0.208363	-0.626316
62543		9.464786	-2.347528	0.885765	0.000946	0.006801	-0.007080	-0.548340	0.489502	0.206299	0.391158	-0.641315	-0.208293	-0.626358
62544		9.467070	-2.334619	0.879520	0.003261	0.005666	-0.007070	-0.540039	0.481445	0.208008	0.391168	-0.641274	-0.208312	-0.626388
62545		9.477197	-2.313351	0.899990	0.001477	0.006120	-0.003096	-0.539795	0.483154	0.203613	0.391172	-0.641265	-0.208250	-0.626415
62546		9.473111	-2.340326	0.872148	-0.003540	0.001822	-0.004900	-0.538330	0.484619	0.204102	0.391144	-0.641293	-0.208223	-0.626413
62547		9.480792	-2.377526	0.868263	-0.003625	-0.000042	-0.003767	-0.532471	0.480225	0.205811	0.391130	-0.641341	-0.208200	-0.626380
62548		9.469627	-2.360705	0.887503	0.002673	-0.002509	-0.005216	-0.542725	0.486328	0.202637	0.391137	-0.641386	-0.208231	-0.626319
62549		9.448686	-2.342990	0.881025	0.001091	-0.000447	-0.004882	-0.539307	0.480713	0.204590	0.391153	-0.641401	-0.208268	-0.626281
62550		9.475919	-2.366336	0.877720	0.003254	0.001401	-0.003287	-0.539795	0.474609	0.203125	0.391174	-0.641407	-0.208268	-0.626262
62551		9.472256	-2.366904	0.887262	0.002645	0.003271	-0.005328	-0.540527	0.481934	0.204102	0.391149	-0.641393	-0.208254	-0.626297
62552		9.465494	-2.396924	0.890276	0.003746	0.005268	-0.007107	-0.550293	0.490723	0.205322	0.391160	-0.641353	-0.208276	-0.626324
62553		9.466986	-2.361034	0.854890	0.004874	0.001487	-0.008772	-0.540527	0.480469	0.209473	0.391164	-0.641326	-0.208352	-0.626324
62554		9.468660	-2.340017	0.870349	0.008207	0.000487	-0.009409	-0.541992	0.480225	0.200195	0.391145	-0.641315	-0.208408	-0.626328
62555		9.489666	-2.326204	0.893017	0.003900	0.001679	-0.006396	-0.531738	0.483398	0.204834	0.391157	-0.641291	-0.208460	-0.626328
62556		9.476270	-2.346143	0.883311	0.002106	0.000292	-0.007819	-0.544434	0.474854	0.208496	0.391173	-0.641306	-0.208515	-0.626284
62557		9.458007	-2.365649	0.860680	0.003207	0.001684	-0.007304	-0.549072	0.479004	0.202393	0.391092	-0.641312	-0.208486	-0.626339
62558		9.475951	-2.361146	0.869534	0.003736	0.002217	-0.007909	-0.541016	0.479492	0.200928	0.391050	-0.641282	-0.208516	-0.626385
62559		9.462866	-2.354644	0.897814	0.004470	0.003144	-0.007566	-0.534180	0.481934	0.200684	0.391060	-0.641244	-0.208570	-0.626400
62560		9.482716	-2.339061	0.899275	0.003700	0.004337	-0.006536	-0.546143	0.485596	0.210693	0.391114	-0.641207	-0.208627	-0.626385
62561		9.474464	-2.317756	0.888852	0.003364	-0.001300	-0.008884	-0.540771	0.472168	0.200928	0.391059	-0.641234	-0.208654	-0.626383
62562		9.473700	-2.355236	0.881224	0.004915	0.001814	-0.007038	-0.545410	0.485107	0.208008	0.391032	-0.641209	-0.208682	-0.626416
62563		9.474058	-2.353540	0.881897	0.006582	0.001013	-0.006208	-0.539795	0.480469	0.201904	0.391043	-0.641200	-0.208719	-0.626405
