// Start Time: Unknown
// Update Rate: 40.0Hz
// Filter Profile: human (46.1)
// Firmware Version: 4.6.0
PacketCounter	SampleTimeFine	Acc_X	Acc_Y	Acc_Z	Gyr_X	Gyr_Y	Gyr_Z	Mag_X	Mag_Y	Mag_Z	Quat_q0	Quat_q1	Quat_q2	Quat_q3
61647		9.740218	0.254868	-1.093773	0.002998	-0.009613	-0.011999	-0.631836	-0.498291	-0.145752	0.567833	0.406784	-0.624696	0.349067
61648		9.752345	0.257589	-1.053338	0.009425	-0.010869	-0.015740	-0.635254	-0.503662	-0.149414	0.567769	0.407021	-0.624652	0.348973
61649		9.755943	0.275263	-1.095203	0.007406	-0.014212	-0.015465	-0.630615	-0.498291	-0.157959	0.567692	0.407255	-0.624639	0.348848
61650		9.735113	0.261563	-1.143482	0.020553	-0.009475	-0.016971	-0.638672	-0.501709	-0.149414	0.567588	0.407575	-0.624530	0.348840
61651		9.745803	0.313972	-1.141150	0.008398	-0.002960	-0.019310	-0.637207	-0.501465	-0.160156	0.567604	0.407800	-0.624418	0.348751
61652		9.732912	0.303059	-1.064517	0.000964	0.001704	-0.016802	-0.628174	-0.505127	-0.157959	0.567683	0.407936	-0.624318	0.348642
61653		9.731958	0.282259	-1.115283	0.008111	0.000922	-0.020445	-0.638672	-0.499023	-0.159912	0.567741	0.408156	-0.624169	0.348557
61654		9.750137	0.308963	-1.099858	0.007273	0.004148	-0.017896	-0.628906	-0.504639	-0.154541	0.567816	0.408337	-0.624015	0.348499
61655		9.757962	0.330790	-1.096425	0.004291	0.005386	-0.016918	-0.630615	-0.501953	-0.156494	0.567914	0.408486	-0.623867	0.348429
61656		9.750172	0.316708	-1.097339	-0.002857	0.006165	-0.013275	-0.624023	-0.496338	-0.156982	0.568043	0.408557	-0.623761	0.348327
61657		9.716824	0.300954	-1.083623	-0.011126	0.009172	-0.012184	-0.630859	-0.496338	-0.170166	0.568235	0.408549	-0.623672	0.348182
61658		9.745534	0.279191	-1.065931	0.000534	0.005568	-0.016694	-0.628906	-0.501709	-0.158203	0.568363	0.408673	-0.623532	0.348078
61659		9.759345	0.305043	-1.030909	0.000822	0.003647	-0.017365	-0.624023	-0.508301	-0.174316	0.568476	0.408811	-0.623400	0.347966
61660		9.751551	0.296669	-1.072731	0.010874	0.000254	-0.018272	-0.625732	-0.500000	-0.162598	0.568535	0.409033	-0.623229	0.347915
61661		9.755346	0.309763	-1.071282	0.005711	0.002620	-0.018120	-0.633789	-0.500488	-0.164795	0.568628	0.409204	-0.623073	0.347844
61662		9.740860	0.295823	-1.044917	0.008476	-0.000977	-0.021725	-0.627441	-0.498779	-0.160889	0.568697	0.409431	-0.622910	0.347755
61663		9.715875	0.335088	-1.059985	0.012234	-0.001148	-0.021943	-0.628174	-0.496094	-0.171875	0.568743	0.409685	-0.622731	0.347701
61664		9.732635	0.345453	-1.076156	0.008061	0.000345	-0.021088	-0.628906	-0.498291	-0.157715	0.568838	0.409880	-0.622556	0.347630
61665		9.766108	0.316766	-1.099140	0.010043	0.002903	-0.016998	-0.624023	-0.504883	-0.156738	0.568900	0.410067	-0.622384	0.347614
61666		9.748561	0.323942	-1.062490	0.007576	0.001657	-0.019831	-0.628906	-0.506592	-0.164795	0.568975	0.410280	-0.622215	0.347543
61667		9.751886	0.350362	-1.080751	0.008988	0.001808	-0.015270	-0.628662	-0.509521	-0.157959	0.569044	0.410446	-0.622055	0.347519
61668		9.746964	0.366601	-1.081205	0.003582	0.001007	-0.013386	-0.635986	-0.493896	-0.160889	0.569110	0.410583	-0.621939	0.347458
61669		9.734794	0.350920	-1.064139	-0.006280	0.001657	-0.008170	-0.625732	-0.507568	-0.157715	0.569197	0.410558	-0.621914	0.347390
61670		9.746631	0.327252	-1.071877	0.004064	0.000661	-0.007063	-0.631836	-0.502930	-0.153320	0.569226	0.410661	-0.621829	0.347374
61671		9.758686	0.346947	-1.088609	0.005510	-0.000353	-0.005057	-0.622803	-0.502197	-0.157959	0.569201	0.410750	-0.621779	0.347399
61672		9.755219	0.325699	-1.070247	0.004668	-0.001424	-0.005192	-0.628662	-0.499023	-0.154297	0.569192	0.410842	-0.621725	0.347400
61673		9.750157	0.301436	-1.102416	0.006722	0.000180	-0.009300	-0.628174	-0.506104	-0.158936	0.569175	0.410959	-0.621654	0.347417
61674		9.737052	0.307013	-1.084854	0.004966	0.003698	-0.009359	-0.632812	-0.504883	-0.165527	0.569219	0.411055	-0.621548	0.347422
61675		9.756857	0.345372	-1.098536	0.005506	0.002978	-0.009954	-0.631104	-0.499268	-0.161133	0.569280	0.411111	-0.621452	0.347427
61676		9.716924	0.327922	-1.057470	0.004600	0.003270	-0.012555	-0.623047	-0.496826	-0.150879	0.569325	0.411180	-0.621368	0.347423
61677		9.743753	0.354213	-1.079788	0.004706	0.004454	-0.011242	-0.625488	-0.509033	-0.161377	0.569313	0.411306	-0.621279	0.347452
61678		9.731229	0.351536	-1.081876	0.004824	0.003682	-0.008117	-0.636230	-0.499756	-0.167725	0.569366	0.411400	-0.621166	0.347454
61679		9.736787	0.370391	-1.069001	0.001536	0.005456	-0.003389	-0.632080	-0.497559	-0.164551	0.569441	0.411291	-0.621147	0.347496
61680		9.747680	0.323303	-1.066412	-0.006140	0.006346	-0.000439	-0.634521	-0.494873	-0.161865	0.569530	0.411126	-0.621167	0.347509
61681		9.729385	0.353283	-1.068501	-0.002229	0.004245	-0.000085	-0.632324	-0.499512	-0.164551	0.569546	0.410988	-0.621211	0.347567
61682		9.745919	0.366635	-1.063121	-0.005047	0.005290	0.004667	-0.632568	-0.501709	-0.156982	0.569600	0.410802	-0.621259	0.347614
61683		9.732983	0.329994	-1.075554	-0.006025	0.007914	0.007172	-0.624023	-0.500000	-0.165283	0.569600	0.410665	-0.621296	0.347709
61684		9.735879	0.315503	-1.063510	-0.001636	0.006457	0.004464	-0.634033	-0.503174	-0.162598	0.569679	0.410539	-0.621280	0.347758
61685		9.733887	0.353010	-1.021652	0.000786	0.002821	0.003965	-0.632324	-0.502441	-0.159180	0.569665	0.410445	-0.621312	0.347834
61686		9.743257	0.339274	-1.039420	0.001372	0.001318	0.007113	-0.635010	-0.492188	-0.163330	0.569592	0.410382	-0.621359	0.347944
61687		9.741644	0.289986	-1.081013	0.007630	0.001240	0.007180	-0.633545	-0.500977	-0.170410	0.569503	0.410223	-0.621444	0.348124
61688		9.742949	0.310294	-1.089690	0.006238	0.002845	0.005830	-0.631104	-0.500732	-0.160889	0.569549	0.410043	-0.621470	0.348216
61689		9.766415	0.304702	-1.053492	0.003250	0.004073	0.006801	-0.632080	-0.497803	-0.162109	0.569502	0.409967	-0.621489	0.348348
61690		9.755855	0.350522	-1.053942	-0.008192	0.001418	0.008563	-0.630371	-0.499023	-0.160400	0.569490	0.409763	-0.621606	0.348398
61691		9.730563	0.256083	-1.082057	-0.007545	0.001881	0.009282	-0.629883	-0.501221	-0.164795	0.569462	0.409607	-0.621700	0.348459
61692		9.749131	0.263696	-1.046880	0.000212	0.002367	0.002628	-0.626709	-0.506592	-0.161865	0.569495	0.409514	-0.621712	0.348494
61693		9.738511	0.311070	-1.047589	0.006054	0.001266	-0.001160	-0.634277	-0.497803	-0.160156	0.569491	0.409609	-0.621633	0.348529
61694		9.753218	0.277755	-1.084837	0.006515	0.002493	-0.002946	-0.634521	-0.498779	-0.166260	0.569418	0.409611	-0.621636	0.348642
61695		9.759185	0.282416	-1.052659	0.005327	0.002751	-0.003069	-0.633545	-0.496094	-0.161377	0.569447	0.409512	-0.621643	0.348698
61696		9.741261	0.299817	-1.035660	0.010230	0.003109	-0.006904	-0.631836	-0.497803	-0.160645	0.569389	0.409538	-0.621614	0.348815
61697		9.746932	0.323326	-1.063267	0.003749	0.001791	-0.002025	-0.634033	-0.498047	-0.158936	0.569336	0.409524	-0.621623	0.348900
61698		9.733238	0.296511	-1.056490	0.006602	0.004261	-0.000355	-0.638428	-0.490967	-0.162354	0.569242	0.409525	-0.621623	0.349052
61699		9.724014	0.270010	-1.068398	0.005414	0.004518	-0.000478	-0.628418	-0.504150	-0.163086	0.569174	0.409341	-0.621716	0.349213
61700		9.755695	0.275833	-1.049834	0.001817	0.004116	-0.002781	-0.628906	-0.501709	-0.157715	0.569237	0.409362	-0.621643	0.349216
61701		9.745443	0.271922	-1.061475	0.006905	0.003711	-0.004111	-0.637451	-0.500732	-0.164307	0.569166	0.409508	-0.621556	0.349314
61702		9.746739	0.294722	-1.069696	0.004387	0.004210	-0.003118	-0.632568	-0.502930	-0.167480	0.569180	0.409412	-0.621570	0.349380
61703		9.741795	0.303033	-1.029682	0.006496	0.003077	-0.001667	-0.641846	-0.496582	-0.161865	0.569261	0.409327	-0.621539	0.349404
61704		9.736540	0.290691	-1.080931	0.006054	0.001268	-0.001157	-0.625732	-0.498535	-0.159424	0.569146	0.409211	-0.621638	0.349550
61705		9.764901	0.278829	-1.084247	0.002923	0.002479	0.001050	-0.626709	-0.501953	-0.165039	0.569102	0.409258	-0.621601	0.349632
61706		9.754459	0.268982	-1.056350	0.002942	0.001895	-0.000226	-0.632812	-0.490234	-0.167725	0.569177	0.409229	-0.621554	0.349629
61707		9.738730	0.285718	-1.049178	0.010601	0.001584	-0.001890	-0.633301	-0.497314	-0.171875	0.569191	0.409015	-0.621619	0.349740
61708		9.740389	0.294601	-1.038176	0.008819	0.001970	-0.002076	-0.634033	-0.503662	-0.156982	0.569328	0.408778	-0.621643	0.349752
61709		9.745875	0.273504	-1.057092	0.008154	0.002091	-0.001517	-0.633789	-0.493652	-0.164551	0.569180	0.408943	-0.621594	0.349886
61710		9.749151	0.252312	-1.066400	0.008492	0.002715	-0.003341	-0.634277	-0.498047	-0.163330	0.569161	0.408831	-0.621622	0.349999
61711		9.760721	0.279751	-1.062501	0.006534	0.001908	-0.004219	-0.629395	-0.497559	-0.159912	0.569141	0.408792	-0.621626	0.350070
61712		9.739902	0.266459	-1.047323	0.006554	0.001324	-0.005495	-0.631104	-0.504639	-0.162598	0.569077	0.408885	-0.621580	0.350148
61713		9.736655	0.250615	-1.068284	0.008816	0.001578	-0.008371	-0.627686	-0.501221	-0.157715	0.569098	0.409015	-0.621475	0.350149
61714		9.747554	0.287427	-1.044524	0.008550	0.000962	-0.007167	-0.636230	-0.498291	-0.166016	0.569009	0.409238	-0.621369	0.350219
61715		9.742074	0.271182	-1.056152	0.012759	0.000656	-0.006076	-0.627441	-0.501953	-0.164307	0.569006	0.409168	-0.621374	0.350296
61716		9.749682	0.290063	-1.054245	0.010687	-0.002706	-0.005176	-0.627197	-0.498779	-0.160400	0.569024	0.409253	-0.621304	0.350293
61717		9.737077	0.285993	-1.057690	0.009256	0.000067	-0.003979	-0.633301	-0.496338	-0.161865	0.568967	0.409359	-0.621244	0.350369
61718		9.754430	0.278462	-1.054164	0.005907	-0.002461	-0.001308	-0.628418	-0.494873	-0.156738	0.568879	0.409307	-0.621310	0.350456
61719		9.754364	0.278619	-1.054732	0.006030	-0.001860	-0.001272	-0.637451	-0.484375	-0.158447	0.568709	0.409404	-0.621325	0.350590
61720		9.742400	0.265187	-1.078222	0.004874	-0.000425	0.000534	-0.636719	-0.496582	-0.161865	0.568493	0.409193	-0.621532	0.350818
61721		9.724796	0.268347	-1.042284	0.003255	-0.000611	-0.002168	-0.629150	-0.500977	-0.165283	0.568434	0.409090	-0.621618	0.350885
61722		9.780355	0.267070	-1.049889	0.006449	-0.003182	-0.001901	-0.629395	-0.499023	-0.175293	0.568487	0.409060	-0.621606	0.350853
61723		9.750344	0.270518	-1.057341	0.001944	-0.000956	-0.002328	-0.637939	-0.502197	-0.161865	0.568808	0.408700	-0.621649	0.350677
61724		9.757436	0.258371	-1.065863	0.003943	0.002399	-0.002609	-0.633057	-0.496826	-0.163818	0.568780	0.408665	-0.621667	0.350732
61725		9.737860	0.266696	-1.059616	0.004731	0.002879	-0.003131	-0.639160	-0.494141	-0.163818	0.568804	0.408570	-0.621676	0.350786
61726		9.720470	0.275458	-1.063142	0.013280	0.000522	-0.005392	-0.638428	-0.500488	-0.165771	0.568718	0.408485	-0.621726	0.350936
61727		9.753710	0.251457	-1.065514	0.002858	0.003842	-0.001424	-0.629639	-0.494629	-0.165039	0.568784	0.408306	-0.621771	0.350959
61728		9.754840	0.230049	-1.064883	0.009330	0.003792	-0.003207	-0.634033	-0.501465	-0.155029	0.568831	0.408225	-0.621737	0.351037
61729		9.766418	0.257588	-1.060587	0.005315	0.004702	-0.004884	-0.641602	-0.494629	-0.163818	0.568688	0.408425	-0.621662	0.351169
61730		9.722814	0.273785	-1.029031	0.003851	0.006295	-0.005620	-0.634277	-0.495605	-0.169434	0.568684	0.408240	-0.621725	0.351279
61731		9.751909	0.254554	-1.051320	0.006729	0.006235	-0.003412	-0.628662	-0.504150	-0.156494	0.568842	0.407989	-0.621731	0.351303
61732		9.734619	0.263288	-1.053921	0.007814	0.004792	-0.004597	-0.635742	-0.500732	-0.160400	0.568774	0.408244	-0.621583	0.351379
61733		9.740010	0.238265	-1.032106	0.006124	0.004595	-0.006679	-0.634277	-0.490967	-0.162354	0.568744	0.408300	-0.621535	0.351447
61734		9.761419	0.284202	-1.035262	0.010537	0.002952	-0.004353	-0.642578	-0.494385	-0.164551	0.568668	0.408235	-0.621553	0.351615
61735		9.735872	0.244408	-1.051642	0.008295	0.002114	-0.002753	-0.627930	-0.495117	-0.169922	0.568606	0.408057	-0.621647	0.351754
61736		9.759341	0.246162	-1.055963	0.013015	-0.000089	-0.004179	-0.642578	-0.496338	-0.166260	0.568741	0.407925	-0.621613	0.351749
61737		9.763139	0.255528	-1.054981	0.010230	-0.000206	-0.001986	-0.637451	-0.492188	-0.160156	0.568696	0.407752	-0.621707	0.351858
61738		9.753870	0.229626	-1.067945	0.013701	-0.000797	-0.006009	-0.630859	-0.488281	-0.162109	0.568516	0.407807	-0.621722	0.352058
61739		9.763047	0.257544	-1.055343	0.007117	0.000011	-0.007355	-0.632812	-0.493652	-0.158936	0.568456	0.407780	-0.621731	0.352170
61740		9.764074	0.237052	-1.055658	0.000973	-0.000683	-0.004309	-0.643066	-0.500000	-0.165283	0.568357	0.407809	-0.621757	0.352251
61741		9.757294	0.237895	-1.027667	0.005858	-0.003460	-0.008247	-0.639893	-0.501465	-0.163330	0.568348	0.407722	-0.621835	0.352228
61742		9.750874	0.248896	-1.079982	0.000339	-0.003509	-0.009502	-0.636230	-0.496094	-0.160645	0.568359	0.407696	-0.621887	0.352147
61743		9.769031	0.216822	-1.037109	-0.009082	-0.003416	-0.009311	-0.634766	-0.495361	-0.161133	0.568349	0.407652	-0.621972	0.352065
61744		9.785794	0.224794	-1.054516	0.014135	-0.008190	-0.012497	-0.633789	-0.494385	-0.165283	0.568214	0.407812	-0.621965	0.352110
61745		9.736419	0.312177	-1.056337	0.010562	-0.008788	-0.009782	-0.633789	-0.488770	-0.166260	0.568182	0.407809	-0.622009	0.352088
61746		9.727643	0.278472	-1.090755	0.003975	-0.003855	-0.003450	-0.630127	-0.499023	-0.162598	0.568186	0.407608	-0.622118	0.352121
61747		9.721989	0.256813	-1.063066	0.003276	-0.001198	-0.003438	-0.636475	-0.500732	-0.164795	0.568218	0.407613	-0.622102	0.352093
61748		9.729090	0.245122	-1.071745	0.005239	0.000978	-0.005652	-0.628662	-0.493896	-0.158691	0.568284	0.407547	-0.622103	0.352060
61749		9.771112	0.218401	-1.071946	0.000023	0.004081	-0.009274	-0.639160	-0.502930	-0.158691	0.568283	0.407626	-0.622033	0.352095
61750		9.762448	0.225292	-1.072811	0.000194	0.004866	-0.014878	-0.632812	-0.499023	-0.170654	0.568300	0.407736	-0.621967	0.352055
61751		9.731238	0.292616	-1.047303	0.005628	0.006864	-0.014821	-0.629395	-0.497314	-0.161133	0.568584	0.407589	-0.621880	0.351922
61752		9.710735	0.286157	-1.070849	0.003244	0.006010	-0.011981	-0.637451	-0.496338	-0.171143	0.568654	0.407662	-0.621771	0.351917
61753		9.721203	0.249876	-1.047207	0.003432	0.010338	-0.011183	-0.631104	-0.496338	-0.164062	0.568908	0.407396	-0.621742	0.351865
61754		9.759168	0.228850	-1.066549	0.004928	0.009522	-0.014806	-0.627930	-0.499512	-0.160889	0.569044	0.407404	-0.621616	0.351859
61755		9.761373	0.228149	-1.033579	0.009409	0.011208	-0.018004	-0.635010	-0.499512	-0.162598	0.569150	0.407587	-0.621393	0.351869
61756		9.717197	0.169356	-0.962435	0.019335	0.010764	-0.028814	-0.631348	-0.501953	-0.157227	0.569237	0.407830	-0.621139	0.351896
61757		9.708160	0.220957	-0.931549	0.038937	0.007319	-0.047403	-0.628418	-0.490234	-0.160645	0.569199	0.408538	-0.620674	0.351956
61758		9.670279	0.188264	-0.949436	0.014503	0.009858	-0.065158	-0.628418	-0.502930	-0.158691	0.569403	0.409027	-0.620263	0.351782
61759		9.793875	0.137893	-1.002768	0.091408	-0.016114	-0.082318	-0.631348	-0.497314	-0.164795	0.569113	0.410444	-0.619547	0.351862
61760		9.815075	0.587548	-1.074940	0.082227	-0.016874	-0.058266	-0.629150	-0.504883	-0.165527	0.568852	0.411339	-0.619099	0.352029
61761		9.722084	0.550672	-1.191076	0.033141	-0.004927	-0.018948	-0.637939	-0.501465	-0.152344	0.568849	0.411553	-0.618940	0.352064
61762		9.702170	0.398097	-1.068323	0.005449	0.001433	-0.001215	-0.638916	-0.511230	-0.156250	0.568614	0.411617	-0.618991	0.352277
61763		9.746284	0.229820	-1.062089	0.036173	-0.013639	-0.000681	-0.631104	-0.506348	-0.157959	0.568244	0.411934	-0.618988	0.352510
61764		9.767340	0.395797	-1.028734	0.030008	-0.018246	0.006631	-0.634766	-0.509766	-0.154785	0.567905	0.412134	-0.619054	0.352706
61765		9.802707	0.263877	-1.057314	0.011665	-0.022183	0.011949	-0.625000	-0.507324	-0.151855	0.567558	0.412236	-0.619258	0.352786
61766		9.821869	0.256978	-1.109875	0.045147	-0.033405	0.011664	-0.632324	-0.507812	-0.159912	0.566952	0.412735	-0.619320	0.353070
61767		9.819904	0.204745	-1.159784	0.031013	-0.038040	0.011813	-0.623779	-0.506836	-0.159424	0.566518	0.412914	-0.619548	0.353157
61768		9.714525	0.231630	-1.131517	0.022399	-0.026472	-0.001991	-0.636963	-0.496338	-0.154297	0.566331	0.413136	-0.619601	0.353104
61769		9.724654	0.116313	-1.076370	0.029272	-0.024229	-0.019959	-0.630859	-0.510010	-0.159668	0.565988	0.413448	-0.619662	0.353181
61770		9.751650	0.333606	-1.083855	0.039880	-0.022870	-0.033768	-0.632812	-0.509277	-0.149902	0.565881	0.413964	-0.619492	0.353048
61771		9.727399	0.343623	-1.124075	0.017575	-0.014602	-0.032278	-0.629395	-0.499512	-0.150879	0.565764	0.414419	-0.619381	0.352896
61772		9.771744	0.283742	-1.167648	-0.008847	-0.011150	-0.030755	-0.631348	-0.504395	-0.151611	0.565789	0.414582	-0.619396	0.352638
61773		9.830477	0.291550	-1.098054	-0.012273	-0.022934	-0.032712	-0.631836	-0.505371	-0.151367	0.565777	0.414791	-0.619495	0.352238
61774		9.802401	0.424146	-1.077708	-0.064352	-0.018420	-0.018338	-0.633301	-0.500000	-0.147949	0.566005	0.414499	-0.619868	0.351557
61775		9.702767	0.213982	-1.156509	-0.039490	-0.015794	-0.023010	-0.633301	-0.501709	-0.159424	0.566041	0.414432	-0.620120	0.351134
61776		9.762227	0.251092	-1.176008	-0.010919	-0.013887	-0.028554	-0.631104	-0.509521	-0.148926	0.566176	0.414398	-0.620216	0.350787
61777		9.766076	0.446702	-1.075119	-0.018550	-0.009320	-0.024878	-0.633545	-0.504395	-0.158203	0.566231	0.414536	-0.620260	0.350457
61778		9.723464	0.349338	-1.138411	-0.017347	-0.010908	-0.021656	-0.632812	-0.503418	-0.154297	0.566374	0.414432	-0.620388	0.350122
61779		9.692719	0.331688	-1.197749	-0.018061	-0.007502	-0.026018	-0.629395	-0.499756	-0.146240	0.566494	0.414414	-0.620466	0.349811
61780		9.730765	0.272009	-1.111387	-0.009178	-0.005279	-0.034367	-0.625000	-0.510986	-0.160889	0.566477	0.414663	-0.620426	0.349614
61781		9.697990	0.379573	-1.118536	0.003838	-0.005844	-0.039838	-0.632568	-0.502441	-0.156982	0.566738	0.414888	-0.620247	0.349241
61782		9.675390	0.400458	-1.144466	0.001648	-0.002969	-0.037484	-0.632080	-0.513672	-0.152344	0.566871	0.415012	-0.620168	0.349020
61783		9.714632	0.421139	-1.105778	0.003443	-0.000791	-0.038470	-0.635498	-0.506592	-0.156982	0.566990	0.415312	-0.619998	0.348769
61784		9.736913	0.353076	-1.162414	0.012512	-0.002584	-0.038776	-0.638428	-0.512939	-0.151367	0.567071	0.415524	-0.619869	0.348616
61785		9.751650	0.445779	-1.118679	0.019060	-0.004657	-0.033732	-0.618896	-0.502441	-0.158691	0.567003	0.415866	-0.619741	0.348547
61786		9.734539	0.507231	-1.182549	0.011114	-0.001055	-0.017592	-0.621826	-0.514893	-0.151123	0.567102	0.415932	-0.619633	0.348498
61787		9.703746	0.403015	-1.150754	-0.004598	0.003664	-0.008535	-0.626465	-0.516113	-0.147217	0.567202	0.415989	-0.619565	0.348389
61788		9.763592	0.344719	-1.097937	0.003756	-0.002169	-0.015301	-0.626953	-0.513916	-0.153076	0.567160	0.416225	-0.619488	0.348311
61789		9.761424	0.404918	-1.128003	0.015308	-0.000695	-0.015241	-0.632812	-0.503174	-0.153564	0.567149	0.416416	-0.619373	0.348306
61790		9.734637	0.423491	-1.173527	-0.004256	0.003684	-0.011627	-0.620361	-0.508057	-0.162842	0.567185	0.416299	-0.619419	0.348306
61791		9.722134	0.364726	-1.135729	-0.007985	0.008274	-0.015031	-0.624756	-0.515625	-0.144531	0.567518	0.416124	-0.619340	0.348113
61792		9.741584	0.422806	-1.118879	0.000353	0.004824	-0.017345	-0.627197	-0.505371	-0.150879	0.567515	0.416366	-0.619212	0.348056
61793		9.733493	0.421145	-1.139359	-0.005079	0.006920	-0.009743	-0.626221	-0.509521	-0.155029	0.567558	0.416314	-0.619201	0.348068
61794		9.723136	0.422692	-1.189940	-0.004322	0.008001	-0.009001	-0.628418	-0.514893	-0.152344	0.567687	0.416225	-0.619164	0.348029
61795		9.727346	0.425175	-1.106394	-0.012616	0.012046	-0.006039	-0.628174	-0.509521	-0.152832	0.567847	0.416105	-0.619138	0.347957
61796		9.718989	0.399593	-1.116141	-0.006685	0.008912	-0.002974	-0.635986	-0.509033	-0.152100	0.567918	0.415981	-0.619146	0.347975
61797		9.717390	0.426632	-1.153776	-0.005080	0.010487	-0.003375	-0.631592	-0.508545	-0.143799	0.567943	0.415826	-0.619185	0.348049
61798		9.781747	0.397146	-1.107252	-0.006962	0.008893	-0.000501	-0.628906	-0.509766	-0.145020	0.567849	0.415799	-0.619222	0.348170
61799		9.741487	0.424713	-1.113622	-0.012144	0.009813	0.002710	-0.618408	-0.512451	-0.161133	0.567813	0.415715	-0.619268	0.348249
61800		9.724161	0.431100	-1.115121	-0.011096	0.008808	0.008429	-0.627197	-0.503662	-0.167725	0.568023	0.415452	-0.619275	0.348206
61801		9.726941	0.398749	-1.132545	-0.009400	0.011577	0.009328	-0.630615	-0.505859	-0.152588	0.568261	0.414965	-0.619370	0.348228
61802		9.745974	0.371868	-1.066089	-0.011946	0.008315	0.009573	-0.624756	-0.504639	-0.155029	0.568257	0.414708	-0.619491	0.348328
61803		9.723488	0.363853	-1.119598	-0.008463	0.006407	0.008649	-0.621826	-0.500732	-0.160889	0.568279	0.414489	-0.619574	0.348405
61804		9.760951	0.378321	-1.109211	-0.009421	0.006070	0.005402	-0.637451	-0.502930	-0.156738	0.568400	0.414193	-0.619655	0.348414
61805		9.773911	0.347617	-1.075116	-0.009832	0.006797	0.004754	-0.623047	-0.510254	-0.160645	0.568407	0.413891	-0.619806	0.348495
61806		9.734764	0.418199	-1.101025	-0.007815	0.007644	0.005005	-0.621582	-0.501709	-0.156494	0.568555	0.413685	-0.619822	0.348469
61807		9.696586	0.361684	-1.129082	-0.003050	0.006690	0.005505	-0.623047	-0.502930	-0.152100	0.568578	0.413534	-0.619848	0.348565
61808		9.712069	0.383421	-1.103418	0.000228	0.007303	0.005263	-0.624268	-0.516846	-0.158936	0.568523	0.413481	-0.619845	0.348723
61809		9.731406	0.383027	-1.086992	0.004624	0.009451	0.008951	-0.629639	-0.507812	-0.151123	0.568588	0.413413	-0.619777	0.348817
61810		9.774287	0.357524	-1.125846	0.003907	0.006429	0.010029	-0.629150	-0.510498	-0.160156	0.568463	0.413364	-0.619805	0.349029
61811		9.772362	0.354920	-1.114815	0.002075	0.006191	0.009191	-0.627686	-0.504883	-0.163818	0.568488	0.413202	-0.619833	0.349130
61812		9.723633	0.348965	-1.094382	-0.002714	0.007739	0.009957	-0.628418	-0.499756	-0.167236	0.568585	0.412909	-0.619899	0.349204
61813		9.726717	0.368869	-1.111426	0.000705	0.008362	0.008481	-0.631104	-0.496338	-0.158203	0.568699	0.412563	-0.619970	0.349299
61814		9.725617	0.357871	-1.119897	0.005770	0.008614	0.008430	-0.631592	-0.501709	-0.162598	0.568636	0.412360	-0.620029	0.349538
61815		9.759552	0.362226	-1.110174	0.007114	0.007034	0.010411	-0.623535	-0.504395	-0.162598	0.568626	0.412128	-0.620089	0.349722
61816		9.753467	0.327977	-1.090193	0.004062	0.009409	0.013900	-0.632324	-0.498779	-0.163574	0.568680	0.411904	-0.620102	0.349872
61817		9.714826	0.361355	-1.086462	0.010438	0.008241	0.010823	-0.632812	-0.510010	-0.154541	0.568659	0.411663	-0.620154	0.350100
61818		9.736511	0.324813	-1.050171	0.018480	0.007891	0.011092	-0.629883	-0.500244	-0.163574	0.568509	0.411688	-0.620107	0.350397
61819		9.745485	0.356832	-1.116115	0.011498	0.006643	0.015279	-0.624268	-0.489502	-0.159424	0.568470	0.411455	-0.620163	0.350635
61820		9.746777	0.308836	-1.104521	0.005772	0.010833	0.017894	-0.628662	-0.498047	-0.156006	0.568405	0.411178	-0.620226	0.350952
61821		9.747834	0.322110	-1.071435	0.000848	0.010597	0.016706	-0.628662	-0.502686	-0.173340	0.568337	0.410965	-0.620283	0.351211
61822		9.757803	0.305680	-1.087127	-0.003901	0.008429	0.016104	-0.635498	-0.498535	-0.160889	0.568546	0.410488	-0.620405	0.351217
61823		9.748678	0.283993	-1.077412	-0.012396	0.008918	0.014532	-0.636230	-0.500488	-0.157715	0.568580	0.410114	-0.620561	0.351322
61824		9.751941	0.268031	-1.064777	-0.007351	0.007972	0.012569	-0.632080	-0.499756	-0.160889	0.568548	0.409864	-0.620674	0.351468
61825		9.758039	0.274918	-1.071615	-0.009222	0.005357	0.007891	-0.635254	-0.504639	-0.159668	0.568585	0.409619	-0.620777	0.351509
61826		9.748718	0.290388	-1.092326	-0.005891	0.004778	0.005119	-0.637451	-0.497803	-0.159912	0.568602	0.409458	-0.620849	0.351542
61827		9.745323	0.249955	-1.102623	-0.005607	0.004798	0.002646	-0.633789	-0.501953	-0.168213	0.568593	0.409272	-0.620941	0.351611
61828		9.751824	0.272108	-1.039662	-0.000652	0.002656	-0.000618	-0.631592	-0.498535	-0.158691	0.568704	0.409070	-0.621001	0.351562
61829		9.751248	0.254887	-1.069680	0.004989	0.001587	-0.002517	-0.633789	-0.498291	-0.163330	0.568646	0.409075	-0.621001	0.351649
61830		9.749843	0.281856	-1.109401	0.012862	0.001376	-0.006015	-0.630127	-0.497070	-0.157471	0.568617	0.409079	-0.620978	0.351732
61831		9.733714	0.264675	-1.072756	0.000364	0.003914	-0.007356	-0.631348	-0.499756	-0.160400	0.568608	0.409098	-0.620950	0.351775
61832		9.739627	0.275624	-1.080312	0.011233	0.004289	-0.008615	-0.630615	-0.499512	-0.168457	0.568597	0.409162	-0.620873	0.351852
61833		9.760746	0.309953	-1.064081	0.010645	0.002627	-0.011865	-0.631836	-0.500732	-0.167725	0.568704	0.409130	-0.620819	0.351812
61834		9.733688	0.301299	-1.059924	0.005054	0.002943	-0.006226	-0.640137	-0.494873	-0.160889	0.568806	0.409024	-0.620817	0.351774
61835		9.741115	0.289993	-1.067656	0.004504	0.003661	-0.005640	-0.634277	-0.489990	-0.167480	0.568757	0.408954	-0.620849	0.351880
61836		9.733176	0.286374	-1.089017	0.004226	0.001859	-0.006353	-0.635986	-0.502930	-0.162109	0.568793	0.408797	-0.620901	0.351912
61837		9.733086	0.318030	-1.077870	0.005525	0.004004	-0.003007	-0.631592	-0.498779	-0.167236	0.568801	0.408748	-0.620900	0.351958
61838		9.740444	0.301612	-1.045447	0.001579	0.003512	-0.002219	-0.645996	-0.500977	-0.169434	0.568891	0.408589	-0.620933	0.351938
61839		9.754581	0.254919	-1.052386	0.005467	0.000867	-0.002483	-0.632324	-0.501709	-0.165283	0.568919	0.408389	-0.621034	0.351946
61840		9.747888	0.289918	-1.053193	0.003015	0.001344	-0.002121	-0.625977	-0.498535	-0.163086	0.568969	0.408291	-0.621065	0.351925
61841		9.731025	0.284937	-1.036959	0.006801	0.000636	-0.003590	-0.628174	-0.500732	-0.161865	0.568978	0.408291	-0.621044	0.351947
61842		9.739116	0.329431	-1.084104	0.006953	0.003620	0.000277	-0.634277	-0.497803	-0.162842	0.568979	0.408263	-0.621023	0.352014
61843		9.743880	0.263797	-1.082874	0.002281	0.005779	0.001062	-0.629639	-0.495117	-0.161865	0.568989	0.408141	-0.621047	0.352099
61844		9.763723	0.252171	-1.046866	0.002755	0.006404	-0.001998	-0.626709	-0.495605	-0.159668	0.569006	0.408075	-0.621026	0.352184
61845		9.746282	0.260292	-1.049436	0.006612	0.005700	-0.004084	-0.629150	-0.499512	-0.162842	0.568991	0.408105	-0.620959	0.352290
61846		9.737589	0.299852	-1.079743	0.011038	0.005469	-0.004837	-0.623535	-0.499268	-0.163330	0.569009	0.408123	-0.620889	0.352367
61847		9.746511	0.261654	-1.046963	0.011159	0.004725	-0.001713	-0.629150	-0.495117	-0.157715	0.569034	0.408135	-0.620816	0.352441
61848		9.756750	0.266731	-1.033904	0.015863	0.000627	-0.000669	-0.629150	-0.488770	-0.162109	0.568879	0.408245	-0.620767	0.352649
61849		9.751580	0.314057	-1.064503	0.014529	0.000860	0.000438	-0.634033	-0.503662	-0.160645	0.568763	0.408239	-0.620765	0.352846
61850		9.740944	0.255531	-1.077479	0.011427	0.002645	0.003268	-0.632324	-0.490723	-0.161133	0.568695	0.408236	-0.620756	0.352975
61851		9.753294	0.255649	-1.033846	0.010380	0.002894	0.001903	-0.632568	-0.504639	-0.160889	0.568600	0.408185	-0.620772	0.353160
61852		9.757826	0.255335	-1.052420	0.009580	0.001214	0.000509	-0.629639	-0.501221	-0.163086	0.568558	0.408204	-0.620756	0.353232
61853		9.749077	0.258667	-1.054167	0.010886	0.001577	0.000670	-0.640869	-0.496582	-0.160889	0.568539	0.408193	-0.620738	0.353307
61854		9.756355	0.276231	-1.052035	0.006228	0.000603	0.001359	-0.630371	-0.501953	-0.163086	0.568443	0.408117	-0.620807	0.353428
61855		9.749142	0.257273	-1.053908	0.005086	0.000098	0.004973	-0.635010	-0.499512	-0.164551	0.568426	0.408037	-0.620848	0.353475
61856		9.746396	0.238321	-1.074866	-0.002404	-0.000267	0.004101	-0.638428	-0.499512	-0.162842	0.568441	0.407864	-0.620953	0.353469
61857		9.741227	0.215445	-1.046416	0.005213	-0.001089	0.001820	-0.631348	-0.494385	-0.163086	0.568385	0.407780	-0.621026	0.353526
61858		9.744145	0.237192	-1.065723	0.004426	-0.000232	-0.000751	-0.633301	-0.499023	-0.172119	0.568361	0.407715	-0.621064	0.353573
61859		9.752180	0.211833	-1.054561	0.010982	-0.003343	-0.003219	-0.636963	-0.493408	-0.172607	0.568418	0.407603	-0.621114	0.353521
61860		9.759178	0.296024	-1.072712	0.004364	-0.002025	-0.003315	-0.635010	-0.496826	-0.167236	0.568486	0.407403	-0.621214	0.353469
61861		9.753588	0.226081	-1.085111	-0.008085	-0.000246	-0.000936	-0.640381	-0.502441	-0.164062	0.568576	0.407185	-0.621332	0.353366
61862		9.739070	0.190866	-1.089038	0.007451	-0.000680	-0.006055	-0.633789	-0.497803	-0.166260	0.568574	0.407158	-0.621362	0.353348
61863		9.773829	0.238942	-1.060610	0.007577	-0.001868	-0.009206	-0.633545	-0.500732	-0.161133	0.568604	0.407147	-0.621370	0.353298
61864		9.743046	0.221490	-1.058547	0.000682	-0.002356	-0.010012	-0.632812	-0.495605	-0.161133	0.568622	0.407174	-0.621385	0.353212
61865		9.746368	0.263476	-1.047842	0.006271	-0.002229	-0.009366	-0.625000	-0.494873	-0.167480	0.568582	0.407237	-0.621376	0.353221
61866		9.748653	0.234953	-1.068391	0.005372	-0.003318	-0.008873	-0.634033	-0.495850	-0.164551	0.568643	0.407223	-0.621378	0.353135
61867		9.733676	0.262203	-1.052447	0.010917	-0.003789	-0.008877	-0.639404	-0.497559	-0.165771	0.568604	0.407264	-0.621383	0.353141
61868		9.757107	0.269512	-1.097845	0.010195	-0.002481	-0.005790	-0.634766	-0.499268	-0.160400	0.568572	0.407233	-0.621423	0.353158
61869		9.779366	0.198018	-1.093648	-0.001737	0.000507	-0.005822	-0.632568	-0.497070	-0.158691	0.568586	0.407199	-0.621455	0.353120
61870		9.755533	0.224791	-1.039065	0.011958	-0.002693	-0.010604	-0.631104	-0.498047	-0.162598	0.568499	0.407348	-0.621408	0.353170
61871		9.730277	0.281708	-1.065396	0.011325	-0.004513	-0.008222	-0.637939	-0.498535	-0.166992	0.568453	0.407426	-0.621400	0.353168
61872		9.732355	0.283125	-1.075932	0.005467	-0.003460	-0.004480	-0.630615	-0.497803	-0.163818	0.568461	0.407339	-0.621475	0.353124
61873		9.756638	0.242131	-1.071330	0.001344	-0.002025	-0.004286	-0.626221	-0.495117	-0.163086	0.568485	0.407285	-0.621518	0.353071
61874		9.763987	0.230429	-1.080226	0.008977	-0.001642	-0.004653	-0.632812	-0.504150	-0.163818	0.568465	0.407314	-0.621503	0.353096
61875		9.760941	0.244322	-1.091271	0.005956	-0.001646	-0.005625	-0.634033	-0.488281	-0.165283	0.568505	0.407291	-0.621526	0.353017
61876		9.738173	0.230827	-1.067161	0.006365	-0.002371	-0.004972	-0.627441	-0.511475	-0.155029	0.568450	0.407255	-0.621563	0.353083
61877		9.753224	0.255045	-1.043965	0.012692	-0.002351	-0.005499	-0.638916	-0.493652	-0.162598	0.568409	0.407421	-0.621507	0.353056
61878		9.729165	0.236645	-1.070609	0.012532	-0.003553	-0.006176	-0.631348	-0.495850	-0.170654	0.568304	0.407458	-0.621529	0.353143
61879		9.759179	0.239779	-1.104200	0.008755	-0.000311	-0.005894	-0.632568	-0.498535	-0.160645	0.568382	0.407358	-0.621551	0.353094
61880		9.759912	0.228263	-1.084001	0.004179	0.001246	-0.007002	-0.636719	-0.498779	-0.166260	0.568392	0.407365	-0.621542	0.353087
61881		9.739479	0.215199	-1.068475	0.006124	0.002092	-0.006130	-0.629150	-0.498535	-0.162109	0.568448	0.407281	-0.621562	0.353059
61882		9.743653	0.247403	-1.077186	0.009902	-0.001148	-0.006410	-0.640625	-0.488770	-0.158691	0.568436	0.407325	-0.621540	0.353064
61883		9.748842	0.236257	-1.075942	0.009687	0.002717	-0.008835	-0.640869	-0.490479	-0.166748	0.568321	0.407396	-0.621501	0.353236
61884		9.748877	0.237932	-1.075257	0.006425	0.003300	-0.006689	-0.635986	-0.504395	-0.159424	0.568328	0.407300	-0.621524	0.353295
61885		9.733542	0.246776	-1.088081	0.006949	0.003179	-0.006005	-0.639160	-0.497803	-0.162354	0.568345	0.407310	-0.621505	0.353290
61886		9.752538	0.249841	-1.073016	0.004365	0.001850	-0.007589	-0.633301	-0.498535	-0.162354	0.568355	0.407275	-0.621520	0.353289
61887		9.742403	0.245910	-1.084916	0.004833	0.002925	-0.004376	-0.630371	-0.494385	-0.162842	0.568381	0.407232	-0.621520	0.353296
61888		9.747661	0.234274	-1.083246	0.007314	0.001856	-0.005998	-0.637695	-0.502930	-0.165527	0.568383	0.407233	-0.621497	0.353333
61889		9.730808	0.229823	-1.067003	0.007351	-0.000078	-0.004166	-0.635742	-0.487549	-0.171143	0.568420	0.407156	-0.621541	0.353285
61890		9.759153	0.250254	-1.060162	0.006132	0.000757	-0.003032	-0.637695	-0.498291	-0.159912	0.568438	0.407011	-0.621593	0.353329
61891		9.738819	0.240071	-1.085130	0.008141	-0.000927	-0.001593	-0.636719	-0.496094	-0.165771	0.568360	0.407009	-0.621626	0.353399
61892		9.737936	0.249202	-1.065194	0.002940	0.001342	-0.001505	-0.639160	-0.495605	-0.159912	0.568384	0.406884	-0.621686	0.353399
61893		9.724241	0.235325	-1.078069	0.005285	0.002802	-0.003075	-0.641113	-0.495117	-0.162109	0.568336	0.406859	-0.621699	0.353484
61894		9.741898	0.228641	-1.073475	0.007695	0.001731	-0.004078	-0.637451	-0.488037	-0.152100	0.568287	0.406827	-0.621721	0.353560
61895		9.779968	0.236631	-1.084128	0.008477	0.002217	-0.004602	-0.633301	-0.489502	-0.166748	0.568094	0.406966	-0.621669	0.353801
61896		9.753017	0.226661	-1.079876	0.006066	0.003289	-0.003599	-0.638428	-0.494141	-0.162354	0.568118	0.406868	-0.621685	0.353848
61897		9.745610	0.240137	-1.070804	0.005428	0.002806	-0.004311	-0.635986	-0.493164	-0.164551	0.568102	0.406819	-0.621701	0.353900
61898		9.722260	0.239323	-1.065384	0.004581	0.004852	-0.004355	-0.638428	-0.492920	-0.155762	0.568136	0.406733	-0.621708	0.353935
61899		9.749376	0.250809	-1.067785	0.001913	0.005316	-0.002147	-0.636475	-0.496582	-0.154297	0.568065	0.406726	-0.621703	0.354065
61900		9.744038	0.211569	-1.067889	-0.000878	0.006511	-0.003064	-0.635254	-0.496826	-0.162109	0.568033	0.406725	-0.621683	0.354152
61901		9.762365	0.226296	-1.072247	0.009624	0.004381	-0.000028	-0.639160	-0.489746	-0.162842	0.568012	0.406681	-0.621676	0.354247
61902		9.756703	0.217274	-1.062272	0.011151	0.007287	-0.002907	-0.640869	-0.490234	-0.159912	0.567981	0.406630	-0.621653	0.354396
61903		9.731176	0.215969	-1.046868	0.003061	0.004479	-0.002662	-0.640381	-0.492188	-0.164551	0.567933	0.406568	-0.621680	0.354498
61904		9.733509	0.216746	-1.055361	0.011389	0.004160	-0.004837	-0.639893	-0.494385	-0.158447	0.567914	0.406523	-0.621678	0.354584
61905		9.750438	0.223301	-1.070569	0.009518	0.003312	-0.006327	-0.642090	-0.491699	-0.170654	0.567847	0.406568	-0.621650	0.354688
61906		9.757639	0.242179	-1.068021	0.008419	0.003418	-0.002068	-0.641602	-0.493408	-0.158447	0.567887	0.406395	-0.621715	0.354709
61907		9.754931	0.220665	-1.047720	-0.000060	0.005065	-0.001757	-0.637695	-0.497314	-0.172363	0.567853	0.406325	-0.621745	0.354790
61908		9.731205	0.201537	-1.072441	0.006181	0.003893	-0.003567	-0.632812	-0.504150	-0.161133	0.567972	0.406146	-0.621791	0.354722
61909		9.746871	0.247343	-1.057601	0.006705	0.003774	-0.002883	-0.638672	-0.501953	-0.162598	0.568010	0.406135	-0.621767	0.354718
61910		9.762691	0.209625	-1.053197	0.004065	0.003639	-0.001941	-0.633545	-0.488770	-0.172363	0.568042	0.406059	-0.621790	0.354713
61911		9.752065	0.183174	-1.055107	0.006097	0.002690	-0.004859	-0.630615	-0.492920	-0.167725	0.568126	0.405911	-0.621827	0.354683
61912		9.741619	0.209829	-1.056794	0.010186	0.003196	-0.006875	-0.639160	-0.488770	-0.165771	0.568181	0.405876	-0.621800	0.354683
61913		9.733398	0.236622	-1.068125	0.005345	0.001603	-0.005599	-0.635254	-0.484619	-0.171875	0.568168	0.405812	-0.621831	0.354722
61914		9.760222	0.196131	-1.071633	0.011149	0.001755	-0.006798	-0.639893	-0.487549	-0.165527	0.568192	0.405727	-0.621847	0.354753
61915		9.739442	0.213610	-1.045861	0.008069	0.002942	-0.005249	-0.631836	-0.495117	-0.169434	0.568162	0.405679	-0.621858	0.354836
61916		9.741732	0.214623	-1.054789	0.005910	0.002086	-0.004269	-0.635498	-0.498047	-0.161133	0.568248	0.405566	-0.621889	0.354774
61917		9.749839	0.224457	-1.072312	0.006590	0.003173	-0.002911	-0.630127	-0.498047	-0.169189	0.568242	0.405549	-0.621884	0.354810
61918		9.751635	0.203319	-1.071003	0.000081	0.005066	-0.002996	-0.638916	-0.496094	-0.162354	0.568395	0.405376	-0.621920	0.354700
61919		9.754707	0.191610	-1.059508	0.008581	0.001621	-0.006472	-0.638428	-0.486084	-0.165283	0.568372	0.405388	-0.621915	0.354732
61920		9.762174	0.228835	-1.027179	0.006392	0.001366	-0.004229	-0.633545	-0.496582	-0.164551	0.568321	0.405350	-0.621937	0.354820
61921		9.744199	0.219034	-1.061409	0.008137	0.000412	-0.004675	-0.631348	-0.493408	-0.164062	0.568330	0.405330	-0.621947	0.354810
61922		9.748727	0.219769	-1.080074	0.005808	0.002687	-0.002387	-0.638672	-0.486816	-0.158936	0.568342	0.405284	-0.621951	0.354837
61923		9.747713	0.177050	-1.059614	0.003305	0.003880	-0.005780	-0.632324	-0.493164	-0.156982	0.568267	0.405313	-0.621929	0.354963
61924		9.752572	0.196868	-1.047931	0.013737	0.000088	-0.010288	-0.642090	-0.494385	-0.160645	0.568168	0.405495	-0.621841	0.355066
61925		9.753985	0.211721	-1.078005	0.019537	-0.002287	-0.010293	-0.637207	-0.499756	-0.156982	0.568040	0.405650	-0.621797	0.355172
61926		9.754675	0.200758	-1.058108	0.015420	0.000339	-0.008206	-0.635254	-0.486572	-0.157471	0.567950	0.405802	-0.621729	0.355261
61927		9.764310	0.238377	-1.035633	0.010849	0.000551	-0.006231	-0.635742	-0.493896	-0.158936	0.567824	0.405904	-0.621693	0.355409
61928		9.742586	0.215789	-1.030841	0.009738	-0.000540	-0.003882	-0.642334	-0.490234	-0.162354	0.567737	0.405960	-0.621688	0.355493
61929		9.738461	0.223733	-1.092026	0.005466	0.000879	-0.002470	-0.635986	-0.491943	-0.160889	0.567679	0.405900	-0.621743	0.355557
61930		9.726398	0.184648	-1.064323	0.007657	0.003665	-0.005904	-0.630859	-0.487061	-0.160645	0.567660	0.405907	-0.621721	0.355619
61931		9.750141	0.205765	-1.038359	0.011104	-0.001375	-0.006244	-0.635986	-0.499512	-0.165527	0.567579	0.405973	-0.621707	0.355696
61932		9.740509	0.223290	-1.060832	0.015912	0.000827	-0.006256	-0.639160	-0.492920	-0.166504	0.567579	0.406002	-0.621677	0.355716
61933		9.767422	0.182741	-1.064402	0.007686	0.000531	-0.005973	-0.642578	-0.488525	-0.162109	0.567593	0.405939	-0.621715	0.355701
61934		9.748529	0.234821	-1.078693	0.009175	0.001505	-0.006402	-0.637695	-0.492676	-0.165039	0.567531	0.405934	-0.621731	0.355777
61935		9.758599	0.188967	-1.066066	0.001359	0.000488	-0.005462	-0.638916	-0.495850	-0.156982	0.567563	0.405845	-0.621788	0.355727
61936		9.749245	0.172228	-1.058331	0.006227	-0.001046	-0.006805	-0.635742	-0.496094	-0.163330	0.567487	0.405918	-0.621785	0.355771
61937		9.755723	0.222861	-1.047298	0.002756	-0.003481	-0.007892	-0.631348	-0.489258	-0.158203	0.567494	0.405907	-0.621832	0.355690
61938		9.738509	0.200925	-1.061638	0.001657	0.001695	-0.006026	-0.630615	-0.494141	-0.161133	0.567469	0.405922	-0.621826	0.355722
61939		9.745235	0.202505	-1.090189	0.007450	-0.001880	-0.007932	-0.638428	-0.496338	-0.155273	0.567450	0.405977	-0.621816	0.355709
61940		9.752016	0.219035	-1.048708	-0.000221	-0.000371	-0.009421	-0.642822	-0.500488	-0.161377	0.567410	0.406044	-0.621814	0.355699
61941		9.748937	0.181523	-1.059614	0.002306	-0.000835	-0.010387	-0.637939	-0.496582	-0.159912	0.567424	0.406055	-0.621834	0.355628
61942		9.747057	0.205841	-1.060455	0.010338	-0.002342	-0.011984	-0.635986	-0.498047	-0.156738	0.567378	0.406165	-0.621808	0.355621
61943		9.758285	0.222623	-1.038420	0.011056	-0.003176	-0.008789	-0.635010	-0.491943	-0.165283	0.567288	0.406304	-0.621777	0.355660
61944		9.741237	0.204728	-1.093184	0.004093	-0.001184	-0.010185	-0.635254	-0.488770	-0.163330	0.567326	0.406275	-0.621807	0.355582
61945		9.733964	0.185540	-1.054855	0.002675	0.000370	-0.011567	-0.635986	-0.493652	-0.156006	0.567357	0.406257	-0.621824	0.355522
61946		9.755535	0.212034	-1.059648	-0.002203	0.000691	-0.012130	-0.631348	-0.489746	-0.162598	0.567357	0.406310	-0.621815	0.355478
61947		9.750705	0.196649	-1.070873	0.004165	-0.001182	-0.010801	-0.636230	-0.485107	-0.160400	0.567372	0.406323	-0.621824	0.355423
61948		9.738966	0.233616	-1.053872	0.006732	-0.001040	-0.011123	-0.640869	-0.501709	-0.166260	0.567326	0.406359	-0.621837	0.355431
61949		9.732864	0.208834	-1.075721	0.006548	-0.001643	-0.010532	-0.634033	-0.491455	-0.163818	0.567370	0.406351	-0.621857	0.355336
61950		9.753954	0.213238	-1.070932	0.004461	0.000025	-0.011364	-0.637939	-0.493652	-0.172363	0.567405	0.406347	-0.621865	0.355271
61951		9.753746	0.212223	-1.030634	0.002158	0.001693	-0.010345	-0.632324	-0.498047	-0.163818	0.567542	0.406199	-0.621924	0.355118
61952		9.750371	0.209463	-1.071487	0.003190	-0.000952	-0.012785	-0.640869	-0.491211	-0.161865	0.567609	0.406218	-0.621918	0.355000
61953		9.744909	0.225104	-1.073229	0.002782	-0.002763	-0.012246	-0.638916	-0.495361	-0.170654	0.567588	0.406237	-0.621957	0.354943
61954		9.747903	0.215124	-1.062832	0.002417	-0.000232	-0.010356	-0.641357	-0.494141	-0.159668	0.567692	0.406123	-0.622021	0.354795
61955		9.737142	0.243173	-1.065338	0.004121	0.000745	-0.012638	-0.642090	-0.490723	-0.158447	0.567679	0.406171	-0.622013	0.354775
61956		9.751105	0.211547	-1.091669	-0.001307	0.002985	-0.010721	-0.638916	-0.487549	-0.159180	0.567675	0.406167	-0.622023	0.354769
61957		9.758571	0.198402	-1.058994	-0.003330	0.003443	-0.014074	-0.635742	-0.494385	-0.163086	0.567705	0.406165	-0.622022	0.354725
61958		9.750952	0.214799	-1.050066	0.002990	0.002298	-0.016487	-0.636475	-0.490234	-0.172363	0.567778	0.406197	-0.621989	0.354629
61959		9.753138	0.218771	-1.059369	0.007567	-0.000428	-0.017262	-0.638916	-0.497803	-0.164307	0.567887	0.406153	-0.622009	0.354472
61960		9.750307	0.256778	-1.079902	0.005195	0.002446	-0.013723	-0.640625	-0.490967	-0.158691	0.567951	0.406160	-0.621990	0.354393
61961		9.737689	0.232433	-1.071806	0.003785	0.006412	-0.011299	-0.632812	-0.497314	-0.165283	0.567951	0.406187	-0.621945	0.354441
61962		9.721970	0.220582	-1.074409	0.007729	0.003198	-0.012783	-0.635254	-0.494385	-0.168701	0.568029	0.406202	-0.621903	0.354374
61963		9.715958	0.193235	-1.054704	0.013885	0.005909	-0.018255	-0.638672	-0.487549	-0.159424	0.568135	0.406239	-0.621816	0.354312
61964		9.767675	0.163953	-1.011450	0.021206	0.001523	-0.023744	-0.632812	-0.489746	-0.163086	0.568059	0.406505	-0.621666	0.354393
61965		9.736347	0.162912	-1.029056	0.052877	-0.001632	-0.037599	-0.637695	-0.501465	-0.163330	0.567926	0.407073	-0.621333	0.354537
61966		9.731104	0.063283	-1.190069	0.052415	0.007603	-0.056206	-0.638184	-0.498047	-0.162842	0.567984	0.407729	-0.620846	0.354543
61967		9.729426	0.232728	-1.147251	0.043722	0.023461	-0.079394	-0.635254	-0.507080	-0.159180	0.568291	0.408428	-0.620176	0.354420
61968		9.699373	0.229075	-1.096827	0.013057	0.038796	-0.092059	-0.630371	-0.507324	-0.162598	0.568930	0.408991	-0.619434	0.354042
61969		9.684538	0.140408	-1.029833	0.018825	0.044584	-0.121227	-0.629395	-0.505371	-0.158447	0.569749	0.409762	-0.618484	0.353495
61970		9.709812	0.226863	-1.033511	0.021490	0.043970	-0.144620	-0.620605	-0.502686	-0.162842	0.570588	0.410790	-0.617385	0.352869
61971		9.779780	0.224534	-0.976258	0.027990	0.040185	-0.168219	-0.626221	-0.507568	-0.156250	0.571505	0.412024	-0.616168	0.352073
61972		9.659740	0.272054	-0.995120	0.014713	0.045650	-0.195226	-0.619141	-0.512451	-0.157227	0.572565	0.413419	-0.614809	0.351090
61973		9.754336	0.161600	-1.051286	0.033921	0.045153	-0.241499	-0.620850	-0.517090	-0.163818	0.573747	0.415309	-0.613112	0.349896
61974		9.815497	0.168453	-0.855430	0.030875	0.036192	-0.291179	-0.615967	-0.516602	-0.161133	0.575135	0.417508	-0.611273	0.348213
61975		9.660896	-0.014966	-0.906689	0.075327	0.020607	-0.376272	-0.616699	-0.525146	-0.162354	0.576490	0.420769	-0.608887	0.346222
61976		9.697919	-0.041305	-0.974331	0.084903	0.011104	-0.493901	-0.611084	-0.534668	-0.165039	0.578223	0.424993	-0.605911	0.343380
61977		9.662702	-0.390635	-1.002958	0.074682	-0.000668	-0.671464	-0.592041	-0.540771	-0.156982	0.580689	0.430474	-0.602108	0.339056
61978		9.817029	-0.707848	-0.910910	0.034390	-0.019992	-0.912400	-0.586670	-0.550781	-0.150635	0.584140	0.437614	-0.597193	0.332617
61979		9.542127	-0.527126	-0.670764	0.073354	-0.066367	-1.187258	-0.569580	-0.578125	-0.165283	0.587993	0.447256	-0.590836	0.324253
61980		9.315598	0.870004	-0.476331	0.188719	-0.164842	-1.407071	-0.555664	-0.604492	-0.153320	0.591384	0.459471	-0.583427	0.314269
61981		9.663957	0.893465	-0.153005	0.070631	-0.260729	-1.597247	-0.532471	-0.625000	-0.139404	0.595223	0.472485	-0.575851	0.301436
61982		9.526856	0.954032	-1.246997	0.047644	-0.320781	-1.810769	-0.508057	-0.654297	-0.131836	0.599214	0.486974	-0.567208	0.286486
61983		7.974076	3.315068	-2.120765	-0.140317	-0.263733	-1.824776	-0.486084	-0.671631	-0.131104	0.604475	0.499721	-0.558398	0.270333
61984		7.267524	5.128121	-1.993063	-0.133544	-0.110916	-1.595977	-0.439941	-0.689941	-0.125488	0.609687	0.510136	-0.549626	0.256815
61985		10.686979	2.462268	-2.027259	0.236525	0.060007	-1.415906	-0.429932	-0.713379	-0.117676	0.612934	0.521533	-0.539156	0.248245
61986		9.872464	3.365840	-2.102944	0.333005	0.184774	-1.453818	-0.398193	-0.729004	-0.118408	0.616263	0.533339	-0.527031	0.240847
61987		7.209023	7.464259	-0.668779	0.331504	0.148251	-1.156959	-0.383057	-0.741455	-0.105225	0.618354	0.543082	-0.517034	0.235320
61988		9.122904	8.572759	-0.504172	0.388460	0.074131	-0.525355	-0.371582	-0.742188	-0.107910	0.617619	0.549298	-0.511676	0.234535
61989		12.408695	10.021477	-1.984564	0.156808	0.087400	0.237216	-0.382324	-0.737549	-0.102051	0.616369	0.548688	-0.512207	0.238065
61990		14.025529	11.368406	-1.149810	-0.207646	0.205794	1.270155	-0.402344	-0.734619	-0.119141	0.615218	0.538201	-0.519952	0.247984
61991		20.117986	6.492909	0.046392	-0.784589	0.355072	2.130134	-0.435791	-0.708008	-0.128174	0.615949	0.516923	-0.533848	0.261542
61992		17.724808	0.898833	-0.554105	-1.500532	0.305224	2.535605	-0.469482	-0.670166	-0.158691	0.618956	0.487049	-0.552453	0.272896
61993		10.877168	-1.526599	-1.238429	-1.994883	0.008083	2.803771	-0.509033	-0.618896	-0.189941	0.621015	0.451725	-0.575778	0.280651
61994		5.759026	1.125684	-1.920001	-1.149021	-0.117811	2.664560	-0.548584	-0.574463	-0.194092	0.616895	0.423675	-0.595421	0.292256
61995		4.185175	3.330696	-1.389324	0.346335	0.055866	1.575129	-0.557617	-0.558594	-0.182861	0.609568	0.414274	-0.601977	0.307291
61996		1.665143	6.296809	-0.957822	0.449212	-0.186257	0.457731	-0.572021	-0.548096	-0.168213	0.604037	0.414909	-0.604046	0.313241
61997		0.275357	2.664433	0.274572	-0.538370	-0.146587	0.085954	-0.572754	-0.552246	-0.187256	0.605356	0.410673	-0.607759	0.309064
61998		0.515951	0.262907	0.940848	-0.507224	-0.052632	-0.153637	-0.568359	-0.545410	-0.197510	0.608137	0.408103	-0.609388	0.303756
61999		0.949890	-0.065368	0.752463	-0.157724	-0.047663	-0.427508	-0.568604	-0.552734	-0.186768	0.610188	0.410241	-0.608230	0.299047
62000		1.382208	-0.072110	1.173745	-0.005867	0.032994	-0.732565	-0.547607	-0.550049	-0.196289	0.613176	0.415536	-0.604284	0.293574
62001		0.742791	1.231474	0.478410	-0.141643	0.172755	-1.017193	-0.541260	-0.582764	-0.203613	0.618894	0.421374	-0.598210	0.285585
62002		1.645895	9.178715	-2.213126	-0.530133	0.140577	-1.763195	-0.514160	-0.598145	-0.214355	0.628865	0.429755	-0.589631	0.268654
62003		12.477084	-8.585191	-7.373125	1.563619	0.047979	-2.739491	-0.481445	-0.648682	-0.192139	0.629532	0.461645	-0.568917	0.258664
62004		20.613980	-3.444428	-5.702476	2.177274	-0.614849	-2.837197	-0.446289	-0.692139	-0.145264	0.621119	0.500365	-0.549862	0.247988
62005		23.800853	8.969507	3.319257	1.162546	-0.481735	-2.151988	-0.400391	-0.724121	-0.128906	0.616893	0.525338	-0.536378	0.236141
62006		18.770397	16.964037	-0.824645	0.529344	-0.016088	-0.861794	-0.397705	-0.742676	-0.118652	0.615809	0.535113	-0.529320	0.232925
62007		17.094353	16.164160	-2.369453	-0.506474	0.224996	1.115455	-0.422119	-0.725586	-0.127197	0.617365	0.523025	-0.536540	0.239646
62008		22.143202	7.167958	-2.078978	-1.295302	0.651587	2.618965	-0.451416	-0.684326	-0.160889	0.621923	0.493066	-0.552214	0.255259
62009		19.167427	-1.911103	-0.389673	-1.933482	0.591238	3.347391	-0.497070	-0.633545	-0.197510	0.626499	0.452377	-0.573826	0.271253
62010		8.683289	-2.971891	-3.929090	-1.400937	0.186396	3.532101	-0.545898	-0.580322	-0.214844	0.623075	0.414853	-0.596485	0.289621
62011		6.061436	8.528169	-3.064071	0.870350	0.208169	1.988656	-0.568359	-0.545654	-0.201172	0.612672	0.405821	-0.601853	0.312595
62012		1.822881	11.819909	-3.099826	1.030806	-0.194913	-0.168053	-0.569824	-0.550049	-0.186768	0.606566	0.415618	-0.598490	0.318040
62013		0.291926	2.266716	0.819691	-0.215112	-0.260255	-0.583788	-0.565674	-0.561523	-0.187744	0.608030	0.419274	-0.598373	0.310577
62014		0.504801	0.713191	0.470950	-0.234960	-0.322968	-0.913702	-0.543457	-0.578613	-0.191406	0.610342	0.425445	-0.597012	0.300092
62015		0.968230	-0.696866	1.510197	-0.118507	-0.243786	-0.996144	-0.544189	-0.590332	-0.182861	0.612848	0.432755	-0.594072	0.290206
62016		1.308189	-0.339385	1.699573	-0.042939	-0.099548	-1.139880	-0.515869	-0.603760	-0.188721	0.616406	0.441118	-0.588857	0.280545
62017		1.206046	0.105432	1.082050	-0.397111	-0.014361	-1.251387	-0.497803	-0.623047	-0.198242	0.622801	0.447164	-0.583474	0.267808
62018		0.853524	-0.305115	0.837751	-0.619578	0.043439	-1.292566	-0.491455	-0.635742	-0.213623	0.630818	0.451452	-0.577982	0.253370
62019		1.028930	-0.007569	1.582580	-0.783560	0.140180	-1.413948	-0.465820	-0.654297	-0.231689	0.640606	0.454847	-0.571359	0.237248
62020		3.469545	2.911237	-0.860747	0.029425	0.340810	-1.811477	-0.434814	-0.681396	-0.236572	0.648089	0.466782	-0.558188	0.224772
62021		11.405423	6.622122	-5.920812	2.057681	-0.082185	-2.666380	-0.400391	-0.720459	-0.205322	0.642445	0.501758	-0.537129	0.216785
62022		17.224359	-0.336524	-6.590241	1.168299	-0.942025	-2.010262	-0.376465	-0.751465	-0.184570	0.633935	0.526820	-0.528805	0.202369
62023		29.107994	5.660275	-0.864704	0.786680	-0.496670	-1.366209	-0.361084	-0.765869	-0.173828	0.628797	0.543104	-0.521804	0.193323
62024		28.163742	13.948243	0.917026	0.513394	0.128534	-0.466037	-0.350830	-0.776855	-0.163330	0.627254	0.549752	-0.516475	0.193853
62025		20.390245	17.327019	0.625541	-0.275960	0.394611	1.130561	-0.370361	-0.764893	-0.164551	0.628890	0.539184	-0.521829	0.203647
62026		21.148392	8.358294	-4.632622	-1.821597	0.494670	2.652218	-0.400879	-0.720947	-0.200928	0.637127	0.505783	-0.540075	0.215804
62027		18.307661	-2.215008	-0.877694	-3.159235	0.176245	3.580813	-0.458252	-0.660889	-0.260010	0.647490	0.455013	-0.568912	0.223739
62028		9.871456	-2.883193	-1.734000	-1.176569	0.096225	3.234437	-0.505127	-0.601074	-0.267334	0.645220	0.421718	-0.589332	0.241936
62029		6.656094	3.045203	-1.044534	2.014950	0.296829	1.320365	-0.506104	-0.597900	-0.229736	0.632486	0.427062	-0.587577	0.268948
62030		3.098270	5.935999	-0.882353	1.855477	0.027778	-0.329591	-0.503906	-0.614502	-0.200195	0.623705	0.443864	-0.579235	0.280113
62031		-1.077045	-1.286604	0.997971	0.940304	-0.002346	0.212063	-0.505859	-0.616943	-0.182861	0.617672	0.449558	-0.577144	0.288590
62032		-1.115946	-0.331057	0.247439	0.155521	0.000762	0.795904	-0.523193	-0.609619	-0.177979	0.613888	0.444913	-0.581064	0.295904
62033		-0.287481	0.585771	-0.229447	-0.664459	0.038979	1.349496	-0.536621	-0.580811	-0.190674	0.612750	0.429710	-0.590669	0.301657
62034		0.493409	0.944335	-0.587792	-1.178922	-0.090037	1.387787	-0.552246	-0.550537	-0.198242	0.613012	0.410576	-0.603154	0.303065
62035		0.944188	0.790514	0.164015	-1.025775	-0.054957	1.182710	-0.579834	-0.532715	-0.217285	0.613248	0.393843	-0.613465	0.304097
62036		0.667693	1.275789	-0.595851	-0.134864	0.018014	0.717207	-0.587402	-0.524414	-0.210693	0.611283	0.387132	-0.617401	0.308671
62037		0.924757	2.032255	-0.329650	0.443840	0.113153	0.131532	-0.585693	-0.523193	-0.220215	0.609473	0.388979	-0.615503	0.313679
62038		0.823388	1.844987	-0.628306	0.389220	0.142760	-0.585453	-0.578125	-0.531738	-0.220215	0.610941	0.395778	-0.610081	0.312908
62039		6.806542	18.760866	-0.858368	0.072201	-0.053744	-1.915804	-0.559082	-0.574463	-0.222656	0.617485	0.410937	-0.600629	0.298476
62040		14.608214	5.912880	-9.356206	0.266661	-0.647888	-3.387264	-0.510742	-0.612305	-0.205566	0.623313	0.440357	-0.586769	0.270683
62041		13.688054	-0.042764	-3.129388	-1.362274	-0.590231	-1.667322	-0.497070	-0.628662	-0.230713	0.631878	0.443693	-0.586694	0.244248
62042		24.538736	0.201859	-1.929817	1.292850	-0.618723	-1.043274	-0.495850	-0.656250	-0.206787	0.623204	0.463213	-0.581844	0.241882
62043		36.955366	-13.786825	8.284068	0.586289	0.437864	-1.263695	-0.477783	-0.676270	-0.198242	0.626712	0.475448	-0.569387	0.238704
62044		2.331808	19.994830	-2.648632	1.807537	-0.323451	-0.909907	-0.460693	-0.688477	-0.168213	0.616176	0.496790	-0.560999	0.242501
62045		6.174044	11.797577	-5.838808	-0.441539	-0.009821	0.982199	-0.482910	-0.679443	-0.176025	0.615821	0.486374	-0.568562	0.246866
62046		13.470331	-0.904059	1.429280	0.502453	0.132248	1.042031	-0.499512	-0.667480	-0.171875	0.610427	0.482265	-0.572389	0.259172
62047		9.953033	4.106779	-1.752422	0.539225	0.310717	1.013756	-0.511963	-0.654541	-0.163574	0.606051	0.477959	-0.574422	0.272574
62048		7.412688	3.852911	-0.804738	-0.124934	0.300968	1.290694	-0.522217	-0.634033	-0.178223	0.604476	0.466556	-0.580292	0.283187
62049		9.093582	2.350826	1.002987	-0.099635	0.208631	1.351732	-0.544434	-0.617432	-0.187744	0.601705	0.455084	-0.586970	0.293796
62050		9.721789	-0.739970	-0.915449	-0.105786	0.107671	1.103789	-0.555908	-0.590576	-0.191650	0.598993	0.445643	-0.592866	0.301859
62051		10.005845	-1.288277	-1.772443	-0.021875	0.193859	0.628992	-0.571045	-0.584961	-0.193604	0.598160	0.439970	-0.595069	0.307447
62052		10.070479	-2.060630	-1.700506	0.127850	0.338502	0.270216	-0.562500	-0.582520	-0.195801	0.598923	0.437512	-0.593605	0.312263
62053		10.111566	-0.771824	-1.171972	0.247655	0.182548	0.012775	-0.570557	-0.584229	-0.200439	0.598864	0.438461	-0.591414	0.315188
62054		9.743697	2.934186	-0.308710	0.486422	0.140497	0.005752	-0.565918	-0.586670	-0.186523	0.597195	0.441401	-0.588545	0.319591
62055		9.010868	2.645908	-0.614568	0.988010	0.070331	0.103703	-0.571533	-0.587891	-0.177734	0.591792	0.447609	-0.584671	0.328007
62056		9.090506	1.697213	-0.366717	0.685074	0.095173	0.284323	-0.572510	-0.590332	-0.166748	0.587455	0.450097	-0.582801	0.335637
62057		8.359892	3.564400	-1.798057	0.439263	-0.084627	0.447282	-0.580811	-0.578369	-0.159912	0.582463	0.450316	-0.584152	0.341641
62058		9.034026	3.693755	0.019486	-0.684764	-0.076259	0.661408	-0.592773	-0.569580	-0.174561	0.582886	0.440703	-0.591394	0.340995
62059		9.203951	2.519133	0.508143	-0.855250	-0.085357	0.814426	-0.599854	-0.552490	-0.182129	0.583426	0.428672	-0.600165	0.340083
62060		9.939443	-0.682479	0.310782	-0.514128	-0.225588	0.714597	-0.610840	-0.538574	-0.182617	0.581408	0.420401	-0.607860	0.340198
62061		10.052814	-0.831256	-1.509541	-0.060036	-0.298027	0.517254	-0.621338	-0.531738	-0.180664	0.577234	0.417201	-0.613048	0.341929
62062		9.746510	-0.202523	-2.346191	-0.045715	-0.252280	0.394229	-0.618408	-0.524902	-0.180908	0.573836	0.414830	-0.617177	0.343106
62063		9.722929	-1.000269	-1.849386	0.038342	-0.238730	0.300062	-0.627441	-0.519287	-0.177002	0.570495	0.413716	-0.620344	0.344307
62064		10.056222	0.450921	-0.648664	0.294209	-0.202431	0.227371	-0.628662	-0.512939	-0.169189	0.566409	0.414822	-0.621762	0.347154
62065		10.242550	0.833314	-1.047698	0.083404	-0.157732	0.258468	-0.633789	-0.509521	-0.166016	0.563615	0.413991	-0.623924	0.348811
62066		9.708728	0.159214	-1.348328	0.084195	-0.142396	0.275192	-0.641357	-0.501709	-0.165039	0.560854	0.412962	-0.626050	0.350666
62067		9.654823	0.172786	-1.689747	-0.041226	-0.102654	0.266073	-0.643799	-0.507080	-0.169922	0.559084	0.410942	-0.628392	0.351674
62068		10.171594	-0.069196	-1.286201	-0.200834	-0.055972	0.227354	-0.648926	-0.497559	-0.167969	0.558665	0.407899	-0.630902	0.351389
62069		9.757676	-0.368724	-1.435815	-0.154629	-0.054726	0.170049	-0.649414	-0.497803	-0.169434	0.558262	0.405622	-0.632899	0.351074
62070		9.539420	-0.324773	-2.010709	-0.122221	-0.017597	0.093016	-0.651855	-0.486816	-0.176514	0.558322	0.404016	-0.634099	0.350664
62071		9.568229	-0.590500	-1.120065	-0.095438	-0.011806	0.014183	-0.647217	-0.490723	-0.163574	0.558638	0.403191	-0.634745	0.349943
62072		9.781874	-0.235240	-0.979021	0.063561	-0.011104	-0.072862	-0.653564	-0.499268	-0.173584	0.558533	0.404170	-0.634247	0.349882
62073		9.752042	0.127894	-1.368507	0.072839	-0.016686	-0.100054	-0.646729	-0.495361	-0.167236	0.558459	0.405451	-0.633608	0.349678
62074		9.677546	0.427332	-1.626965	0.027232	-0.002578	-0.104518	-0.648193	-0.494873	-0.167236	0.558744	0.406386	-0.633047	0.349152
62075		9.632989	0.457674	-1.503949	-0.097020	0.020272	-0.075214	-0.648682	-0.499023	-0.162842	0.559712	0.406121	-0.633018	0.347961
62076		9.614333	0.155682	-1.034356	-0.054435	0.009148	-0.060366	-0.645996	-0.502930	-0.162109	0.560309	0.406085	-0.632956	0.347153
62077		9.706299	0.099233	-0.945855	0.035944	-0.015213	-0.066399	-0.638672	-0.495117	-0.170166	0.560281	0.406837	-0.632640	0.346894
62078		9.762263	0.319300	-1.457356	0.075004	-0.019756	-0.066156	-0.636475	-0.500488	-0.166016	0.560019	0.407876	-0.632186	0.346924
62079		9.732780	0.286705	-1.406505	0.016462	-0.002589	-0.055067	-0.638428	-0.501221	-0.162598	0.560142	0.408345	-0.631922	0.346655
62080		9.701233	0.169108	-1.441757	-0.000066	0.011736	-0.063373	-0.646240	-0.501221	-0.162842	0.560497	0.408702	-0.631587	0.346270
62081		9.676644	0.189618	-1.362181	-0.000436	0.029510	-0.077416	-0.643799	-0.502930	-0.170166	0.561054	0.409089	-0.631059	0.345875
62082		9.740960	0.362332	-1.231771	-0.001916	0.030837	-0.066939	-0.645264	-0.501465	-0.169189	0.561586	0.409374	-0.630581	0.345546
62083		9.748398	0.300222	-1.343478	0.024405	0.023536	-0.056836	-0.639648	-0.499756	-0.167480	0.561880	0.409795	-0.630094	0.345458
62084		9.728189	0.539303	-1.241752	-0.014149	0.029192	-0.030236	-0.643311	-0.496094	-0.160645	0.562301	0.409712	-0.629868	0.345282
62085		9.707380	0.185100	-1.308222	-0.011187	0.035317	-0.018594	-0.639893	-0.503418	-0.165039	0.562700	0.409534	-0.629648	0.345245
62086		9.757578	0.168709	-1.368238	0.022006	0.042242	-0.032404	-0.632080	-0.506836	-0.162354	0.563047	0.409669	-0.629161	0.345407
62087		9.782287	0.237810	-1.312413	0.017398	0.047532	-0.039018	-0.634521	-0.502686	-0.172607	0.563486	0.409806	-0.628620	0.345513
62088		9.735425	0.405047	-1.250586	0.003963	0.054186	-0.036581	-0.637451	-0.506836	-0.176514	0.564041	0.409790	-0.628106	0.345561
62089		9.707542	0.318111	-1.213184	-0.031098	0.058243	-0.028423	-0.637939	-0.506104	-0.171143	0.564773	0.409445	-0.627757	0.345409
62090		9.716502	0.319251	-1.147852	0.002736	0.053711	-0.031698	-0.635742	-0.516602	-0.171875	0.565305	0.409387	-0.627276	0.345480
62091		9.743844	0.446181	-1.199128	-0.021290	0.051416	-0.020639	-0.640869	-0.518799	-0.178223	0.565896	0.409089	-0.626966	0.345431
62092		9.731380	0.297350	-1.278742	-0.026330	0.059615	-0.012921	-0.637695	-0.503906	-0.175049	0.566545	0.408654	-0.626660	0.345435
62093		9.762413	0.416672	-1.155632	-0.036919	0.071880	-0.005105	-0.633789	-0.509766	-0.173340	0.567306	0.408026	-0.626359	0.345475
62094		9.755391	0.245104	-1.139582	-0.055792	0.078023	0.006034	-0.634033	-0.510498	-0.173340	0.568162	0.407157	-0.626146	0.345479
62095		9.766226	0.174094	-1.036838	-0.029174	0.092359	-0.003754	-0.638916	-0.508545	-0.180908	0.569034	0.406494	-0.625664	0.345698
62096		9.736460	0.320219	-1.113078	-0.022637	0.074587	-0.011495	-0.633545	-0.498779	-0.187988	0.569770	0.406007	-0.625245	0.345818
62097		9.719111	0.324566	-1.151678	-0.008280	0.055336	-0.013404	-0.637939	-0.509033	-0.180420	0.570296	0.405709	-0.624896	0.345931
62098		9.725299	0.367109	-1.008159	-0.022545	0.040368	-0.014746	-0.633545	-0.509033	-0.186279	0.570774	0.405398	-0.624701	0.345857
62099		9.719901	0.281991	-1.022107	-0.002413	0.025733	-0.016511	-0.634766	-0.508301	-0.193604	0.571050	0.405305	-0.624514	0.345850
62100		9.727493	0.394426	-1.102128	0.022878	0.040053	-0.014511	-0.628174	-0.495605	-0.182617	0.571306	0.405307	-0.624128	0.346121
62101		9.732949	0.389853	-1.031339	-0.024665	0.038617	-0.004451	-0.635010	-0.500732	-0.186279	0.571737	0.404902	-0.624012	0.346093
62102		9.770178	0.314928	-1.114155	0.011497	0.038781	-0.009598	-0.635986	-0.499268	-0.188721	0.572010	0.404793	-0.623712	0.346308
62103		9.756152	0.374004	-0.998647	-0.019435	0.028274	-0.000354	-0.634766	-0.510498	-0.189453	0.572319	0.404433	-0.623671	0.346293
62104		9.734128	0.279151	-0.999399	0.014156	0.015106	-0.002974	-0.630127	-0.504639	-0.182617	0.572369	0.404399	-0.623556	0.346458
62105		9.702375	0.385210	-1.012838	0.006463	0.014529	-0.002017	-0.635498	-0.501953	-0.194092	0.572442	0.404313	-0.623480	0.346575
62106		9.699597	0.327235	-1.040718	0.006363	0.013924	-0.002043	-0.641602	-0.500488	-0.192627	0.572521	0.404208	-0.623421	0.346671
62107		9.790455	0.308515	-1.046619	0.013178	0.008569	-0.009473	-0.628662	-0.516113	-0.183838	0.572553	0.404232	-0.623339	0.346741
62108		9.752034	0.393533	-1.023468	-0.004431	0.005784	-0.001633	-0.629883	-0.507324	-0.187012	0.572614	0.404113	-0.623362	0.346737
62109		9.719257	0.310613	-1.010869	0.003318	0.001902	0.001059	-0.638916	-0.507324	-0.191895	0.572595	0.404033	-0.623404	0.346784
62110		9.727401	0.398985	-0.998427	-0.001900	-0.002947	0.006566	-0.642578	-0.496094	-0.185791	0.572544	0.403881	-0.623542	0.346798
62111		9.740778	0.292360	-1.037499	-0.012084	-0.009382	0.009582	-0.622803	-0.499756	-0.188232	0.572471	0.403658	-0.623796	0.346722
62112		9.763868	0.293396	-1.044794	-0.000051	-0.014471	0.005889	-0.635498	-0.501709	-0.183594	0.572325	0.403584	-0.623994	0.346692
62113		9.760563	0.335111	-1.058246	-0.013480	-0.010384	0.009398	-0.641113	-0.503418	-0.184814	0.572252	0.403370	-0.624246	0.346608
62114		9.728011	0.281026	-1.048043	-0.012574	-0.004932	0.009633	-0.632568	-0.504395	-0.190674	0.572217	0.403134	-0.624458	0.346558
62115		9.713608	0.273691	-1.042007	-0.007882	0.000023	0.003442	-0.631592	-0.505615	-0.189697	0.572235	0.402957	-0.624578	0.346520
62116		9.740674	0.315850	-1.044986	0.004471	0.002292	0.002449	-0.638916	-0.495605	-0.190430	0.572211	0.402870	-0.624619	0.346586
62117		9.758715	0.356952	-1.009820	0.003646	0.001665	0.008573	-0.635986	-0.501709	-0.183838	0.572157	0.402714	-0.624720	0.346674
62118		9.756857	0.283683	-1.020822	0.002924	-0.001370	0.010287	-0.634521	-0.497070	-0.190186	0.572068	0.402574	-0.624837	0.346772
62119		9.749363	0.324631	-1.012602	0.001946	-0.001155	0.008307	-0.637695	-0.501221	-0.191650	0.572004	0.402426	-0.624956	0.346835
62120		9.751631	0.273354	-1.052665	-0.016343	0.000036	0.011805	-0.639160	-0.502441	-0.192627	0.572028	0.402116	-0.625161	0.346786
62121		9.745454	0.179263	-1.035102	-0.001349	-0.003533	0.001005	-0.640869	-0.503174	-0.193115	0.571996	0.402013	-0.625272	0.346759
62122		9.775185	0.253702	-1.048672	0.018758	-0.005518	-0.008536	-0.636963	-0.500244	-0.186768	0.571889	0.402136	-0.625262	0.346810
62123		9.777674	0.282463	-1.019339	0.005618	-0.007081	-0.005122	-0.634521	-0.500977	-0.189697	0.571812	0.402156	-0.625333	0.346787
62124		9.760395	0.298928	-1.015567	0.012141	-0.011364	-0.003212	-0.627930	-0.497070	-0.190918	0.571666	0.402223	-0.625414	0.346802
62125		9.726446	0.263383	-1.066703	0.013539	-0.010361	-0.003025	-0.644775	-0.502197	-0.189941	0.571526	0.402292	-0.625482	0.346831
62126		9.730713	0.313142	-1.058166	0.019005	-0.012502	-0.004929	-0.643799	-0.504150	-0.179932	0.571342	0.402418	-0.625544	0.346877
62127		9.755970	0.316176	-1.075156	0.004859	-0.011441	0.000305	-0.640869	-0.505615	-0.188232	0.571199	0.402422	-0.625672	0.346876
62128		9.736757	0.260376	-1.082246	0.004011	-0.007002	0.003425	-0.641846	-0.505127	-0.177734	0.571097	0.402362	-0.625790	0.346899
62129		9.742682	0.222543	-1.032754	0.003829	-0.008697	-0.002870	-0.635986	-0.507568	-0.189697	0.570992	0.402380	-0.625881	0.346888
62130		9.758250	0.272778	-1.071358	0.018081	-0.011081	-0.005630	-0.636963	-0.495850	-0.192383	0.570832	0.402515	-0.625911	0.346939
62131		9.725759	0.326086	-1.081648	0.015966	-0.012098	0.000337	-0.635742	-0.502930	-0.185791	0.570655	0.402565	-0.626013	0.346990
62132		9.715841	0.245393	-1.077075	0.009347	-0.010351	0.000855	-0.642578	-0.501465	-0.182373	0.570511	0.402584	-0.626114	0.347023
62133		9.751036	0.253787	-1.081135	0.019249	-0.008875	-0.001704	-0.634521	-0.501221	-0.195312	0.570331	0.402685	-0.626157	0.347125
62134		9.776334	0.253130	-1.057569	0.016454	-0.010880	-0.002071	-0.639648	-0.500977	-0.188721	0.570180	0.402755	-0.626225	0.347168
62135		9.745183	0.296828	-1.087469	0.017465	-0.010486	0.000549	-0.632080	-0.500977	-0.191650	0.570001	0.402819	-0.626301	0.347250
62136		9.732251	0.259262	-1.093245	0.008435	-0.010853	0.002614	-0.630615	-0.492676	-0.188477	0.569866	0.402805	-0.626421	0.347271
62137		9.736045	0.276856	-1.085090	0.019654	-0.012113	0.000768	-0.634277	-0.501709	-0.181885	0.569666	0.402886	-0.626502	0.347360
62138		9.741899	0.242104	-1.077039	0.015561	-0.014516	0.000246	-0.637939	-0.507080	-0.182373	0.569457	0.402979	-0.626597	0.347423
62139		9.751366	0.251262	-1.108175	0.020749	-0.012211	-0.003470	-0.637939	-0.494629	-0.187744	0.569257	0.403132	-0.626630	0.347514
62140		9.769312	0.226428	-1.136892	0.020241	-0.010291	-0.001618	-0.635254	-0.495605	-0.187256	0.569077	0.403221	-0.626692	0.347595
62141		9.746856	0.282184	-1.094196	0.016429	-0.007747	-0.002628	-0.645996	-0.504639	-0.182373	0.568941	0.403285	-0.626739	0.347655
62142		9.724087	0.239886	-1.111198	0.013357	-0.005307	-0.004802	-0.638916	-0.491943	-0.184326	0.568836	0.403350	-0.626766	0.347703
62143		9.739937	0.216242	-1.129001	0.015545	-0.006223	-0.008931	-0.638184	-0.494385	-0.180908	0.568737	0.403447	-0.626786	0.347719
62144		9.765084	0.288178	-1.084776	0.019488	-0.007553	-0.007256	-0.648193	-0.497803	-0.179199	0.568593	0.403579	-0.626796	0.347783
62145		9.754086	0.270480	-1.069309	0.011203	-0.008731	-0.001998	-0.632568	-0.504150	-0.185547	0.568451	0.403614	-0.626886	0.347814
62146		9.737077	0.270752	-1.135268	0.010655	-0.006204	0.001105	-0.634277	-0.508057	-0.177490	0.568344	0.403622	-0.626943	0.347876
62147		9.737202	0.199574	-1.156344	0.012879	-0.002779	-0.002314	-0.639160	-0.496338	-0.181885	0.568248	0.403686	-0.626934	0.347975
62148		9.737285	0.249659	-1.127030	0.009614	-0.002767	-0.006428	-0.645264	-0.495117	-0.178711	0.568193	0.403716	-0.626957	0.347987
62149		9.755133	0.192423	-1.112870	0.003325	0.002105	-0.009551	-0.649902	-0.496094	-0.180420	0.568210	0.403704	-0.626967	0.347954
62150		9.737190	0.202108	-1.116435	0.008870	0.003192	-0.018241	-0.640625	-0.498779	-0.180664	0.568248	0.403786	-0.626910	0.347902
62151		9.737187	0.259208	-1.125723	0.011288	0.004092	-0.021685	-0.640869	-0.499756	-0.181152	0.568301	0.403924	-0.626796	0.347860
62152		9.730988	0.295087	-1.096104	0.006363	0.004917	-0.020988	-0.638184	-0.496094	-0.180664	0.568384	0.404018	-0.626701	0.347787
62153		9.740325	0.277865	-1.122801	0.008502	0.005115	-0.017622	-0.638916	-0.506348	-0.179688	0.568442	0.404097	-0.626616	0.347753
62154		9.730912	0.254211	-1.124024	0.007433	0.002796	-0.017164	-0.634766	-0.502686	-0.181641	0.568484	0.404199	-0.626530	0.347720
62155		9.747956	0.242627	-1.129151	0.006009	0.004921	-0.017911	-0.640869	-0.493164	-0.192139	0.568560	0.404278	-0.626436	0.347673
62156		9.753896	0.283565	-1.096168	0.002637	0.008567	-0.015739	-0.635742	-0.498047	-0.178955	0.568695	0.404235	-0.626392	0.347580
62157		9.737891	0.263003	-1.107766	-0.003444	0.008983	-0.016431	-0.636963	-0.490723	-0.179443	0.568835	0.404215	-0.626328	0.347492
62158		9.722737	0.301344	-1.079221	-0.004768	0.007976	-0.017225	-0.633789	-0.509277	-0.190430	0.568975	0.404177	-0.626294	0.347369
62159		9.764987	0.261500	-1.098259	0.009418	0.001186	-0.015090	-0.638428	-0.498535	-0.184814	0.569017	0.404261	-0.626221	0.347332
62160		9.765033	0.396157	-1.078235	-0.000357	0.000707	-0.001274	-0.639160	-0.495850	-0.181396	0.569023	0.404158	-0.626293	0.347313
62161		9.734587	0.232550	-1.104746	-0.005752	0.002133	0.004359	-0.634766	-0.496582	-0.182861	0.569032	0.403972	-0.626408	0.347308
62162		9.726152	0.213921	-1.096574	0.015192	-0.001238	-0.003876	-0.635742	-0.502197	-0.176025	0.568951	0.404018	-0.626405	0.347391
62163		9.728441	0.298203	-1.116886	0.009525	-0.003353	-0.006438	-0.635742	-0.490479	-0.183350	0.568875	0.404090	-0.626405	0.347432
62164		9.737012	0.265340	-1.115084	0.007087	0.001399	-0.005386	-0.630371	-0.508057	-0.181396	0.568864	0.404058	-0.626431	0.347440
62165		9.751434	0.269549	-1.081272	0.001006	0.001810	-0.006081	-0.637451	-0.500488	-0.182861	0.568891	0.404047	-0.626416	0.347437
62166		9.768606	0.206355	-1.117084	0.011714	-0.000530	-0.010493	-0.638184	-0.507324	-0.183350	0.568863	0.404121	-0.626386	0.347452
62167		9.753829	0.307350	-1.130490	0.010998	0.003917	-0.008626	-0.636230	-0.491943	-0.181641	0.568867	0.404171	-0.626320	0.347506
62168		9.729385	0.265958	-1.135148	0.004563	0.004331	-0.006248	-0.641602	-0.506592	-0.183350	0.568891	0.404122	-0.626328	0.347509
62169		9.721754	0.307624	-1.085934	0.012152	0.004323	-0.007239	-0.639404	-0.500488	-0.183350	0.568884	0.404160	-0.626271	0.347579
62170		9.726038	0.274728	-1.063944	0.007840	0.003119	-0.004021	-0.641846	-0.499268	-0.180908	0.568876	0.404134	-0.626269	0.347624
62171		9.757119	0.238154	-1.116044	0.015500	0.003112	-0.005625	-0.633789	-0.496582	-0.174072	0.568826	0.404178	-0.626232	0.347723
62172		9.762532	0.248873	-1.123759	0.013500	0.006641	-0.010156	-0.646484	-0.506348	-0.181396	0.568818	0.404260	-0.626133	0.347819
62173		9.753148	0.273073	-1.094527	0.004204	0.005733	-0.011872	-0.638672	-0.500732	-0.185547	0.568872	0.404271	-0.626084	0.347805
62174		9.734687	0.300532	-1.067989	0.005193	0.001797	-0.009956	-0.637451	-0.496826	-0.183350	0.568901	0.404271	-0.626076	0.347772
62175		9.725333	0.277878	-1.109768	0.013265	0.002303	-0.009010	-0.641113	-0.507568	-0.187256	0.568883	0.404317	-0.626040	0.347813
62176		9.764403	0.276064	-1.100059	0.010588	0.002712	-0.006822	-0.633789	-0.500000	-0.180420	0.568883	0.404335	-0.626005	0.347853
62177		9.751480	0.262291	-1.112571	0.005578	0.001699	-0.008044	-0.641357	-0.506348	-0.188232	0.568888	0.404350	-0.625989	0.347859
62178		9.747614	0.242993	-1.082715	0.007497	0.003308	-0.011530	-0.641602	-0.500977	-0.183105	0.568933	0.404372	-0.625946	0.347837
62179		9.759383	0.300784	-1.049806	0.003319	-0.000422	-0.007719	-0.641846	-0.505371	-0.184082	0.568934	0.404355	-0.625976	0.347801
62180		9.733129	0.244029	-1.116260	0.012550	-0.002544	-0.009795	-0.639160	-0.500000	-0.181396	0.568885	0.404438	-0.625959	0.347816
62181		9.745106	0.252264	-1.113818	0.011219	0.000181	-0.010527	-0.634033	-0.495605	-0.186523	0.568859	0.404504	-0.625931	0.347831
62182		9.755148	0.288568	-1.061776	0.010157	-0.002141	-0.010065	-0.641846	-0.502686	-0.181152	0.568841	0.404542	-0.625938	0.347804
62183		9.745137	0.284489	-1.075103	0.008829	-0.005675	-0.009032	-0.642090	-0.502930	-0.184082	0.568772	0.404609	-0.625967	0.347785
62184		9.748757	0.307843	-1.105839	-0.001992	-0.005781	-0.007177	-0.638184	-0.492188	-0.186279	0.568761	0.404571	-0.626060	0.347681
62185		9.745101	0.238850	-1.107213	-0.004352	-0.002252	-0.008638	-0.637207	-0.499023	-0.186523	0.568805	0.404477	-0.626159	0.347539
62186		9.744407	0.259817	-1.078117	0.006175	-0.003962	-0.010558	-0.635254	-0.496582	-0.180176	0.568794	0.404502	-0.626191	0.347471
62187		9.750335	0.280450	-1.078086	0.002339	-0.006485	-0.007930	-0.642090	-0.497314	-0.178223	0.568747	0.404518	-0.626260	0.347406
62188		9.775418	0.254467	-1.093768	0.010571	-0.007186	-0.010100	-0.632080	-0.503174	-0.190430	0.568650	0.404610	-0.626297	0.347391
62189		9.743784	0.299995	-1.123104	-0.005037	-0.006499	-0.008784	-0.642090	-0.501953	-0.182129	0.568691	0.404552	-0.626389	0.347224
62190		9.714088	0.247091	-1.080934	-0.001610	-0.005183	-0.009611	-0.635986	-0.499268	-0.187744	0.568687	0.404538	-0.626463	0.347114
62191		9.689112	0.293283	-1.138375	0.003455	-0.005293	-0.015876	-0.645264	-0.504150	-0.191650	0.568711	0.404586	-0.626489	0.346973
62192		9.718150	0.287570	-1.142295	-0.003452	-0.001060	-0.014737	-0.635254	-0.504395	-0.179199	0.568808	0.404530	-0.626541	0.346784
62193		9.757669	0.235754	-1.122708	0.005935	0.001175	-0.017351	-0.639893	-0.499756	-0.192627	0.568844	0.404637	-0.626467	0.346735
62194		9.776422	0.243333	-1.108117	0.009423	0.000667	-0.021313	-0.636475	-0.496338	-0.183105	0.568924	0.404710	-0.626420	0.346602
62195		9.750871	0.276540	-1.094338	0.009318	-0.001764	-0.023854	-0.635742	-0.502686	-0.170410	0.568956	0.404862	-0.626356	0.346489
62196		9.734137	0.309625	-1.118844	0.016192	-0.001033	-0.023046	-0.630127	-0.505127	-0.181396	0.568905	0.405138	-0.626209	0.346514
62197		9.715125	0.311349	-1.133406	0.016199	0.000795	-0.020524	-0.636963	-0.500977	-0.187012	0.568914	0.405341	-0.626071	0.346512
62198		9.754042	0.312465	-1.124573	0.019192	-0.002216	-0.018356	-0.633545	-0.497559	-0.184082	0.568890	0.405503	-0.626000	0.346490
62199		9.753253	0.334589	-1.095286	0.005580	-0.001337	-0.012447	-0.641357	-0.502686	-0.175049	0.568905	0.405531	-0.626006	0.346422
62200		9.751529	0.318273	-1.116005	0.000560	-0.001844	-0.007433	-0.636963	-0.503174	-0.186523	0.568876	0.405534	-0.626045	0.346396
62201		9.735530	0.264814	-1.129801	-0.000284	-0.001657	-0.010640	-0.638672	-0.503418	-0.185059	0.568923	0.405500	-0.626087	0.346283
62202		9.734772	0.286495	-1.100405	-0.002491	-0.001878	-0.013388	-0.636230	-0.498535	-0.182129	0.568983	0.405479	-0.626126	0.346138
62203		9.734589	0.259399	-1.100767	0.002863	-0.002678	-0.017760	-0.638916	-0.514404	-0.179932	0.569013	0.405543	-0.626126	0.346013
62204		9.744814	0.313047	-1.119561	0.004609	-0.004189	-0.018826	-0.639404	-0.502686	-0.178955	0.569027	0.405680	-0.626079	0.345915
62205		9.739351	0.307921	-1.111672	0.004352	-0.003572	-0.015734	-0.632324	-0.498535	-0.182861	0.569019	0.405763	-0.626079	0.345831
62206		9.739805	0.293212	-1.142099	-0.001304	-0.001385	-0.017597	-0.639648	-0.503906	-0.182861	0.569088	0.405790	-0.626083	0.345679
62207		9.740528	0.304432	-1.092464	0.001133	-0.004212	-0.021092	-0.635254	-0.506348	-0.184814	0.569133	0.405873	-0.626083	0.345506
62208		9.757409	0.324491	-1.100310	0.007968	-0.009717	-0.017899	-0.640869	-0.502197	-0.185303	0.569102	0.406007	-0.626096	0.345377
62209		9.718477	0.343784	-1.141801	0.008134	-0.009112	-0.018492	-0.637939	-0.507812	-0.190918	0.569072	0.406116	-0.626132	0.345233
62210		9.733333	0.302059	-1.139351	-0.001791	-0.001903	-0.019523	-0.637695	-0.506592	-0.181885	0.569188	0.406115	-0.626148	0.345013
62211		9.755805	0.298099	-1.114452	0.002848	-0.001984	-0.022101	-0.637695	-0.505371	-0.174072	0.569247	0.406220	-0.626108	0.344865
62212		9.735030	0.370903	-1.110432	0.006475	-0.004474	-0.019232	-0.633301	-0.504150	-0.188965	0.569215	0.406385	-0.626065	0.344802
62213		9.752033	0.359480	-1.117755	-0.001983	-0.006935	-0.014020	-0.635254	-0.501465	-0.168457	0.569261	0.406371	-0.626141	0.344604
62214		9.744478	0.322578	-1.100966	-0.012002	-0.008505	-0.010219	-0.637939	-0.505371	-0.177246	0.569222	0.406383	-0.626240	0.344475
62215		9.760472	0.303576	-1.159386	-0.009655	-0.010108	-0.011217	-0.635742	-0.505127	-0.173340	0.569209	0.406372	-0.626359	0.344292
62216		9.772882	0.322146	-1.148658	-0.003053	-0.008041	-0.011672	-0.635986	-0.502197	-0.182373	0.569163	0.406432	-0.626415	0.344195
62217		9.726867	0.328342	-1.130680	-0.008526	-0.004653	-0.013490	-0.631836	-0.498535	-0.183350	0.569223	0.406384	-0.626501	0.343996
62218		9.691348	0.294932	-1.169393	-0.002375	-0.001191	-0.018951	-0.634521	-0.503418	-0.186279	0.569309	0.406401	-0.626511	0.343816
62219		9.713313	0.383431	-1.144835	0.008007	-0.000310	-0.021480	-0.633789	-0.507080	-0.177246	0.569373	0.406498	-0.626458	0.343691
62220		9.719953	0.384872	-1.133509	0.007259	-0.001511	-0.016608	-0.636719	-0.504150	-0.182617	0.569369	0.406627	-0.626399	0.343653
62221		9.728327	0.345037	-1.141561	0.003960	0.000192	-0.012605	-0.635010	-0.503662	-0.176758	0.569400	0.406641	-0.626401	0.343583
62222		9.761251	0.357699	-1.133908	0.001634	0.000574	-0.013486	-0.633057	-0.501221	-0.177002	0.569420	0.406685	-0.626383	0.343529
62223		9.735948	0.326974	-1.119453	-0.002148	-0.000066	-0.013929	-0.636963	-0.507080	-0.181885	0.569459	0.406702	-0.626388	0.343436
62224		9.712311	0.358067	-1.115232	0.008318	-0.001695	-0.015244	-0.638916	-0.510010	-0.166748	0.569461	0.406790	-0.626359	0.343381
62225		9.735086	0.367323	-1.160743	0.012878	-0.003062	-0.013499	-0.634766	-0.496094	-0.186523	0.569343	0.407007	-0.626276	0.343472
62226		9.731223	0.351501	-1.172388	0.013407	-0.003155	-0.012817	-0.634277	-0.505127	-0.175537	0.569323	0.407044	-0.626304	0.343409
62227		9.722010	0.385112	-1.134923	0.006931	0.000935	-0.010386	-0.639648	-0.514404	-0.174316	0.569302	0.407110	-0.626269	0.343429
62228		9.746177	0.368807	-1.129261	0.015180	-0.000392	-0.008218	-0.637207	-0.509277	-0.185303	0.569211	0.407254	-0.626194	0.343546
62229		9.719950	0.357486	-1.125480	0.010380	-0.000930	-0.005044	-0.635986	-0.507812	-0.179199	0.569186	0.407254	-0.626209	0.343562
62230		9.737438	0.385876	-1.161907	0.012224	0.000003	-0.003576	-0.634766	-0.509277	-0.186279	0.569122	0.407287	-0.626200	0.343644
62231		9.732935	0.315650	-1.152261	0.008448	0.002484	-0.005215	-0.632324	-0.504883	-0.181152	0.569143	0.407259	-0.626193	0.343655
62232		9.742130	0.384624	-1.139977	0.015318	0.003262	-0.004416	-0.638916	-0.507324	-0.177246	0.569106	0.407291	-0.626151	0.343755
62233		9.741511	0.375288	-1.149258	0.009917	0.004648	0.001203	-0.634766	-0.506836	-0.187012	0.569057	0.407253	-0.626148	0.343885
62234		9.732869	0.346999	-1.150343	0.016673	0.002381	-0.001163	-0.638428	-0.506592	-0.183105	0.569023	0.407236	-0.626141	0.343976
62235		9.769865	0.344036	-1.131441	0.011849	0.001235	0.001377	-0.634033	-0.503662	-0.177979	0.568969	0.407185	-0.626175	0.344063
62236		9.720537	0.327621	-1.122458	0.010721	0.001423	0.000628	-0.637695	-0.508545	-0.180420	0.568902	0.407165	-0.626190	0.344171
62237		9.726910	0.357735	-1.150778	0.007863	0.003722	0.001576	-0.638916	-0.504883	-0.179443	0.568875	0.407101	-0.626204	0.344265
62238		9.729074	0.314280	-1.129058	0.008003	0.003717	0.000348	-0.635742	-0.504150	-0.178467	0.568845	0.407038	-0.626227	0.344349
62239		9.749165	0.339082	-1.133929	0.009389	0.002911	-0.001990	-0.631836	-0.505615	-0.185303	0.568809	0.407018	-0.626226	0.344432
62240		9.735781	0.342399	-1.116294	0.008214	0.003710	-0.001493	-0.635498	-0.509521	-0.183838	0.568827	0.406953	-0.626230	0.344471
62241		9.724706	0.317184	-1.147768	0.005699	0.004704	0.000097	-0.634277	-0.506836	-0.177246	0.568848	0.406870	-0.626237	0.344523
62242		9.739202	0.321008	-1.113605	-0.000040	0.001905	-0.002466	-0.637695	-0.507080	-0.174072	0.568850	0.406818	-0.626258	0.344542
62243		9.764973	0.294328	-1.126999	0.001580	0.001699	-0.006013	-0.638916	-0.507568	-0.181152	0.568835	0.406821	-0.626255	0.344569
62244		9.761463	0.320287	-1.168025	0.008477	-0.000574	-0.009602	-0.631836	-0.500488	-0.186768	0.568821	0.406862	-0.626245	0.344562
62245		9.744923	0.344340	-1.111906	0.002896	0.000894	-0.007738	-0.643799	-0.499023	-0.177734	0.568877	0.406789	-0.626287	0.344479
62246		9.714832	0.345176	-1.118579	0.001228	0.001713	-0.002945	-0.636963	-0.502197	-0.182617	0.568862	0.406689	-0.626369	0.344475
62247		9.701091	0.351821	-1.141910	0.004642	-0.001900	-0.005087	-0.644531	-0.510742	-0.171631	0.568846	0.406644	-0.626430	0.344441
62248		9.738772	0.331577	-1.153179	-0.003174	0.000549	-0.004089	-0.638184	-0.502197	-0.179199	0.568817	0.406622	-0.626460	0.344462
62249		9.740133	0.280599	-1.142173	-0.000333	0.000765	-0.006868	-0.627686	-0.499756	-0.177246	0.568835	0.406566	-0.626506	0.344415
62250		9.755691	0.307650	-1.128298	0.004146	0.003218	-0.010050	-0.630127	-0.506592	-0.183350	0.568863	0.406590	-0.626465	0.344414
62251		9.746261	0.344188	-1.130139	0.001845	0.002370	-0.012813	-0.628906	-0.504150	-0.183350	0.568942	0.406603	-0.626426	0.344339
62252		9.722982	0.343720	-1.125055	0.004608	0.001298	-0.011265	-0.634033	-0.504639	-0.174805	0.568991	0.406620	-0.626399	0.344286
62253		9.729767	0.343427	-1.113218	0.011433	0.000866	-0.011727	-0.637207	-0.505371	-0.179199	0.568949	0.406742	-0.626327	0.344344
62254		9.740258	0.333293	-1.130812	0.011546	-0.001041	-0.009873	-0.625244	-0.503174	-0.179199	0.568906	0.406818	-0.626302	0.344369
62255		9.747080	0.375337	-1.149829	0.007302	0.000229	-0.009102	-0.640869	-0.503174	-0.180664	0.568906	0.406876	-0.626260	0.344378
62256		9.752042	0.343469	-1.128421	-0.000080	-0.001151	-0.006241	-0.634033	-0.504639	-0.181396	0.568910	0.406807	-0.626336	0.344314
62257		9.739355	0.329104	-1.141291	0.003883	0.000716	-0.005760	-0.633545	-0.508789	-0.182861	0.568920	0.406777	-0.626355	0.344300
62258		9.737813	0.339779	-1.121445	0.002636	0.001517	-0.004650	-0.644287	-0.507812	-0.183105	0.568946	0.406738	-0.626361	0.344290
62259		9.741513	0.331321	-1.150559	0.007965	-0.001156	-0.005934	-0.634033	-0.508789	-0.178955	0.568919	0.406721	-0.626401	0.344283
62260		9.743183	0.320846	-1.130343	0.005757	-0.001401	-0.008679	-0.637939	-0.504395	-0.186035	0.568901	0.406776	-0.626381	0.344284
62261		9.741308	0.334980	-1.151241	0.009148	-0.000663	-0.010143	-0.628418	-0.505371	-0.177979	0.568915	0.406777	-0.626396	0.344232
62262		9.733915	0.328155	-1.132956	0.006151	-0.000196	-0.010482	-0.635986	-0.500000	-0.182861	0.568912	0.406851	-0.626350	0.344234
62263		9.730557	0.351680	-1.133744	-0.000821	0.002070	-0.006285	-0.630127	-0.504395	-0.178223	0.568965	0.406744	-0.626413	0.344158
62264		9.753091	0.347286	-1.148143	0.006054	0.001032	-0.007991	-0.632568	-0.512207	-0.182129	0.568960	0.406781	-0.626383	0.344177
62265		9.741813	0.351599	-1.140388	0.004546	0.002455	-0.003796	-0.632324	-0.505371	-0.177734	0.568979	0.406770	-0.626356	0.344208
62266		9.740072	0.321684	-1.130046	0.005033	0.001144	-0.004378	-0.636719	-0.507080	-0.181152	0.568960	0.406773	-0.626349	0.344249
62267		9.745799	0.341550	-1.128681	0.002155	0.000993	-0.006576	-0.633789	-0.510010	-0.178955	0.568979	0.406743	-0.626365	0.344224
62268		9.740045	0.324088	-1.129587	0.001803	0.001009	-0.003509	-0.640869	-0.511475	-0.178467	0.568977	0.406728	-0.626363	0.344248
62269		9.720104	0.343003	-1.154343	0.006950	0.000249	-0.006032	-0.641113	-0.508545	-0.178711	0.568942	0.406764	-0.626347	0.344292
62270		9.733175	0.328992	-1.140734	-0.006708	0.002928	-0.002603	-0.635010	-0.500488	-0.181152	0.568984	0.406645	-0.626406	0.344255
62271		9.752453	0.302578	-1.125581	0.004850	-0.000069	-0.004413	-0.632812	-0.501465	-0.184326	0.568974	0.406594	-0.626455	0.344245
62272		9.783090	0.356244	-1.139242	0.009716	-0.000816	-0.004482	-0.636230	-0.504639	-0.182373	0.568954	0.406570	-0.626486	0.344249
62273		9.724064	0.334201	-1.142551	-0.002054	0.002190	-0.000832	-0.640137	-0.506348	-0.176025	0.568987	0.406443	-0.626552	0.344224
62274		9.697365	0.312604	-1.148078	-0.000665	0.001384	-0.003168	-0.629395	-0.510254	-0.181152	0.568972	0.406394	-0.626587	0.344242
62275		9.728105	0.323690	-1.130606	0.009854	0.002302	-0.006913	-0.632324	-0.499023	-0.180664	0.568970	0.406465	-0.626508	0.344306
62276		9.728272	0.365140	-1.120631	0.008191	0.001286	-0.004632	-0.642090	-0.505127	-0.180420	0.568954	0.406440	-0.626525	0.344330
62277		9.750739	0.319531	-1.144238	0.002970	0.005171	-0.002702	-0.634277	-0.506348	-0.181152	0.568974	0.406351	-0.626550	0.344359
62278		9.745135	0.301759	-1.144123	0.003252	0.005157	-0.005156	-0.642822	-0.510742	-0.182617	0.569015	0.406312	-0.626526	0.344380
62279		9.764021	0.306813	-1.128527	0.006692	0.005284	-0.007864	-0.640137	-0.510498	-0.187256	0.569049	0.406306	-0.626486	0.344404
62280		9.725710	0.360268	-1.117168	0.010313	0.002217	-0.005616	-0.635254	-0.502930	-0.184326	0.569062	0.406294	-0.626472	0.344422
62281		9.735121	0.329577	-1.154181	0.012540	0.003080	-0.002240	-0.639893	-0.507324	-0.180176	0.569044	0.406262	-0.626471	0.344490
62282		9.738537	0.308542	-1.152537	0.011532	0.002643	-0.004847	-0.634766	-0.506104	-0.179443	0.569009	0.406285	-0.626444	0.344571
62283		9.731415	0.340471	-1.123956	0.011391	0.002651	-0.003620	-0.635010	-0.507324	-0.182617	0.568972	0.406314	-0.626406	0.344667
62284		9.743420	0.347346	-1.120426	-0.001022	0.004522	-0.001310	-0.634277	-0.493408	-0.177002	0.569022	0.406210	-0.626427	0.344669
62285		9.736106	0.298454	-1.110508	0.004057	0.003768	-0.003215	-0.645264	-0.501465	-0.186035	0.569013	0.406129	-0.626472	0.344698
62286		9.724190	0.335316	-1.142994	0.008343	0.003729	-0.002718	-0.639648	-0.500732	-0.182129	0.569023	0.406016	-0.626533	0.344704
62287		9.753761	0.284398	-1.114699	0.008974	0.002410	-0.004524	-0.635254	-0.505615	-0.170898	0.569009	0.405973	-0.626557	0.344733
62288		9.739748	0.319369	-1.097887	0.010913	0.002126	-0.005544	-0.636719	-0.504395	-0.184082	0.568921	0.406085	-0.626481	0.344884
62289		9.749889	0.338732	-1.115552	0.011261	0.000823	-0.004896	-0.638916	-0.503662	-0.182617	0.568903	0.406082	-0.626482	0.344917
62290		9.733899	0.304822	-1.138424	0.002096	0.003440	-0.002826	-0.636963	-0.507080	-0.172607	0.568930	0.405986	-0.626521	0.344913
62291		9.740190	0.293490	-1.136010	0.003578	0.003240	-0.005142	-0.644775	-0.510498	-0.179688	0.568897	0.406027	-0.626476	0.345003
62292		9.739219	0.313593	-1.106041	0.004254	0.000022	-0.004477	-0.638184	-0.499512	-0.186035	0.568867	0.406019	-0.626493	0.345028
62293		9.744880	0.332981	-1.105006	0.004641	-0.000057	-0.002568	-0.641846	-0.507324	-0.175781	0.568876	0.405907	-0.626580	0.344988
62294		9.726019	0.289772	-1.128780	0.001946	0.000998	-0.004735	-0.629639	-0.506592	-0.183594	0.568846	0.405904	-0.626588	0.345026
62295		9.742379	0.297227	-1.144824	0.003448	0.001409	-0.006420	-0.633789	-0.501709	-0.179688	0.568884	0.405900	-0.626565	0.345012
62296		9.732297	0.320625	-1.117127	0.009075	0.001181	-0.007009	-0.634033	-0.499023	-0.173340	0.568863	0.405929	-0.626545	0.345048
62297		9.727191	0.313010	-1.108063	0.004608	0.000001	-0.007542	-0.638428	-0.499023	-0.183594	0.568818	0.405968	-0.626541	0.345084
62298		9.734986	0.293001	-1.125962	0.009197	0.000561	-0.008866	-0.640137	-0.511475	-0.181885	0.568821	0.405950	-0.626565	0.345055
62299		9.745675	0.322841	-1.133726	0.008759	0.001256	-0.009531	-0.636475	-0.498047	-0.177002	0.568820	0.406015	-0.626511	0.345078
62300		9.740161	0.303758	-1.094213	0.009397	0.002389	-0.008201	-0.631592	-0.512451	-0.179443	0.568794	0.406037	-0.626498	0.345120
62301		9.736570	0.329355	-1.135092	0.009307	0.001782	-0.008218	-0.634521	-0.505615	-0.184326	0.568782	0.406149	-0.626394	0.345195
62302		9.723490	0.345631	-1.147864	0.007263	0.003298	-0.004712	-0.634521	-0.496826	-0.179199	0.568807	0.406121	-0.626378	0.345216
62303		9.728199	0.303493	-1.135056	0.006882	0.005830	-0.003488	-0.637939	-0.500732	-0.180420	0.568818	0.406053	-0.626385	0.345266
62304		9.727324	0.323183	-1.103968	0.006391	0.007141	-0.002910	-0.637451	-0.498291	-0.187256	0.568842	0.405976	-0.626382	0.345323
62305		9.746682	0.299223	-1.127489	0.009905	0.007264	-0.006227	-0.633789	-0.500488	-0.178467	0.568908	0.405882	-0.626385	0.345320
62306		9.767760	0.304021	-1.121452	0.016792	0.003122	-0.006704	-0.636230	-0.499512	-0.183594	0.568854	0.405959	-0.626320	0.345436
62307		9.713475	0.360354	-1.084171	0.010512	0.004053	-0.004944	-0.632324	-0.504150	-0.181396	0.568864	0.405915	-0.626322	0.345468
62308		9.721448	0.298657	-1.110783	0.009127	0.001743	-0.001400	-0.632324	-0.508789	-0.180908	0.568837	0.405903	-0.626313	0.345542
62309		9.744695	0.302329	-1.115055	0.012428	0.001880	-0.002876	-0.629639	-0.501221	-0.179443	0.568797	0.405959	-0.626252	0.345653
62310		9.773608	0.324736	-1.118092	0.009467	0.003562	-0.001964	-0.629395	-0.502441	-0.181152	0.568776	0.405955	-0.626222	0.345745
62311		9.730140	0.286929	-1.116692	0.004547	0.004913	-0.000664	-0.634766	-0.494385	-0.187012	0.568797	0.405894	-0.626210	0.345805
62312		9.742150	0.293870	-1.112911	0.008043	0.004422	-0.004608	-0.638916	-0.512939	-0.179932	0.568847	0.405775	-0.626259	0.345775
62313		9.734783	0.287911	-1.133920	0.012642	0.001866	-0.004713	-0.630371	-0.501709	-0.179688	0.568800	0.405857	-0.626185	0.345889
62314		9.742814	0.305316	-1.101645	0.010037	0.003521	-0.006868	-0.637695	-0.500000	-0.187012	0.568797	0.405896	-0.626128	0.345951
62315		9.743358	0.278286	-1.140403	0.011521	0.003318	-0.009180	-0.635742	-0.507324	-0.177734	0.568836	0.405867	-0.626125	0.345927
62316		9.736577	0.321186	-1.102062	0.013283	0.001819	-0.010229	-0.647461	-0.497559	-0.185547	0.568798	0.405992	-0.626031	0.346011
62317		9.745074	0.310590	-1.109455	0.009857	0.002306	-0.006899	-0.639893	-0.492676	-0.187500	0.568807	0.405898	-0.626103	0.345977
62318		9.752448	0.318745	-1.087693	0.007979	-0.001148	-0.005906	-0.629883	-0.501953	-0.181396	0.568815	0.405782	-0.626217	0.345895
62319		9.764924	0.295500	-1.084556	-0.002149	-0.000887	-0.003989	-0.633789	-0.491943	-0.186523	0.568840	0.405719	-0.626262	0.345845
62320		9.753971	0.273236	-1.157074	0.001983	-0.000242	-0.006604	-0.637939	-0.511230	-0.183594	0.568887	0.405592	-0.626363	0.345734
62321		9.739779	0.307032	-1.101044	0.003960	-0.001757	-0.009490	-0.628662	-0.509277	-0.181152	0.568910	0.405617	-0.626357	0.345678
62322		9.745377	0.287511	-1.109748	0.002090	-0.001480	-0.009087	-0.633545	-0.501465	-0.178711	0.568935	0.405669	-0.626320	0.345642
62323		9.740862	0.250076	-1.100669	0.005319	-0.003794	-0.013075	-0.634521	-0.508545	-0.185547	0.568913	0.405754	-0.626312	0.345594
62324		9.742194	0.284356	-1.111999	0.015186	-0.004601	-0.018755	-0.632324	-0.505371	-0.178467	0.568912	0.405925	-0.626240	0.345526
62325		9.737206	0.331194	-1.124937	0.010282	-0.002641	-0.016830	-0.634766	-0.498047	-0.185303	0.568894	0.406090	-0.626161	0.345504
62326		9.723982	0.347699	-1.098868	0.000136	-0.003003	-0.015539	-0.631104	-0.507324	-0.188232	0.568960	0.406066	-0.626215	0.345325
62327		9.740721	0.328508	-1.155333	-0.002689	-0.002609	-0.012140	-0.636230	-0.498779	-0.186279	0.569061	0.406024	-0.626251	0.345144
62328		9.761855	0.293049	-1.119924	0.002889	-0.000929	-0.015199	-0.638916	-0.504395	-0.180420	0.569132	0.405999	-0.626287	0.344992
62329		9.755529	0.306443	-1.081959	0.005409	-0.003183	-0.013057	-0.635742	-0.487061	-0.178955	0.569122	0.406053	-0.626296	0.344927
62330		9.720439	0.351149	-1.101991	0.006818	-0.004651	-0.011039	-0.637939	-0.503418	-0.182861	0.569060	0.406060	-0.626377	0.344872
62331		9.726488	0.343285	-1.140806	-0.001881	0.002202	-0.007657	-0.652100	-0.510010	-0.187012	0.569126	0.405972	-0.626421	0.344789
62332		9.748437	0.277674	-1.143973	0.003659	0.001387	-0.008256	-0.633789	-0.504395	-0.188477	0.569179	0.405869	-0.626492	0.344695
62333		9.759094	0.305734	-1.111654	0.009555	0.000544	-0.011918	-0.637939	-0.505127	-0.179443	0.569239	0.405867	-0.626484	0.344612
62334		9.753233	0.330003	-1.103269	0.006413	0.001002	-0.011041	-0.635254	-0.507324	-0.184082	0.569243	0.405910	-0.626457	0.344602
62335		9.712958	0.315311	-1.132336	0.005726	0.000483	-0.011125	-0.644775	-0.501221	-0.175781	0.569288	0.405922	-0.626443	0.344540
62336		9.749145	0.308603	-1.163490	-0.000469	0.002004	-0.009356	-0.636963	-0.509766	-0.181641	0.569284	0.405898	-0.626471	0.344523
62337		9.739231	0.290991	-1.105039	0.011022	-0.000268	-0.014856	-0.635498	-0.503418	-0.186523	0.569295	0.406006	-0.626405	0.344498
62338		9.736119	0.377100	-1.117583	0.006292	-0.000833	-0.012310	-0.633545	-0.503418	-0.181641	0.569343	0.405999	-0.626422	0.344397
62339		9.733616	0.329650	-1.126995	-0.002466	0.002900	-0.007100	-0.634033	-0.511719	-0.184814	0.569408	0.405926	-0.626443	0.344336
62340		9.725854	0.313009	-1.118030	0.002283	0.000349	-0.008424	-0.630615	-0.504883	-0.184326	0.569470	0.405901	-0.626444	0.344261
62341		9.758598	0.325172	-1.110486	0.000783	-0.000064	-0.006740	-0.625732	-0.508301	-0.176270	0.569518	0.405852	-0.626471	0.344191
62342		9.754794	0.298467	-1.130657	-0.000683	0.002020	-0.007518	-0.633057	-0.511963	-0.178223	0.569545	0.405894	-0.626413	0.344203
62343		9.758016	0.319508	-1.119959	-0.000061	0.000084	-0.009943	-0.637939	-0.514893	-0.186523	0.569575	0.405935	-0.626379	0.344168
62344		9.741616	0.315671	-1.103607	-0.006448	-0.000231	-0.008833	-0.636719	-0.500732	-0.179443	0.569685	0.405841	-0.626428	0.344006
62345		9.733648	0.301968	-1.135297	-0.000992	-0.000375	-0.013161	-0.642090	-0.504639	-0.179443	0.569715	0.405846	-0.626445	0.343920
62346		9.754169	0.297484	-1.099919	-0.014388	0.002198	-0.012231	-0.641602	-0.506104	-0.184326	0.569827	0.405730	-0.626513	0.343746
62347		9.745446	0.313879	-1.092062	-0.001741	-0.002076	-0.019472	-0.634521	-0.504395	-0.183350	0.569909	0.405744	-0.626535	0.343553
62348		9.736847	0.344768	-1.154891	0.007622	0.000922	-0.021452	-0.638672	-0.498779	-0.182129	0.569973	0.405855	-0.626461	0.343452
62349		9.712639	0.376558	-1.150535	0.005742	0.003652	-0.017925	-0.636719	-0.508545	-0.176025	0.570031	0.405892	-0.626424	0.343380
62350		9.734133	0.341996	-1.113696	0.010802	0.004776	-0.017321	-0.636230	-0.503662	-0.175293	0.570042	0.406047	-0.626290	0.343422
62351		9.758235	0.368140	-1.097615	0.016873	0.002625	-0.013518	-0.634277	-0.503418	-0.182129	0.569978	0.406216	-0.626178	0.343533
62352		9.752175	0.393823	-1.128953	0.009275	0.003667	-0.005711	-0.634521	-0.507812	-0.183350	0.569978	0.406207	-0.626159	0.343578
62353		9.729215	0.338977	-1.102391	0.001403	0.003539	-0.002292	-0.633789	-0.502441	-0.185547	0.570017	0.406118	-0.626182	0.343578
62354		9.751547	0.324363	-1.125840	0.010220	0.006013	-0.005581	-0.635498	-0.512695	-0.180908	0.570052	0.406073	-0.626160	0.343611
62355		9.757080	0.344431	-1.123610	0.006590	0.005309	-0.007256	-0.639160	-0.501709	-0.176758	0.570087	0.406088	-0.626096	0.343652
62356		9.744029	0.358280	-1.095748	0.002232	0.004049	-0.003433	-0.626221	-0.510254	-0.183105	0.570070	0.406037	-0.626114	0.343707
62357		9.718593	0.357348	-1.120710	-0.001568	0.005204	-0.001389	-0.637695	-0.500488	-0.180420	0.570141	0.405956	-0.626098	0.343715
62358		9.728910	0.322259	-1.076268	-0.000911	0.004497	-0.002558	-0.640137	-0.503418	-0.183105	0.570165	0.405844	-0.626146	0.343721
62359		9.742049	0.360131	-1.083310	0.007288	0.000831	-0.002858	-0.643066	-0.492432	-0.178223	0.570138	0.405787	-0.626193	0.343747
62360		9.737993	0.322406	-1.113244	0.005531	0.002935	-0.001188	-0.636963	-0.497559	-0.180176	0.570080	0.405692	-0.626270	0.343815
62361		9.735696	0.325104	-1.143280	0.005289	0.002993	-0.004321	-0.636963	-0.504639	-0.191650	0.570064	0.405642	-0.626297	0.343851
62362		9.743667	0.290992	-1.089951	0.008032	0.002000	-0.007729	-0.633057	-0.501221	-0.183350	0.570129	0.405564	-0.626330	0.343776
62363		9.753462	0.360952	-1.088871	0.015204	-0.000273	-0.008138	-0.626709	-0.502686	-0.184326	0.570083	0.405628	-0.626303	0.343826
62364		9.712338	0.375218	-1.119306	0.011901	-0.001695	-0.002950	-0.635498	-0.501465	-0.183594	0.570036	0.405651	-0.626302	0.343877
62365		9.705660	0.326342	-1.109821	0.012046	0.002639	-0.004145	-0.634766	-0.503662	-0.187256	0.570013	0.405638	-0.626299	0.343938
62366		9.738878	0.347254	-1.091825	0.013389	0.002453	-0.005229	-0.642822	-0.503662	-0.182373	0.570016	0.405618	-0.626293	0.343966
62367		9.746649	0.364292	-1.059964	0.009473	0.000504	-0.000738	-0.636963	-0.507568	-0.182861	0.569961	0.405562	-0.626346	0.344027
62368		9.745658	0.346668	-1.120107	0.009701	-0.000165	0.001769	-0.639893	-0.500732	-0.187256	0.569905	0.405517	-0.626383	0.344106
62369		9.729280	0.341397	-1.143929	0.015373	0.001495	0.003072	-0.636475	-0.502441	-0.175293	0.569846	0.405425	-0.626445	0.344197
62370		9.731292	0.328280	-1.122623	0.016102	0.003862	0.005035	-0.634277	-0.507080	-0.170898	0.569715	0.405446	-0.626415	0.344446
62371		9.742233	0.363685	-1.120457	0.025387	0.001271	0.007364	-0.634277	-0.498535	-0.179688	0.569486	0.405585	-0.626329	0.344816
62372		9.751948	0.367236	-1.108041	0.016584	0.002498	0.015020	-0.630127	-0.501709	-0.175537	0.569333	0.405483	-0.626389	0.345080
62373		9.708140	0.305240	-1.126539	0.019699	0.003904	0.016640	-0.639160	-0.506348	-0.173828	0.569148	0.405449	-0.626383	0.345434
62374		9.753409	0.277880	-1.124685	0.017470	0.002384	0.012643	-0.631592	-0.495850	-0.182129	0.568967	0.405438	-0.626385	0.345745
62375		9.770917	0.248312	-1.099372	0.010985	0.002095	0.009388	-0.634766	-0.502441	-0.179688	0.568888	0.405315	-0.626455	0.345891
62376		9.753633	0.272740	-1.123997	0.013186	0.000556	0.004675	-0.637695	-0.500488	-0.180664	0.568792	0.405292	-0.626472	0.346044
62377		9.728258	0.268157	-1.109594	0.009374	0.002360	0.002367	-0.641602	-0.504150	-0.176758	0.568743	0.405225	-0.626506	0.346143
62378		9.733763	0.286345	-1.108343	0.012733	0.001886	-0.000340	-0.635986	-0.506836	-0.184570	0.568657	0.405242	-0.626493	0.346286
62379		9.722469	0.288841	-1.100614	0.015162	0.002771	0.001195	-0.642334	-0.494629	-0.182617	0.568621	0.405222	-0.626476	0.346400
62380		9.741576	0.303870	-1.116270	0.020147	0.000818	-0.001323	-0.637695	-0.504883	-0.175537	0.568527	0.405210	-0.626505	0.346515
62381		9.755802	0.258452	-1.101198	0.016437	0.003845	-0.002995	-0.638672	-0.499268	-0.184326	0.568448	0.405292	-0.626425	0.346693
62382		9.738126	0.274409	-1.094942	0.011982	0.003883	-0.007251	-0.635498	-0.496826	-0.186523	0.568467	0.405270	-0.626413	0.346711
62383		9.731308	0.278653	-1.105997	0.013368	0.002451	-0.010195	-0.635010	-0.499756	-0.177979	0.568496	0.405268	-0.626399	0.346690
62384		9.728475	0.323142	-1.127412	0.012097	0.002633	-0.009725	-0.635742	-0.501465	-0.181641	0.568475	0.405344	-0.626335	0.346752
62385		9.759814	0.355696	-1.130494	0.008144	0.001307	0.000976	-0.640381	-0.501709	-0.181152	0.568443	0.405283	-0.626368	0.346816
62386		9.767765	0.318821	-1.077273	-0.004812	0.000030	0.014329	-0.634766	-0.503174	-0.176270	0.568402	0.405021	-0.626546	0.346868
62387		9.756118	0.209021	-1.117257	-0.015812	-0.000859	0.011771	-0.636719	-0.499268	-0.174072	0.568393	0.404778	-0.626711	0.346868
62388		9.756594	0.217204	-1.107480	-0.012919	-0.000629	0.003424	-0.630371	-0.503174	-0.178955	0.568386	0.404622	-0.626828	0.346849
62389		9.729688	0.235392	-1.104738	-0.007445	-0.003257	-0.004004	-0.642822	-0.496582	-0.181152	0.568405	0.404572	-0.626884	0.346776
62390		9.749544	0.271330	-1.101734	-0.004973	-0.003613	-0.004331	-0.640869	-0.507812	-0.172852	0.568410	0.404451	-0.627016	0.346671
62391		9.714350	0.263959	-1.140735	0.002101	-0.002768	-0.005348	-0.637939	-0.503418	-0.180420	0.568340	0.404518	-0.627008	0.346721
62392		9.751583	0.274004	-1.112449	0.001591	-0.000819	-0.009128	-0.643311	-0.504883	-0.178223	0.568357	0.404526	-0.627014	0.346674
62393		9.739731	0.267541	-1.075308	0.009832	-0.002634	-0.007530	-0.636719	-0.500244	-0.182861	0.568292	0.404594	-0.627008	0.346711
62394		9.749952	0.298642	-1.124362	0.010091	-0.000808	-0.007493	-0.634277	-0.503418	-0.183594	0.568275	0.404617	-0.627007	0.346714
62395		9.736302	0.253382	-1.126744	0.015619	-0.002221	-0.008701	-0.639160	-0.502686	-0.187988	0.568233	0.404711	-0.626966	0.346748
62396		9.747615	0.250695	-1.094450	0.013949	-0.002595	-0.010764	-0.642578	-0.504150	-0.187256	0.568231	0.404752	-0.626966	0.346702
62397		9.757839	0.280921	-1.103576	0.012134	-0.002952	-0.011601	-0.633789	-0.506592	-0.183350	0.568233	0.404786	-0.626978	0.346639
62398		9.746715	0.297377	-1.127185	0.001446	-0.000807	-0.007901	-0.635254	-0.501953	-0.175049	0.568274	0.404777	-0.626981	0.346576
62399		9.738975	0.280560	-1.118713	0.001145	-0.001389	-0.006076	-0.643311	-0.500977	-0.180176	0.568245	0.404802	-0.626985	0.346587
62400		9.746299	0.239047	-1.116222	0.004731	-0.002524	-0.006273	-0.635010	-0.496094	-0.184570	0.568216	0.404783	-0.627038	0.346562
62401		9.747844	0.280963	-1.117793	0.002289	-0.004030	-0.008430	-0.637207	-0.506104	-0.178955	0.568230	0.404740	-0.627111	0.346456
62402		9.740863	0.283680	-1.090741	0.005461	-0.007590	-0.008062	-0.636475	-0.498779	-0.184814	0.568166	0.404815	-0.627138	0.346425
62403		9.714256	0.264560	-1.137798	0.007046	-0.002224	-0.009721	-0.640137	-0.502930	-0.172852	0.568179	0.404812	-0.627166	0.346356
62404		9.739229	0.258845	-1.122071	0.005860	-0.001435	-0.009240	-0.643555	-0.502930	-0.185303	0.568123	0.404899	-0.627139	0.346395
62405		9.752208	0.296396	-1.090643	0.009647	-0.004461	-0.008175	-0.635010	-0.500977	-0.177002	0.568098	0.404899	-0.627192	0.346340
62406		9.724264	0.296423	-1.108237	0.006518	-0.003397	-0.006682	-0.640381	-0.502441	-0.190430	0.568044	0.404952	-0.627198	0.346357
62407		9.743292	0.263310	-1.143683	0.008546	-0.003063	-0.007682	-0.633545	-0.499756	-0.178467	0.568070	0.404900	-0.627261	0.346259
62408		9.754626	0.260401	-1.111620	0.002746	-0.004100	-0.007132	-0.645020	-0.500977	-0.183350	0.568042	0.404920	-0.627293	0.346225
62409		9.724314	0.309447	-1.061295	-0.000766	-0.007324	-0.007556	-0.640137	-0.504883	-0.180908	0.568031	0.404855	-0.627420	0.346088
62410		9.734868	0.300164	-1.120344	-0.008339	-0.006870	-0.005970	-0.643066	-0.496338	-0.182129	0.568048	0.404774	-0.627540	0.345938
62411		9.747777	0.289980	-1.188007	-0.007301	-0.000200	-0.001487	-0.632568	-0.506592	-0.175049	0.568090	0.404585	-0.627680	0.345837
62412		9.736687	0.243455	-1.198634	-0.000077	0.005605	-0.003100	-0.632568	-0.498291	-0.177246	0.568119	0.404572	-0.627627	0.345901
62413		9.769711	0.253515	-1.149280	0.006192	0.008443	-0.005453	-0.645508	-0.499268	-0.176758	0.568154	0.404562	-0.627556	0.345982
62414		9.764677	0.234550	-1.107752	0.013993	0.008583	-0.008250	-0.637939	-0.502930	-0.183838	0.568150	0.404591	-0.627478	0.346097
62415		9.726874	0.268523	-1.125654	0.025251	0.009479	-0.013116	-0.641846	-0.500000	-0.179443	0.568172	0.404715	-0.627309	0.346221
62416		9.727800	0.291892	-1.143919	0.022264	0.010524	-0.012847	-0.635010	-0.500244	-0.175049	0.568183	0.404822	-0.627156	0.346357
62417		9.738351	0.320371	-1.109925	0.016621	0.008835	-0.009177	-0.641357	-0.501709	-0.179688	0.568170	0.404928	-0.627012	0.346515
62418		9.719576	0.306078	-1.091798	0.006660	0.008995	-0.003537	-0.638428	-0.503906	-0.177979	0.568211	0.404861	-0.626978	0.346587
62419		9.725821	0.286481	-1.137379	0.010326	0.012822	-0.003714	-0.635254	-0.502441	-0.182617	0.568256	0.404840	-0.626872	0.346729
62420		9.747090	0.289562	-1.089517	0.005485	0.010401	-0.002434	-0.636719	-0.501465	-0.188232	0.568331	0.404753	-0.626825	0.346792
62421		9.744271	0.271066	-1.097365	0.006060	0.009080	-0.003608	-0.634521	-0.496338	-0.184570	0.568432	0.404631	-0.626812	0.346793
62422		9.742603	0.283383	-1.115861	0.009016	0.011148	-0.005113	-0.642822	-0.491455	-0.181885	0.568514	0.404552	-0.626759	0.346846
62423		9.751628	0.270251	-1.080670	0.011715	0.010144	-0.002927	-0.645508	-0.495361	-0.183838	0.568536	0.404457	-0.626748	0.346941
62424		9.757967	0.309519	-1.098325	0.011424	0.008938	0.003245	-0.636230	-0.498291	-0.171875	0.568536	0.404307	-0.626781	0.347057
62425		9.766984	0.294214	-1.063602	-0.004198	0.008035	0.008192	-0.627930	-0.504395	-0.179199	0.568516	0.404163	-0.626809	0.347208
62426		9.751959	0.195577	-1.072516	-0.008222	0.005500	0.007706	-0.638428	-0.495605	-0.184570	0.568559	0.403993	-0.626850	0.347261
62427		9.750942	0.227191	-1.113220	0.002787	0.000849	-0.001526	-0.633057	-0.494629	-0.181396	0.568570	0.403879	-0.626924	0.347240
62428		9.740361	0.251480	-1.126152	-0.008759	0.002481	-0.001674	-0.637939	-0.494873	-0.184326	0.568634	0.403723	-0.627005	0.347172
62429		9.748751	0.228953	-1.102657	-0.004640	0.002523	-0.004902	-0.635254	-0.503174	-0.182373	0.568707	0.403581	-0.627080	0.347082
62430		9.739674	0.233317	-1.104248	0.000838	0.002996	-0.008587	-0.640381	-0.500977	-0.182373	0.568766	0.403565	-0.627057	0.347046
62431		9.747679	0.262018	-1.062305	0.003238	0.002657	-0.008297	-0.635010	-0.504639	-0.179688	0.568802	0.403540	-0.627054	0.347020
62432		9.734782	0.228471	-1.093764	0.005485	0.002964	-0.011129	-0.638916	-0.505371	-0.182129	0.568831	0.403608	-0.626978	0.347030
62433		9.756812	0.265816	-1.098977	0.004346	0.002505	-0.012509	-0.635742	-0.500977	-0.176758	0.568881	0.403649	-0.626927	0.346994
62434		9.752628	0.280514	-1.109713	0.006387	0.003460	-0.012882	-0.638916	-0.501221	-0.182617	0.568893	0.403742	-0.626840	0.347022
62435		9.725313	0.291046	-1.115579	0.001763	0.004727	-0.009093	-0.645264	-0.500488	-0.181641	0.568958	0.403708	-0.626821	0.346991
62436		9.733772	0.269727	-1.091348	0.001415	0.006639	-0.009133	-0.633789	-0.504639	-0.180664	0.569027	0.403646	-0.626811	0.346967
62437		9.749460	0.256920	-1.085773	0.006503	0.004682	-0.007278	-0.631104	-0.502686	-0.183838	0.569051	0.403681	-0.626738	0.347017
62438		9.747329	0.259971	-1.115111	0.005948	0.007240	-0.004860	-0.635254	-0.501709	-0.188477	0.569108	0.403658	-0.626674	0.347066
62439		9.767963	0.254313	-1.078157	0.006828	0.006499	-0.007857	-0.639648	-0.502441	-0.181152	0.569193	0.403613	-0.626635	0.347051
62440		9.743049	0.263608	-1.092775	0.001292	0.007894	-0.006665	-0.636475	-0.500244	-0.180176	0.569261	0.403560	-0.626598	0.347068
62441		9.719674	0.251905	-1.096326	0.004417	0.006217	-0.008770	-0.631836	-0.501953	-0.181152	0.569304	0.403564	-0.626540	0.347096
62442		9.761982	0.272967	-1.115151	0.009491	0.008610	-0.006910	-0.638428	-0.499268	-0.190674	0.569342	0.403596	-0.626434	0.347190
62443		9.749483	0.306660	-1.066958	0.004988	0.008618	-0.005595	-0.637695	-0.506348	-0.191650	0.569449	0.403475	-0.626428	0.347165
62444		9.736808	0.270419	-1.056998	0.006391	0.006559	-0.004184	-0.642090	-0.500977	-0.179688	0.569536	0.403388	-0.626410	0.347156
62445		9.755270	0.267063	-1.091206	0.004657	0.005558	-0.001292	-0.638428	-0.497070	-0.182861	0.569530	0.403328	-0.626409	0.347237
62446		9.738747	0.251316	-1.083183	-0.000279	0.006867	-0.000030	-0.641113	-0.501709	-0.184570	0.569574	0.403191	-0.626440	0.347269
62447		9.761325	0.234421	-1.065629	0.004658	0.005558	-0.001291	-0.633301	-0.491699	-0.191162	0.569599	0.403103	-0.626450	0.347313
62448		9.729799	0.252997	-1.042708	0.007627	0.003282	-0.002793	-0.640381	-0.501709	-0.187744	0.569637	0.402993	-0.626493	0.347300
62449		9.739099	0.252254	-1.079797	0.006510	0.004059	-0.002928	-0.640625	-0.506348	-0.176270	0.569668	0.402915	-0.626507	0.347314
62450		9.752461	0.239079	-1.065158	0.002655	0.003357	-0.007744	-0.636719	-0.504150	-0.187500	0.569665	0.402960	-0.626453	0.347365
62451		9.746345	0.262481	-1.056507	0.005666	0.003558	-0.006756	-0.636475	-0.504150	-0.173584	0.569715	0.402934	-0.626430	0.347354
62452		9.746400	0.263924	-1.055639	0.007550	0.003917	-0.006525	-0.630859	-0.504639	-0.190186	0.569670	0.403029	-0.626339	0.347480
62453		9.750763	0.254829	-1.083519	0.004246	0.003756	-0.005067	-0.634766	-0.500244	-0.187012	0.569740	0.402983	-0.626315	0.347461
62454		9.752376	0.235033	-1.071565	0.008140	0.003214	-0.007073	-0.641602	-0.493896	-0.187744	0.569770	0.402977	-0.626287	0.347470
62455		9.739123	0.250798	-1.084585	0.010624	0.003490	-0.006769	-0.636963	-0.490723	-0.188477	0.569783	0.402932	-0.626300	0.347480
62456		9.746304	0.259587	-1.062093	0.005076	0.004261	-0.006207	-0.644043	-0.498535	-0.169678	0.569832	0.402838	-0.626331	0.347450
62457		9.739579	0.263011	-1.072879	0.008613	0.004391	-0.004532	-0.634277	-0.493896	-0.179443	0.569742	0.402911	-0.626272	0.347621
62458		9.740621	0.223407	-1.080280	0.011244	0.004647	-0.005451	-0.636963	-0.496338	-0.187744	0.569711	0.402944	-0.626220	0.347728
62459		9.764753	0.257438	-1.054763	0.020217	0.001540	-0.006211	-0.639648	-0.499756	-0.182129	0.569664	0.402995	-0.626182	0.347814
62460		9.769704	0.267044	-1.063630	0.017302	0.001947	-0.002223	-0.630859	-0.496094	-0.185059	0.569584	0.403040	-0.626147	0.347956
62461		9.760938	0.278964	-1.055801	0.006040	0.001649	0.003223	-0.628174	-0.495117	-0.181885	0.569558	0.402956	-0.626186	0.348026
62462		9.732769	0.256251	-1.091618	0.006439	0.002838	0.006375	-0.637207	-0.500977	-0.177490	0.569507	0.402876	-0.626211	0.348157
62463		9.737427	0.252650	-1.069157	-0.001094	0.006986	0.006688	-0.636963	-0.499268	-0.183594	0.569495	0.402750	-0.626230	0.348287
62464		9.762019	0.224335	-1.071094	0.002375	0.002778	0.004014	-0.640625	-0.500488	-0.175781	0.569481	0.402636	-0.626280	0.348352
62465		9.761043	0.193196	-1.059509	0.004701	0.003073	0.000575	-0.640137	-0.501465	-0.177490	0.569423	0.402618	-0.626276	0.348475
62466		9.778413	0.228637	-1.045660	-0.000479	0.003789	-0.001925	-0.633545	-0.492676	-0.182617	0.569419	0.402574	-0.626276	0.348532
62467		9.743263	0.209075	-1.052790	-0.003508	0.002345	-0.004158	-0.637695	-0.502441	-0.182373	0.569462	0.402475	-0.626324	0.348489
62468		9.758414	0.246862	-1.070091	0.008051	0.001364	-0.003356	-0.640137	-0.497070	-0.185303	0.569431	0.402493	-0.626301	0.348561
62469		9.730330	0.234536	-1.055974	0.001228	0.002310	-0.002334	-0.635986	-0.502441	-0.180664	0.569452	0.402395	-0.626350	0.348551
62470		9.749561	0.189719	-1.059193	0.012335	0.002008	-0.007174	-0.640137	-0.506836	-0.180664	0.569412	0.402491	-0.626271	0.348648
62471		9.750895	0.231884	-1.060077	0.010128	0.000448	-0.011168	-0.640137	-0.500244	-0.183350	0.569385	0.402617	-0.626187	0.348698
62472		9.748530	0.234779	-1.050428	0.004052	0.001288	-0.011296	-0.635986	-0.496094	-0.187256	0.569412	0.402642	-0.626165	0.348664
62473		9.742012	0.249103	-1.052041	0.005123	0.002385	-0.008683	-0.643311	-0.490967	-0.191406	0.569456	0.402615	-0.626162	0.348628
62474		9.755041	0.227358	-1.047354	0.005502	0.002950	-0.011119	-0.649170	-0.495850	-0.191895	0.569533	0.402527	-0.626206	0.348526
62475		9.751110	0.251079	-1.048810	0.006666	-0.000311	-0.009109	-0.638184	-0.500488	-0.181396	0.569567	0.402448	-0.626277	0.348433
62476		9.739072	0.236057	-1.061153	0.005715	0.001068	-0.004883	-0.638184	-0.493652	-0.187500	0.569546	0.402458	-0.626267	0.348476
62477		9.755222	0.242013	-1.037419	0.010933	-0.002134	-0.005476	-0.643799	-0.500977	-0.185303	0.569510	0.402448	-0.626305	0.348476
62478		9.757719	0.252275	-1.037923	0.009863	-0.003846	-0.003743	-0.636475	-0.495117	-0.176758	0.569444	0.402454	-0.626349	0.348498
62479		9.759110	0.223042	-1.077506	0.007933	-0.002335	-0.001501	-0.631836	-0.499756	-0.189209	0.569345	0.402484	-0.626369	0.348591
62480		9.759627	0.242608	-1.058334	-0.001357	-0.000433	0.000454	-0.640381	-0.501221	-0.181885	0.569374	0.402370	-0.626437	0.348553
62481		9.749189	0.205198	-1.059728	-0.001227	-0.001697	-0.002010	-0.642090	-0.499512	-0.190186	0.569357	0.402312	-0.626495	0.348541
62482		9.761129	0.222503	-1.047770	-0.000405	-0.001813	-0.003771	-0.639160	-0.500000	-0.188477	0.569387	0.402204	-0.626585	0.348455
62483		9.752683	0.175933	-1.068758	0.004082	-0.003055	-0.006319	-0.640137	-0.502930	-0.179443	0.569389	0.402178	-0.626633	0.348398
62484		9.767096	0.204171	-1.057381	0.007473	-0.007258	-0.013341	-0.639404	-0.494141	-0.185547	0.569320	0.402322	-0.626619	0.348368
62485		9.737602	0.226267	-1.086881	-0.000386	-0.004936	-0.012450	-0.641113	-0.496582	-0.195068	0.569339	0.402313	-0.626683	0.348232
62486		9.793797	0.192844	-1.062662	-0.003223	-0.003307	-0.012802	-0.642334	-0.497803	-0.183838	0.569439	0.402217	-0.626777	0.348010
62487		9.750723	0.227099	-1.024822	0.005714	-0.003292	-0.014806	-0.638916	-0.501221	-0.183105	0.569439	0.402281	-0.626780	0.347931
62488		9.721428	0.250708	-1.093659	0.009118	-0.001275	-0.015012	-0.637207	-0.502441	-0.189453	0.569438	0.402391	-0.626727	0.347901
62489		9.709621	0.247502	-1.096295	0.003435	0.001360	-0.016335	-0.636475	-0.497070	-0.187256	0.569529	0.402423	-0.626688	0.347785
62490		9.744303	0.260348	-1.057588	0.010443	0.002277	-0.011752	-0.634766	-0.491211	-0.187988	0.569558	0.402463	-0.626644	0.347771
62491		9.774233	0.264129	-1.050146	0.018389	-0.000038	-0.008287	-0.638916	-0.498047	-0.182861	0.569515	0.402521	-0.626618	0.347821
62492		9.766638	0.238308	-1.091049	0.007749	0.002037	-0.005257	-0.638428	-0.496826	-0.178955	0.569502	0.402517	-0.626610	0.347862
62493		9.743376	0.234622	-1.045613	0.005732	0.003547	-0.007370	-0.639404	-0.496582	-0.187012	0.569497	0.402534	-0.626577	0.347908
62494		9.718562	0.253539	-1.051849	0.007428	0.000831	-0.009016	-0.635010	-0.505859	-0.186279	0.569515	0.402526	-0.626583	0.347879
62495		9.746090	0.248794	-1.084804	0.008044	0.001992	-0.007702	-0.634277	-0.496094	-0.182373	0.569537	0.402558	-0.626534	0.347892
62496		9.727427	0.244565	-1.058639	0.009690	0.001151	-0.006876	-0.633057	-0.505127	-0.181396	0.569513	0.402596	-0.626506	0.347939
62497		9.757378	0.247654	-1.051160	0.010217	0.001081	-0.006190	-0.637451	-0.499512	-0.181641	0.569484	0.402675	-0.626441	0.348014
62498		9.766253	0.236376	-1.058455	0.011188	0.000334	-0.004827	-0.638672	-0.510498	-0.183105	0.569434	0.402716	-0.626419	0.348087
62499		9.746261	0.262937	-1.074702	0.010420	-0.002033	-0.001191	-0.642090	-0.503906	-0.188232	0.569366	0.402760	-0.626405	0.348172
62500		9.751446	0.200958	-1.081267	0.005113	0.000548	-0.000613	-0.638672	-0.497559	-0.184082	0.569365	0.402681	-0.626451	0.348182
62501		9.760805	0.208664	-1.069248	0.005393	-0.000743	-0.004297	-0.640625	-0.495361	-0.178467	0.569346	0.402653	-0.626484	0.348186
62502		9.747199	0.222909	-1.043324	0.004770	-0.002526	-0.006229	-0.639404	-0.502686	-0.184570	0.569292	0.402667	-0.626518	0.348196
62503		9.744911	0.225936	-1.074818	0.004910	-0.003172	-0.008071	-0.640625	-0.496826	-0.186768	0.569278	0.402690	-0.626536	0.348160
62504		9.747367	0.237347	-1.075064	0.004782	-0.000677	-0.009336	-0.637939	-0.499268	-0.185791	0.569298	0.402670	-0.626564	0.348100
62505		9.749005	0.218609	-1.063859	0.000579	-0.000112	-0.009855	-0.641602	-0.497803	-0.177979	0.569343	0.402646	-0.626583	0.348020
62506		9.756374	0.239491	-1.072854	0.007567	0.000185	-0.010857	-0.643799	-0.498535	-0.185791	0.569315	0.402713	-0.626555	0.348039
62507		9.747403	0.253836	-1.065606	0.006962	-0.000962	-0.007204	-0.637695	-0.502686	-0.181396	0.569307	0.402696	-0.626587	0.348016
62508		9.751139	0.224643	-1.073706	0.008086	-0.000505	-0.010790	-0.638428	-0.503662	-0.184082	0.569293	0.402776	-0.626544	0.348022
62509		9.754467	0.266629	-1.084445	0.001801	0.001591	-0.007849	-0.644775	-0.499512	-0.185547	0.569330	0.402762	-0.626536	0.347992
62510		9.748935	0.230023	-1.103877	-0.000594	0.002534	-0.007527	-0.633301	-0.494385	-0.186035	0.569386	0.402680	-0.626574	0.347926
62511		9.758287	0.239079	-1.091522	0.004642	-0.000029	-0.007493	-0.638672	-0.499756	-0.187012	0.569402	0.402661	-0.626590	0.347893
62512		9.739624	0.234761	-1.065527	0.003308	0.001399	-0.005181	-0.635010	-0.496582	-0.187744	0.569431	0.402605	-0.626615	0.347867
62513		9.761950	0.210001	-1.058749	0.007500	0.000821	-0.009625	-0.642822	-0.503418	-0.183350	0.569457	0.402612	-0.626605	0.347835
62514		9.748518	0.226603	-1.072263	0.002478	0.002724	-0.012112	-0.641846	-0.497314	-0.191406	0.569510	0.402621	-0.626578	0.347786
62515		9.751285	0.248342	-1.061586	0.002791	0.003315	-0.008974	-0.641846	-0.495605	-0.186523	0.569591	0.402535	-0.626606	0.347701
62516		9.737317	0.243981	-1.053913	0.003465	0.003223	-0.009510	-0.635742	-0.496338	-0.188477	0.569643	0.402486	-0.626617	0.347652
62517		9.728006	0.238752	-1.065157	0.000841	0.003579	-0.007974	-0.645264	-0.503418	-0.186768	0.569719	0.402414	-0.626630	0.347589
62518		9.755277	0.223294	-1.066969	0.004599	0.003698	-0.008131	-0.638428	-0.501465	-0.190186	0.569768	0.402372	-0.626627	0.347563
62519		9.761922	0.213498	-1.064151	0.005334	0.002351	-0.010516	-0.642334	-0.489990	-0.183350	0.569833	0.402353	-0.626615	0.347500
62520		9.757616	0.227857	-1.075291	0.002467	0.001481	-0.013348	-0.636719	-0.507080	-0.183105	0.569867	0.402344	-0.626628	0.347431
62521		9.739314	0.235926	-1.079469	0.009467	0.003033	-0.013109	-0.639404	-0.495605	-0.181641	0.569896	0.402440	-0.626534	0.347442
62522		9.726219	0.272308	-1.073662	0.004414	-0.000008	-0.010620	-0.643799	-0.497559	-0.180664	0.569894	0.402465	-0.626532	0.347418
62523		9.734612	0.242071	-1.059732	0.002639	0.003943	-0.012096	-0.640137	-0.502930	-0.186035	0.569934	0.402469	-0.626508	0.347393
62524		9.739622	0.263755	-1.058740	0.004642	0.000578	-0.011834	-0.642334	-0.502686	-0.184570	0.569971	0.402489	-0.626493	0.347336
62525		9.752669	0.232572	-1.064027	0.008857	0.001269	-0.010074	-0.632812	-0.491699	-0.188477	0.569975	0.402525	-0.626466	0.347337
62526		9.748500	0.256226	-1.065739	0.008852	0.000647	-0.010692	-0.640137	-0.496582	-0.191406	0.569993	0.402541	-0.626456	0.347306
62527		9.748304	0.248692	-1.075090	0.011573	0.002771	-0.010364	-0.638184	-0.502197	-0.187012	0.570029	0.402534	-0.626441	0.347282
62528		9.761773	0.236947	-1.060548	0.004659	0.002443	-0.009978	-0.642578	-0.501709	-0.179932	0.570079	0.402526	-0.626423	0.347240
62529		9.750624	0.252784	-1.083620	0.007503	0.000830	-0.009618	-0.641846	-0.503418	-0.178955	0.570059	0.402578	-0.626396	0.347264
62530		9.748254	0.255445	-1.073957	0.005775	0.001054	-0.010454	-0.635986	-0.508789	-0.182617	0.570050	0.402636	-0.626359	0.347278
62531		9.743385	0.248524	-1.064586	0.007276	0.000246	-0.008403	-0.630859	-0.492432	-0.186768	0.570046	0.402698	-0.626313	0.347295
62532		9.752499	0.247956	-1.062108	0.005553	0.001092	-0.008620	-0.640137	-0.504395	-0.185303	0.570067	0.402691	-0.626312	0.347271
62533		9.740987	0.252721	-1.054818	0.004799	0.000573	-0.008091	-0.637451	-0.500488	-0.183594	0.570084	0.402689	-0.626311	0.347247
62534		9.743277	0.254220	-1.064224	0.002918	0.000198	-0.008322	-0.638672	-0.495605	-0.192871	0.570097	0.402687	-0.626316	0.347218
62535		9.745238	0.244984	-1.043028	0.002923	0.000821	-0.007704	-0.639648	-0.500977	-0.176758	0.570156	0.402599	-0.626369	0.347127
62536		9.757209	0.264288	-1.070636	0.004213	0.002519	-0.006312	-0.635010	-0.503906	-0.175293	0.570135	0.402622	-0.626343	0.347184
62537		9.749893	0.247179	-1.061388	0.000588	-0.000724	-0.005505	-0.629639	-0.499023	-0.183105	0.570101	0.402659	-0.626331	0.347218
62538		9.738223	0.241380	-1.064009	0.005630	0.000481	-0.004886	-0.630859	-0.503662	-0.184082	0.570087	0.402673	-0.626317	0.347249
62539		9.752175	0.249039	-1.070806	0.004429	0.000637	-0.005035	-0.636230	-0.497559	-0.187500	0.570089	0.402683	-0.626298	0.347267
62540		9.752031	0.240283	-1.080227	0.005187	0.001779	-0.004947	-0.637695	-0.505371	-0.182617	0.570107	0.402635	-0.626317	0.347262
62541		9.765657	0.237460	-1.056366	0.000141	-0.000049	-0.006184	-0.637451	-0.503418	-0.190186	0.570120	0.402620	-0.626328	0.347238
62542		9.747605	0.263419	-1.041697	0.002548	0.000262	-0.005267	-0.636963	-0.496338	-0.176758	0.570156	0.402560	-0.626360	0.347190
62543		9.726966	0.261134	-1.086911	0.006449	-0.000257	-0.007261	-0.643555	-0.494385	-0.181885	0.570105	0.402612	-0.626345	0.347240
62544		9.745395	0.267240	-1.072395	0.003083	0.001442	-0.003346	-0.639160	-0.499023	-0.182617	0.570090	0.402540	-0.626398	0.347253
62545		9.742502	0.238026	-1.051109	0.004673	0.003713	-0.003780	-0.636230	-0.499268	-0.185547	0.570095	0.402499	-0.626398	0.347293
62546		9.758436	0.215583	-1.095900	0.005787	0.001703	-0.004872	-0.635010	-0.496338	-0.184570	0.570099	0.402475	-0.626401	0.347310
62547		9.767880	0.234084	-1.073754	0.003533	0.001988	-0.006393	-0.629639	-0.500244	-0.184326	0.570117	0.402446	-0.626406	0.347303
62548		9.763091	0.226436	-1.064019	0.003459	0.002001	-0.005782	-0.639160	-0.494629	-0.188965	0.570136	0.402444	-0.626383	0.347315
62549		9.724131	0.238309	-1.063663	0.006229	0.001003	-0.009154	-0.637939	-0.501953	-0.185059	0.570164	0.402414	-0.626403	0.347268
62550		9.756519	0.251971	-1.055786	0.005184	0.002378	-0.009291	-0.639404	-0.506836	-0.188965	0.570193	0.402425	-0.626376	0.347257
62551		9.735755	0.249218	-1.060175	0.005488	0.002353	-0.006772	-0.638428	-0.498535	-0.183105	0.570230	0.402406	-0.626362	0.347244
62552		9.747395	0.257701	-1.057066	0.009245	0.002486	-0.006926	-0.647461	-0.491211	-0.182861	0.570217	0.402426	-0.626335	0.347291
62553		9.751939	0.248344	-1.085490	0.008104	-0.000461	-0.005811	-0.637939	-0.500000	-0.182129	0.570173	0.402391	-0.626391	0.347303
62554		9.731048	0.253671	-1.040624	0.010288	-0.000108	-0.003060	-0.638428	-0.500244	-0.188477	0.570114	0.402413	-0.626387	0.347381
62555		9.728653	0.235843	-1.090752	0.009989	0.000541	-0.004961	-0.627930	-0.496826	-0.184326	0.570102	0.402403	-0.626392	0.347403
62556		9.753660	0.220145	-1.083669	0.008939	0.001292	-0.005716	-0.639648	-0.506592	-0.178711	0.570086	0.402438	-0.626357	0.347452
62557		9.742277	0.234266	-1.066623	0.007961	0.001407	-0.007699	-0.645264	-0.500488	-0.188721	0.570058	0.402509	-0.626302	0.347514
62558		9.756313	0.252211	-1.063833	0.009381	-0.000628	-0.006269	-0.637695	-0.498535	-0.186768	0.570043	0.402488	-0.626333	0.347506
62559		9.739743	0.227398	-1.066980	0.009833	-0.000678	-0.004972	-0.631348	-0.499023	-0.184570	0.570014	0.402490	-0.626346	0.347530
62560		9.751763	0.255658	-1.085372	0.006087	0.001057	-0.002969	-0.643799	-0.493164	-0.180420	0.570001	0.402477	-0.626343	0.347570
62561		9.744542	0.237675	-1.075940	0.000456	0.001790	-0.001815	-0.639404	-0.510742	-0.187744	0.569989	0.402378	-0.626411	0.347583
62562		9.767786	0.252362	-1.070468	-0.003830	0.001094	-0.002964	-0.642334	-0.498779	-0.182617	0.570043	0.402289	-0.626448	0.347531
62563		9.743629	0.188539	-1.042914	0.000980	0.002320	-0.005473	-0.637451	-0.497559	-0.185791	0.570061	0.402232	-0.626474	0.347520
62564		9.748952	0.229569	-1.063160	0.004876	0.000558	-0.008697	-0.637695	-0.496582	-0.189941	0.570077	0.402229	-0.626477	0.347493
