// Start Time: Unknown
// Update Rate: 40.0Hz
// Filter Profile: human (46.1)
// Firmware Version: 4.6.0
PacketCounter	SampleTimeFine	Acc_X	Acc_Y	Acc_Z	Gyr_X	Gyr_Y	Gyr_Z	Mag_X	Mag_Y	Mag_Z	Quat_q0	Quat_q1	Quat_q2	Quat_q3
61647		9.475161	1.330759	-1.907447	0.004479	-0.020722	0.001135	-0.592041	-0.269775	0.519287	-0.188750	-0.762867	0.125132	-0.605599
61648		9.504900	1.327026	-1.908980	0.005284	-0.017278	0.003093	-0.591309	-0.268066	0.516357	-0.188649	-0.763005	0.125162	-0.605449
61649		9.508202	1.326596	-1.922191	0.005794	-0.017692	0.001500	-0.590820	-0.264648	0.507812	-0.188554	-0.763149	0.125175	-0.605295
61650		9.505437	1.320488	-1.852531	0.007213	-0.017884	-0.003480	-0.598877	-0.268555	0.513916	-0.188484	-0.763306	0.125130	-0.605128
61651		9.514777	1.316039	-1.809750	0.004705	-0.019967	-0.002523	-0.595947	-0.269287	0.506592	-0.188427	-0.763469	0.125117	-0.604943
61652		9.522151	1.328510	-1.852774	0.005948	-0.014973	-0.000732	-0.588135	-0.271484	0.508057	-0.188354	-0.763586	0.125101	-0.604822
61653		9.521294	1.317187	-1.835481	-0.006717	-0.015745	-0.001204	-0.596436	-0.266602	0.505371	-0.188405	-0.763672	0.125177	-0.604681
61654		9.499520	1.317961	-1.816400	-0.016833	-0.017649	-0.000880	-0.587891	-0.268555	0.510742	-0.188550	-0.763739	0.125338	-0.604518
61655		9.496508	1.361355	-1.851550	-0.016669	-0.019053	-0.002979	-0.587402	-0.267578	0.512451	-0.188708	-0.763807	0.125481	-0.604354
61656		9.487395	1.348667	-1.913569	-0.022127	-0.020646	-0.001025	-0.582520	-0.259521	0.511230	-0.188910	-0.763862	0.125681	-0.604180
61657		9.508142	1.348334	-1.918349	-0.022735	-0.017940	-0.002833	-0.589844	-0.262695	0.501953	-0.189135	-0.763899	0.125860	-0.604025
61658		9.476377	1.304830	-1.937533	-0.010323	-0.013465	-0.003664	-0.586670	-0.270508	0.506104	-0.189261	-0.763928	0.125926	-0.603934
61659		9.464421	1.337890	-1.955181	-0.011080	-0.017612	-0.003131	-0.581299	-0.273682	0.496338	-0.189379	-0.763989	0.126022	-0.603800
61660		9.487811	1.366100	-1.957566	-0.006966	-0.017799	-0.001544	-0.586426	-0.266113	0.508545	-0.189448	-0.764070	0.126105	-0.603659
61661		9.483638	1.364777	-1.931032	0.000628	-0.017631	-0.005730	-0.589600	-0.266846	0.505615	-0.189469	-0.764173	0.126080	-0.603527
61662		9.494627	1.343943	-1.919938	0.000761	-0.016159	-0.004768	-0.585449	-0.261230	0.509766	-0.189490	-0.764261	0.126057	-0.603414
61663		9.515522	1.343201	-1.924324	0.000754	-0.012030	-0.004886	-0.586670	-0.260986	0.495361	-0.189505	-0.764324	0.126017	-0.603337
61664		9.502859	1.342877	-1.900218	0.003763	-0.009089	-0.003499	-0.586182	-0.263184	0.511475	-0.189492	-0.764363	0.125965	-0.603303
61665		9.475759	1.347122	-1.913928	-0.003627	-0.006881	-0.003826	-0.584229	-0.270752	0.512451	-0.189550	-0.764366	0.125960	-0.603282
61666		9.493051	1.380636	-1.970298	-0.006757	-0.007512	-0.001484	-0.588135	-0.272461	0.504395	-0.189642	-0.764363	0.126011	-0.603247
61667		9.457137	1.385884	-1.987651	-0.002500	-0.007485	-0.002868	-0.586182	-0.274902	0.512451	-0.189723	-0.764365	0.126018	-0.603217
61668		9.473469	1.351715	-1.940797	-0.005513	-0.010429	-0.004258	-0.590820	-0.257568	0.508789	-0.189845	-0.764403	0.126040	-0.603126
61669		9.484958	1.342431	-1.948336	-0.013365	-0.006900	-0.001356	-0.585205	-0.272705	0.510010	-0.189947	-0.764389	0.126113	-0.603096
61670		9.461121	1.337303	-1.971075	-0.005104	-0.006005	-0.001359	-0.589355	-0.266113	0.513916	-0.190040	-0.764398	0.126150	-0.603048
61671		9.489650	1.327254	-1.991907	-0.007753	-0.005438	-0.001482	-0.579590	-0.271240	0.514648	-0.190116	-0.764398	0.126196	-0.603014
61672		9.494169	1.338289	-2.000937	-0.000022	-0.003787	-0.004704	-0.584717	-0.262207	0.516357	-0.190162	-0.764447	0.126158	-0.602945
61673		9.479293	1.320891	-1.998185	0.009247	0.000424	-0.008001	-0.585449	-0.269531	0.515625	-0.190085	-0.764491	0.125999	-0.602947
61674		9.487148	1.287829	-1.953695	0.015255	-0.000343	-0.005875	-0.590088	-0.268799	0.507080	-0.189976	-0.764549	0.125832	-0.602943
61675		9.496128	1.323933	-1.916302	0.018172	0.000773	-0.007762	-0.587646	-0.265869	0.509521	-0.189861	-0.764571	0.125637	-0.602993
61676		9.513108	1.372618	-1.917243	0.020259	0.003831	-0.007801	-0.581787	-0.262939	0.520264	-0.189702	-0.764586	0.125414	-0.603069
61677		9.498875	1.402848	-1.899949	0.016429	0.009483	-0.006695	-0.583740	-0.275391	0.508789	-0.189534	-0.764602	0.125194	-0.603147
61678		9.465887	1.377705	-1.903710	0.001710	0.006543	-0.005472	-0.592529	-0.265625	0.504395	-0.189642	-0.764547	0.125121	-0.603199
61679		9.469083	1.381065	-1.933195	-0.007551	0.002337	-0.002163	-0.589844	-0.261719	0.504639	-0.189732	-0.764447	0.125165	-0.603287
61680		9.481079	1.394726	-1.980026	-0.009620	0.001798	-0.001367	-0.587891	-0.259766	0.509277	-0.189798	-0.764362	0.125224	-0.603363
61681		9.467541	1.375259	-1.953463	-0.012555	0.007675	-0.003653	-0.588867	-0.264404	0.507568	-0.189880	-0.764263	0.125253	-0.603456
61682		9.453795	1.331425	-1.981056	-0.013570	0.007228	-0.004411	-0.586914	-0.267578	0.514160	-0.190031	-0.764153	0.125296	-0.603539
61683		9.448167	1.335987	-2.014346	-0.007066	0.000668	-0.000581	-0.580811	-0.266846	0.507812	-0.190080	-0.764146	0.125329	-0.603525
61684		9.488676	1.367055	-1.951822	-0.008188	-0.002862	-0.001430	-0.591797	-0.272949	0.506836	-0.190162	-0.764173	0.125375	-0.603456
61685		9.514687	1.379476	-1.885649	-0.008730	0.003287	-0.000825	-0.589111	-0.271729	0.512451	-0.190328	-0.764079	0.125450	-0.603508
61686		9.509176	1.371813	-1.897933	-0.005422	0.006309	-0.000565	-0.593262	-0.259033	0.509033	-0.190422	-0.764014	0.125472	-0.603555
61687		9.481249	1.332686	-1.867838	-0.008668	0.006722	0.001572	-0.589355	-0.271240	0.501709	-0.190370	-0.763902	0.125538	-0.603699
61688		9.479190	1.375280	-1.897343	-0.011037	0.004840	-0.000447	-0.588867	-0.266113	0.506836	-0.190573	-0.763764	0.125637	-0.603790
61689		9.472446	1.432806	-1.864116	-0.011590	0.004335	-0.000493	-0.586670	-0.269043	0.508545	-0.190670	-0.763671	0.125713	-0.603861
61690		9.513284	1.376225	-1.922286	-0.013707	0.002880	-0.001339	-0.589844	-0.266846	0.506592	-0.190833	-0.763606	0.125791	-0.603875
61691		9.488378	1.305176	-1.860495	-0.014360	0.005944	-0.000828	-0.585205	-0.271729	0.509277	-0.190971	-0.763486	0.125880	-0.603965
61692		9.498913	1.288029	-1.887209	-0.009225	0.004949	-0.002421	-0.583008	-0.274658	0.508789	-0.191135	-0.763432	0.125910	-0.603975
61693		9.493682	1.351917	-1.927665	-0.001911	0.008843	-0.000766	-0.591064	-0.268311	0.514404	-0.191274	-0.763373	0.125897	-0.604009
61694		9.469145	1.375150	-1.935600	-0.002073	0.008977	-0.002610	-0.589355	-0.267578	0.504395	-0.191264	-0.763312	0.125862	-0.604096
61695		9.482291	1.352111	-1.896743	0.000162	0.008121	-0.005502	-0.593750	-0.267334	0.509521	-0.191307	-0.763205	0.125802	-0.604230
61696		9.474391	1.364056	-1.898404	0.003166	0.004417	-0.004757	-0.590088	-0.268311	0.508545	-0.191261	-0.763143	0.125733	-0.604336
61697		9.494564	1.331981	-1.879099	-0.002272	0.005331	-0.002039	-0.589844	-0.268799	0.515137	-0.191277	-0.763078	0.125723	-0.604416
61698		9.468171	1.324184	-1.868667	-0.002482	0.005816	-0.001577	-0.595947	-0.263184	0.505371	-0.191252	-0.763067	0.125698	-0.604444
61699		9.462881	1.364583	-1.867699	0.002882	0.006860	-0.002864	-0.586670	-0.274902	0.502686	-0.191141	-0.762935	0.125663	-0.604652
61700		9.515420	1.395668	-1.927011	-0.003076	0.004399	-0.003260	-0.583252	-0.271484	0.509521	-0.191359	-0.762844	0.125673	-0.604695
61701		9.522737	1.364594	-1.902396	-0.008497	0.006571	-0.003725	-0.595703	-0.273926	0.504883	-0.191512	-0.762826	0.125670	-0.604671
61702		9.496234	1.309220	-1.904624	-0.000649	0.008450	-0.002783	-0.589111	-0.273193	0.500000	-0.191647	-0.762660	0.125669	-0.604837
61703		9.459531	1.331388	-1.886198	0.003061	0.007983	-0.004202	-0.597168	-0.269287	0.504150	-0.191787	-0.762523	0.125623	-0.604975
61704		9.468632	1.354259	-1.922570	0.002356	0.004747	-0.002035	-0.584961	-0.269043	0.510254	-0.191772	-0.762386	0.125610	-0.605156
61705		9.490580	1.389274	-1.888700	-0.000399	0.002227	-0.002258	-0.584961	-0.277344	0.500977	-0.191753	-0.762433	0.125569	-0.605111
61706		9.508235	1.376354	-1.859372	-0.002032	0.001973	-0.005574	-0.589111	-0.260010	0.500977	-0.192042	-0.762375	0.125559	-0.605094
61707		9.476788	1.359351	-1.841205	-0.001406	0.007166	-0.006313	-0.589111	-0.268066	0.499268	-0.191908	-0.762277	0.125477	-0.605278
61708		9.512334	1.331592	-1.878419	0.001167	0.008562	-0.004753	-0.589600	-0.277832	0.509521	-0.191956	-0.762139	0.125425	-0.605447
61709		9.489402	1.374334	-1.884741	0.005971	0.010366	-0.002138	-0.590088	-0.263184	0.505859	-0.192087	-0.762083	0.125360	-0.605489
61710		9.469479	1.384195	-1.859894	0.005083	0.002227	-0.003336	-0.592285	-0.272705	0.504395	-0.191887	-0.762077	0.125267	-0.605580
61711		9.508990	1.392462	-1.873265	0.005514	0.003776	-0.003499	-0.585938	-0.274902	0.508057	-0.191937	-0.762006	0.125211	-0.605665
61712		9.504249	1.371394	-1.843033	0.005676	0.009025	-0.004955	-0.586670	-0.277100	0.506104	-0.192044	-0.761994	0.125105	-0.605668
61713		9.510156	1.332123	-1.840249	0.005846	0.011409	-0.002352	-0.587891	-0.275146	0.510498	-0.192201	-0.761928	0.125030	-0.605716
61714		9.483215	1.349611	-1.892565	0.006894	0.008984	-0.004662	-0.593750	-0.272705	0.504639	-0.192270	-0.761928	0.124920	-0.605716
61715		9.467459	1.371438	-1.897102	0.008553	0.007633	-0.000468	-0.585205	-0.272705	0.506348	-0.192251	-0.761825	0.124854	-0.605866
61716		9.484541	1.396047	-1.854962	-0.000400	0.002224	-0.002262	-0.583496	-0.270996	0.502197	-0.192339	-0.761845	0.124833	-0.605817
61717		9.503227	1.415562	-1.866219	0.003361	0.005190	-0.001284	-0.592041	-0.266846	0.505371	-0.192378	-0.761825	0.124781	-0.605841
61718		9.516995	1.365210	-1.861445	-0.000180	0.004258	-0.001966	-0.585205	-0.267090	0.513428	-0.192299	-0.761767	0.124754	-0.605944
61719		9.488125	1.328081	-1.853794	-0.003551	0.005713	-0.000045	-0.597168	-0.262207	0.507080	-0.192210	-0.761841	0.124743	-0.605882
61720		9.481226	1.360406	-1.875528	-0.000811	0.005712	-0.000582	-0.591553	-0.270996	0.504883	-0.191995	-0.761745	0.124744	-0.606070
61721		9.468657	1.372606	-1.890264	0.001999	0.005018	0.001396	-0.587402	-0.272461	0.502930	-0.191990	-0.761676	0.124742	-0.606159
61722		9.514714	1.374915	-1.846536	-0.006332	0.004800	-0.001146	-0.584961	-0.271484	0.490967	-0.192147	-0.761612	0.124774	-0.606184
61723		9.508444	1.357911	-1.859606	-0.005852	0.005997	-0.003619	-0.595703	-0.276855	0.502930	-0.192404	-0.761433	0.124802	-0.606320
61724		9.505471	1.331238	-1.882414	-0.000653	0.005578	0.001262	-0.587402	-0.268555	0.500977	-0.192563	-0.761293	0.124844	-0.606437
61725		9.486376	1.338616	-1.835526	-0.011438	0.006698	0.002065	-0.594727	-0.268555	0.503418	-0.192644	-0.761194	0.124934	-0.606517
61726		9.478666	1.349640	-1.836836	-0.008736	0.005785	-0.000109	-0.597656	-0.274170	0.498779	-0.192667	-0.761074	0.124996	-0.606648
61727		9.504819	1.360389	-1.865802	-0.006206	0.006270	-0.000184	-0.588867	-0.268799	0.500244	-0.192840	-0.760869	0.125072	-0.606834
61728		9.499534	1.352740	-1.877516	-0.005597	0.008940	-0.001689	-0.595215	-0.275879	0.511230	-0.192893	-0.760765	0.125079	-0.606947
61729		9.500570	1.351467	-1.853713	-0.009108	0.006401	-0.001499	-0.598145	-0.270020	0.504395	-0.193043	-0.760725	0.125134	-0.606937
61730		9.508070	1.331544	-1.849557	-0.003037	0.007818	-0.000885	-0.591553	-0.269287	0.497559	-0.193023	-0.760598	0.125148	-0.607100
61731		9.501194	1.304422	-1.862894	0.002206	0.009911	-0.002370	-0.586182	-0.276855	0.508789	-0.193025	-0.760461	0.125100	-0.607281
61732		9.487012	1.334249	-1.844438	0.001316	0.008419	-0.002922	-0.594971	-0.271729	0.508789	-0.193155	-0.760500	0.125043	-0.607203
61733		9.467287	1.415461	-1.847792	0.003026	0.006718	-0.001029	-0.591309	-0.268799	0.506836	-0.193089	-0.760479	0.125004	-0.607257
61734		9.492376	1.393099	-1.836288	0.000579	0.004276	-0.002385	-0.602295	-0.267578	0.500244	-0.193012	-0.760492	0.124965	-0.607274
61735		9.509060	1.310350	-1.800056	0.001914	0.000677	-0.002633	-0.587646	-0.265381	0.494385	-0.192910	-0.760364	0.124960	-0.607467
61736		9.469474	1.314895	-1.807555	0.004771	-0.002884	-0.003713	-0.602783	-0.270020	0.498047	-0.192826	-0.760349	0.124906	-0.607525
61737		9.506643	1.364999	-1.853101	0.012346	-0.000165	0.000014	-0.594971	-0.266602	0.505859	-0.192685	-0.760219	0.124863	-0.607741
61738		9.502478	1.388708	-1.789122	0.006166	0.004495	0.000701	-0.587402	-0.262451	0.502197	-0.192479	-0.760206	0.124806	-0.607834
61739		9.510591	1.378249	-1.785282	0.004255	0.002899	-0.005434	-0.590088	-0.269043	0.508789	-0.192294	-0.760245	0.124689	-0.607867
61740		9.514723	1.343346	-1.827695	0.007455	0.002843	-0.005253	-0.600342	-0.272217	0.499756	-0.192171	-0.760330	0.124543	-0.607831
61741		9.494428	1.305379	-1.817353	0.000634	-0.001453	-0.001382	-0.598389	-0.280518	0.504150	-0.192220	-0.760223	0.124581	-0.607941
61742		9.497598	1.356075	-1.835522	-0.000983	-0.004569	-0.000634	-0.593018	-0.270508	0.501953	-0.192422	-0.760192	0.124625	-0.607906
61743		9.490745	1.374962	-1.817552	0.006776	-0.007026	-0.003707	-0.595703	-0.271240	0.504150	-0.192369	-0.760243	0.124568	-0.607871
61744		9.511337	1.364133	-1.820644	0.000718	-0.003410	-0.002809	-0.593994	-0.267578	0.499512	-0.192364	-0.760248	0.124558	-0.607869
61745		9.493303	1.319043	-1.843146	0.000494	-0.007961	-0.003861	-0.590576	-0.262207	0.501465	-0.192325	-0.760258	0.124558	-0.607868
61746		9.505596	1.307613	-1.829218	0.007407	-0.008481	-0.005094	-0.591064	-0.272705	0.506592	-0.192097	-0.760350	0.124469	-0.607844
61747		9.504155	1.335190	-1.798147	0.004544	-0.007438	-0.004770	-0.593750	-0.276611	0.496826	-0.192090	-0.760459	0.124397	-0.607725
61748		9.509473	1.367347	-1.827954	0.007660	-0.005536	-0.003164	-0.586914	-0.266846	0.510498	-0.192220	-0.760420	0.124374	-0.607737
61749		9.537357	1.384095	-1.815200	-0.001507	-0.001304	-0.003111	-0.595947	-0.273926	0.510498	-0.192112	-0.760547	0.124318	-0.607624
61750		9.504186	1.370529	-1.842163	-0.001334	-0.002703	-0.005210	-0.591064	-0.272461	0.500000	-0.192149	-0.760597	0.124277	-0.607558
61751		9.511131	1.351543	-1.840300	-0.003136	-0.001565	-0.006433	-0.586426	-0.273193	0.505127	-0.192290	-0.760567	0.124264	-0.607553
61752		9.480387	1.307839	-1.856426	-0.003341	0.001438	-0.005216	-0.594727	-0.267090	0.496094	-0.192404	-0.760605	0.124224	-0.607477
61753		9.492417	1.346325	-1.848569	0.000517	0.002109	-0.000837	-0.591064	-0.272461	0.501221	-0.192375	-0.760483	0.124252	-0.607634
61754		9.546414	1.421411	-1.851815	-0.001534	0.002818	-0.003236	-0.586914	-0.272217	0.508545	-0.192463	-0.760436	0.124243	-0.607667
61755		9.537863	1.423255	-1.853698	-0.003774	0.014084	-0.002149	-0.593506	-0.276123	0.502930	-0.192520	-0.760408	0.124194	-0.607694
61756		9.511785	1.462919	-1.945685	-0.007385	0.021067	0.008876	-0.591064	-0.277344	0.510010	-0.192647	-0.760186	0.124296	-0.607910
61757		9.585583	1.577574	-1.784771	-0.095011	-0.009141	0.037106	-0.589111	-0.263672	0.505615	-0.193314	-0.760037	0.125373	-0.607664
61758		9.837519	1.847155	-1.698933	-0.255550	-0.061204	-0.001926	-0.588623	-0.273926	0.504639	-0.195474	-0.759942	0.127440	-0.606660
61759		9.469119	1.627671	-1.543239	-0.162431	0.015150	-0.015908	-0.594971	-0.270264	0.499023	-0.197121	-0.759500	0.128467	-0.606465
61760		9.560711	1.332789	-1.929827	-0.186478	0.116831	-0.054568	-0.592529	-0.280518	0.488770	-0.199364	-0.758194	0.129099	-0.607231
61761		9.272117	0.871437	-2.272672	-0.071997	0.099945	-0.036237	-0.600830	-0.279785	0.505127	-0.200564	-0.757218	0.129086	-0.608056
61762		9.258371	0.991464	-2.017025	-0.004754	0.051838	0.000950	-0.603760	-0.289062	0.496582	-0.200543	-0.756849	0.128994	-0.608541
61763		9.314411	1.174378	-1.764482	0.069888	0.036921	0.014982	-0.595703	-0.282227	0.497070	-0.199911	-0.756657	0.128524	-0.609088
61764		9.351210	1.365138	-1.707065	0.063628	0.032829	0.027721	-0.598877	-0.284424	0.499023	-0.199144	-0.756538	0.128219	-0.609551
61765		9.482225	1.291922	-2.043350	0.055846	0.049168	0.035454	-0.590332	-0.279541	0.499512	-0.198453	-0.756259	0.127997	-0.610169
61766		9.528278	1.360261	-1.968715	0.098054	0.022766	0.013495	-0.598389	-0.279297	0.494385	-0.197440	-0.756404	0.127293	-0.610464
61767		9.535854	1.356981	-1.612163	0.131377	-0.020587	-0.008438	-0.589355	-0.278320	0.495850	-0.196253	-0.756883	0.126271	-0.610466
61768		9.507261	1.357001	-1.516415	0.133014	-0.029557	-0.020986	-0.600098	-0.271240	0.496582	-0.195157	-0.757519	0.125110	-0.610267
61769		9.626636	1.337491	-1.536113	0.129598	-0.020854	-0.015204	-0.594971	-0.279785	0.493164	-0.193949	-0.757978	0.124069	-0.610295
61770		9.666394	1.328450	-1.490951	0.085853	0.003247	-0.009411	-0.598633	-0.276123	0.504639	-0.193352	-0.758125	0.123313	-0.610455
61771		9.519889	1.345970	-1.452392	0.085053	0.004424	-0.012283	-0.592529	-0.265869	0.506348	-0.192654	-0.758339	0.122529	-0.610568
61772		9.527329	1.432611	-1.545066	0.084347	-0.009837	-0.021937	-0.593262	-0.269287	0.504639	-0.191877	-0.758730	0.121717	-0.610489
61773		9.554236	1.452234	-1.676496	0.060840	-0.011160	-0.013734	-0.595215	-0.270264	0.500732	-0.191337	-0.759028	0.121150	-0.610400
61774		9.530739	1.385065	-1.673895	0.046567	-0.017951	-0.009433	-0.596436	-0.260986	0.506836	-0.190940	-0.759278	0.120756	-0.610292
61775		9.467405	1.357876	-1.765636	0.049073	-0.033823	-0.010791	-0.597656	-0.265869	0.494141	-0.190340	-0.759697	0.120409	-0.610027
61776		9.510959	1.349107	-1.831171	0.046088	-0.044665	-0.009602	-0.592285	-0.270508	0.507568	-0.189913	-0.760053	0.120131	-0.609772
61777		9.601930	1.325627	-1.886066	0.034410	-0.034982	-0.006407	-0.597412	-0.266846	0.500732	-0.189579	-0.760450	0.119871	-0.609431
61778		9.499620	1.263516	-1.879311	0.046665	-0.027307	-0.009083	-0.594238	-0.263428	0.506836	-0.189155	-0.760714	0.119531	-0.609300
61779		9.417880	1.297557	-1.870031	0.066186	-0.033698	-0.010519	-0.591309	-0.261719	0.514404	-0.188472	-0.761145	0.119034	-0.609071
61780		9.495176	1.323739	-1.928263	0.047925	-0.032189	-0.006192	-0.589111	-0.266602	0.501465	-0.187878	-0.761590	0.118692	-0.608765
61781		9.548254	1.431495	-1.864670	0.034490	-0.028910	-0.006390	-0.594482	-0.260498	0.503418	-0.187596	-0.761868	0.118452	-0.608550
61782		9.506766	1.377193	-1.892817	0.028985	-0.027309	-0.006198	-0.597168	-0.269775	0.506592	-0.187268	-0.762094	0.118294	-0.608400
61783		9.496246	1.294188	-1.972150	0.042619	-0.027666	-0.004166	-0.597412	-0.263184	0.506836	-0.186903	-0.762350	0.118006	-0.608247
61784		9.502028	1.262214	-1.956039	0.028123	-0.026682	-0.008342	-0.603027	-0.268066	0.511475	-0.186625	-0.762567	0.117817	-0.608097
61785		9.499898	1.325971	-1.875342	0.017313	-0.027401	-0.010738	-0.581055	-0.258545	0.501709	-0.186498	-0.762761	0.117670	-0.607921
61786		9.491088	1.347256	-1.884746	0.034676	-0.022260	-0.007064	-0.585938	-0.265625	0.510986	-0.186165	-0.763018	0.117427	-0.607747
61787		9.443210	1.322811	-1.913371	0.039930	-0.023403	-0.006860	-0.587158	-0.268799	0.514648	-0.185811	-0.763331	0.117104	-0.607525
61788		9.524497	1.364701	-1.902811	0.017025	-0.026566	-0.007996	-0.586670	-0.265625	0.509766	-0.185705	-0.763629	0.116933	-0.607216
61789		9.521275	1.372612	-1.856551	0.003419	-0.027822	-0.009115	-0.593994	-0.261719	0.513184	-0.185730	-0.763862	0.116888	-0.606924
61790		9.500283	1.393700	-1.839398	0.009182	-0.028076	-0.006561	-0.581787	-0.264404	0.502441	-0.185591	-0.764079	0.116851	-0.606700
61791		9.487768	1.351606	-1.927338	0.008723	-0.024188	-0.002596	-0.584961	-0.269287	0.517334	-0.185569	-0.764247	0.116842	-0.606497
61792		9.477639	1.364723	-1.957382	-0.001091	-0.016574	-0.006820	-0.588867	-0.257568	0.515869	-0.185646	-0.764434	0.116796	-0.606246
61793		9.504896	1.372257	-1.926328	-0.004846	-0.011674	-0.010360	-0.586914	-0.264160	0.511719	-0.185637	-0.764542	0.116794	-0.606113
61794		9.483945	1.347216	-1.939370	0.001501	-0.015545	-0.007617	-0.588623	-0.268555	0.514893	-0.185658	-0.764665	0.116760	-0.605958
61795		9.481327	1.340440	-1.965638	-0.006995	-0.017725	-0.003190	-0.588867	-0.264160	0.514404	-0.185756	-0.764788	0.116816	-0.605763
61796		9.463283	1.353449	-1.976858	-0.016207	-0.019084	-0.003858	-0.596680	-0.262207	0.514648	-0.185890	-0.764893	0.116962	-0.605561
61797		9.471924	1.363861	-1.975836	-0.017625	-0.016028	-0.002943	-0.592773	-0.265625	0.519531	-0.185991	-0.764919	0.117144	-0.605461
61798		9.477897	1.378931	-2.039740	-0.019389	-0.016501	-0.003268	-0.588623	-0.265869	0.521240	-0.186129	-0.765007	0.117304	-0.605276
61799		9.480530	1.348644	-2.010517	-0.018058	-0.017587	-0.002778	-0.577148	-0.266602	0.506104	-0.186246	-0.765143	0.117449	-0.605040
61800		9.492018	1.354529	-1.943828	-0.020654	-0.014875	-0.004458	-0.585205	-0.259766	0.500488	-0.186528	-0.765209	0.117610	-0.604840
61801		9.451760	1.359802	-1.952924	-0.017456	-0.009871	-0.002830	-0.588867	-0.259521	0.519531	-0.186707	-0.765146	0.117812	-0.604824
61802		9.481609	1.369927	-1.973044	-0.018927	-0.011502	-0.001089	-0.582764	-0.262695	0.511230	-0.186748	-0.765214	0.117996	-0.604689
61803		9.479978	1.373204	-1.996900	-0.023089	-0.012283	-0.004298	-0.578369	-0.259766	0.511230	-0.186956	-0.765256	0.118186	-0.604535
61804		9.502125	1.371922	-1.977574	-0.022186	-0.005721	-0.002269	-0.595459	-0.260742	0.516846	-0.187116	-0.765274	0.118373	-0.604426
61805		9.502008	1.362247	-1.956988	-0.015023	-0.003664	-0.003986	-0.580322	-0.266846	0.510986	-0.187167	-0.765232	0.118498	-0.604439
61806		9.499469	1.334949	-1.959399	-0.009414	-0.002566	-0.006484	-0.578369	-0.259766	0.512207	-0.187323	-0.765247	0.118527	-0.604366
61807		9.466470	1.309977	-1.963922	-0.012612	0.002929	-0.002804	-0.580566	-0.264404	0.520020	-0.187392	-0.765230	0.118611	-0.604349
61808		9.453089	1.371518	-1.966647	-0.014800	0.000905	-0.002953	-0.581787	-0.275391	0.512207	-0.187477	-0.765269	0.118675	-0.604261
61809		9.480934	1.400819	-1.973929	-0.011410	0.000360	-0.003277	-0.586182	-0.269043	0.517822	-0.187716	-0.765250	0.118716	-0.604203
61810		9.465545	1.385203	-1.991499	-0.013760	0.000983	-0.004525	-0.584229	-0.271973	0.510986	-0.187860	-0.765240	0.118769	-0.604161
61811		9.492886	1.382233	-1.958346	-0.016595	-0.008395	-0.002342	-0.583252	-0.268066	0.508301	-0.188082	-0.765251	0.118901	-0.604051
61812		9.486261	1.354121	-1.952861	-0.020746	-0.007871	-0.001599	-0.585449	-0.265381	0.505371	-0.188310	-0.765234	0.119092	-0.603964
61813		9.468364	1.345989	-1.940403	-0.016837	-0.003776	-0.002017	-0.588135	-0.257080	0.513428	-0.188489	-0.765162	0.119263	-0.603966
61814		9.459027	1.359581	-1.965465	-0.014651	-0.001753	-0.001869	-0.589844	-0.268799	0.505615	-0.188484	-0.765128	0.119402	-0.603984
61815		9.483513	1.398257	-1.963596	-0.012102	-0.001639	-0.004293	-0.579834	-0.271240	0.508057	-0.188669	-0.765031	0.119513	-0.604026
61816		9.470441	1.400302	-1.958588	-0.017720	-0.002752	-0.001810	-0.588623	-0.265625	0.508545	-0.188915	-0.765003	0.119664	-0.603955
61817		9.492542	1.376897	-1.917646	-0.014483	-0.001876	-0.000024	-0.587402	-0.279053	0.516113	-0.189020	-0.764930	0.119819	-0.603984
61818		9.478901	1.368951	-1.912801	-0.018135	0.001985	-0.003331	-0.581787	-0.265137	0.508545	-0.189310	-0.764881	0.119918	-0.603936
61819		9.474663	1.381421	-1.924028	-0.019690	-0.000212	-0.000923	-0.580566	-0.257324	0.511963	-0.189473	-0.764826	0.120090	-0.603920
61820		9.464576	1.396499	-1.969874	-0.016574	0.001711	0.000655	-0.585449	-0.268066	0.516602	-0.189471	-0.764799	0.120231	-0.603927
61821		9.461404	1.406613	-1.959349	-0.022713	-0.000287	0.000771	-0.582031	-0.270996	0.500977	-0.189619	-0.764772	0.120408	-0.603879
61822		9.455912	1.387963	-1.951470	-0.028443	-0.003266	-0.000049	-0.590332	-0.268311	0.512207	-0.189978	-0.764662	0.120698	-0.603848
61823		9.476293	1.356873	-1.932951	-0.026476	-0.003286	-0.000196	-0.589111	-0.271973	0.513428	-0.190179	-0.764595	0.120925	-0.603824
61824		9.500886	1.358755	-1.964560	-0.025469	-0.002835	0.000550	-0.584717	-0.270264	0.509766	-0.190401	-0.764541	0.121143	-0.603779
61825		9.494666	1.330296	-1.957590	-0.022527	-0.000793	0.000279	-0.589844	-0.279785	0.512207	-0.190609	-0.764479	0.121343	-0.603752
61826		9.483909	1.361065	-1.949911	-0.011404	-0.001262	-0.002435	-0.591309	-0.269531	0.510010	-0.190817	-0.764436	0.121429	-0.603723
61827		9.484521	1.371896	-1.948902	-0.004971	0.000809	-0.003683	-0.588379	-0.274170	0.508301	-0.190855	-0.764379	0.121460	-0.603777
61828		9.477529	1.370481	-1.908703	0.001629	0.003999	-0.006277	-0.583496	-0.271240	0.511963	-0.190930	-0.764320	0.121414	-0.603838
61829		9.481804	1.360796	-1.895329	0.004328	0.008139	-0.006954	-0.587891	-0.271484	0.506836	-0.190937	-0.764291	0.121310	-0.603893
61830		9.490866	1.361181	-1.889614	0.006095	0.008613	-0.006626	-0.581543	-0.274170	0.512695	-0.190953	-0.764204	0.121220	-0.604016
61831		9.475122	1.404921	-1.914567	0.004956	0.005435	-0.005154	-0.585938	-0.273193	0.513184	-0.190972	-0.764210	0.121132	-0.604020
61832		9.457183	1.419374	-1.942144	0.006806	0.006468	-0.005498	-0.581299	-0.272705	0.505615	-0.190952	-0.764193	0.121025	-0.604069
61833		9.500478	1.396109	-1.922142	0.001189	0.011635	-0.004705	-0.584473	-0.273682	0.505615	-0.191040	-0.764097	0.120984	-0.604170
61834		9.467863	1.370869	-1.925372	0.001792	0.005110	-0.007631	-0.595459	-0.262695	0.510254	-0.191138	-0.764042	0.120928	-0.604221
61835		9.461981	1.375601	-1.958866	0.005451	0.005015	-0.006763	-0.587402	-0.262207	0.504883	-0.190998	-0.763976	0.120824	-0.604369
61836		9.489759	1.371985	-1.923891	-0.002474	0.007962	-0.003139	-0.589355	-0.274902	0.510010	-0.190960	-0.763871	0.120824	-0.604513
61837		9.458141	1.413837	-1.913263	-0.003452	0.003371	-0.003776	-0.588135	-0.271973	0.503906	-0.191053	-0.763818	0.120836	-0.604549
61838		9.482203	1.405920	-1.945032	0.000157	0.002351	-0.004552	-0.600586	-0.270020	0.503174	-0.191120	-0.763751	0.120839	-0.604612
61839		9.484141	1.378192	-1.955108	-0.004326	0.006927	-0.002798	-0.586426	-0.277832	0.505371	-0.191172	-0.763572	0.120884	-0.604813
61840		9.485276	1.377304	-1.931774	-0.003238	0.005412	-0.003480	-0.581055	-0.276367	0.506348	-0.191337	-0.763490	0.120924	-0.604856
61841		9.484072	1.358917	-1.931554	0.002941	0.009578	-0.005144	-0.584473	-0.276367	0.509766	-0.191447	-0.763430	0.120882	-0.604905
61842		9.467561	1.359956	-1.915353	0.005046	0.011048	-0.004308	-0.589600	-0.274414	0.505615	-0.191500	-0.763369	0.120813	-0.604979
61843		9.470673	1.374418	-1.965080	0.001722	0.005843	-0.002995	-0.585205	-0.271973	0.511719	-0.191549	-0.763289	0.120802	-0.605066
61844		9.475314	1.421666	-1.938172	0.000883	0.005266	-0.001896	-0.582031	-0.269775	0.509033	-0.191542	-0.763273	0.120781	-0.605093
61845		9.485520	1.408032	-1.890179	0.000584	0.006431	-0.003962	-0.583496	-0.275635	0.504639	-0.191549	-0.763252	0.120741	-0.605126
61846		9.489216	1.388307	-1.877090	0.001170	0.009098	-0.005482	-0.582520	-0.276611	0.507812	-0.191665	-0.763175	0.120714	-0.605192
61847		9.466175	1.382721	-1.896274	0.003239	0.010937	-0.002324	-0.583252	-0.268066	0.513184	-0.191736	-0.763109	0.120689	-0.605258
61848		9.456349	1.434081	-1.906570	0.000591	0.011486	-0.002443	-0.583740	-0.264893	0.511963	-0.191690	-0.763070	0.120632	-0.605332
61849		9.491475	1.421310	-1.889601	-0.000512	0.005414	-0.004047	-0.587646	-0.274902	0.507568	-0.191621	-0.763071	0.120575	-0.605364
61850		9.455515	1.404756	-1.884138	-0.003072	0.002759	-0.002395	-0.587646	-0.261719	0.508301	-0.191702	-0.763031	0.120605	-0.605383
61851		9.484704	1.394642	-1.902870	-0.004363	0.003526	0.001956	-0.584717	-0.279297	0.510742	-0.191590	-0.762990	0.120639	-0.605463
61852		9.500160	1.411501	-1.883278	-0.008648	0.005081	0.002475	-0.583496	-0.271240	0.504150	-0.191733	-0.762943	0.120751	-0.605454
61853		9.489924	1.429709	-1.853177	-0.008527	0.007797	0.000238	-0.595459	-0.272461	0.508301	-0.191836	-0.762852	0.120837	-0.605520
61854		9.481500	1.405859	-1.909941	-0.013065	0.005151	0.002019	-0.586426	-0.275635	0.507324	-0.191922	-0.762737	0.120965	-0.605612
61855		9.480402	1.386308	-1.910110	-0.012642	0.002939	0.004293	-0.588379	-0.277344	0.506836	-0.192051	-0.762672	0.121131	-0.605619
61856		9.479486	1.355069	-1.889433	-0.011931	0.004560	0.002982	-0.592773	-0.275879	0.509277	-0.192201	-0.762587	0.121281	-0.605649
61857		9.477915	1.383374	-1.876812	-0.007600	0.003930	0.004111	-0.584961	-0.269287	0.505615	-0.192254	-0.762513	0.121395	-0.605703
61858		9.473398	1.384455	-1.888061	-0.004872	0.007702	0.001112	-0.590332	-0.271484	0.497559	-0.192270	-0.762441	0.121447	-0.605778
61859		9.486261	1.362266	-1.870576	-0.002175	0.010603	0.003640	-0.593018	-0.270752	0.497803	-0.192300	-0.762277	0.121530	-0.605958
61860		9.522409	1.346578	-1.831640	-0.009710	0.006220	0.000820	-0.591553	-0.274658	0.500488	-0.192398	-0.762126	0.121649	-0.606093
61861		9.508331	1.339074	-1.847421	-0.000750	0.007558	0.002706	-0.598145	-0.279785	0.505127	-0.192436	-0.762005	0.121720	-0.606218
61862		9.477080	1.343151	-1.871004	0.002480	0.002099	-0.000972	-0.590576	-0.272461	0.503906	-0.192483	-0.761936	0.121743	-0.606286
61863		9.482488	1.374547	-1.898509	-0.002310	0.004068	0.001144	-0.587158	-0.278320	0.511475	-0.192497	-0.761870	0.121796	-0.606354
61864		9.471697	1.415628	-1.911521	-0.000209	0.000487	0.000465	-0.586426	-0.270264	0.504883	-0.192538	-0.761891	0.121838	-0.606306
61865		9.510829	1.379558	-1.863319	-0.000297	0.001166	-0.002066	-0.582031	-0.270264	0.503418	-0.192531	-0.761882	0.121842	-0.606318
61866		9.478792	1.293721	-1.859947	0.000335	0.004757	-0.001939	-0.588135	-0.270752	0.501709	-0.192544	-0.761859	0.121844	-0.606343
61867		9.464543	1.355737	-1.884107	0.002568	0.001420	0.001559	-0.589111	-0.274170	0.504395	-0.192500	-0.761825	0.121872	-0.606394
61868		9.478390	1.422209	-1.874701	0.004459	-0.001674	0.001344	-0.589600	-0.275635	0.507080	-0.192463	-0.761828	0.121898	-0.606397
61869		9.496184	1.420076	-1.866731	-0.001682	0.002607	-0.000250	-0.584717	-0.272705	0.507568	-0.192509	-0.761798	0.121943	-0.606411
61870		9.502378	1.355912	-1.920586	-0.005809	-0.002302	-0.003370	-0.588867	-0.270996	0.506348	-0.192585	-0.761826	0.121991	-0.606342
61871		9.483255	1.327430	-1.909340	-0.003280	-0.000517	0.000509	-0.594971	-0.277832	0.502441	-0.192580	-0.761818	0.122043	-0.606344
61872		9.457723	1.316699	-1.878228	0.002989	0.002972	0.001391	-0.586182	-0.274902	0.502686	-0.192598	-0.761744	0.122087	-0.606421
61873		9.505610	1.371708	-1.874856	0.008283	0.003112	-0.001569	-0.580566	-0.272949	0.504395	-0.192580	-0.761728	0.122059	-0.606452
61874		9.470745	1.396908	-1.910352	0.011098	0.003678	-0.002796	-0.585449	-0.277344	0.504883	-0.192532	-0.761750	0.121990	-0.606454
61875		9.490885	1.387744	-1.934075	0.001638	-0.003530	-0.001395	-0.589600	-0.265625	0.497070	-0.192591	-0.761781	0.122038	-0.606387
61876		9.497082	1.324834	-1.892266	0.005634	-0.002628	-0.000008	-0.581299	-0.285400	0.512207	-0.192471	-0.761764	0.122021	-0.606450
61877		9.489243	1.301069	-1.833049	0.008864	0.000725	-0.004611	-0.593018	-0.270264	0.507324	-0.192580	-0.761832	0.122004	-0.606334
61878		9.509907	1.338362	-1.821128	0.012692	0.009325	-0.002805	-0.586914	-0.271973	0.497314	-0.192440	-0.761781	0.121874	-0.606468
61879		9.486277	1.391688	-1.848965	0.013236	0.009830	-0.002767	-0.589844	-0.270264	0.506592	-0.192378	-0.761699	0.121781	-0.606609
61880		9.495089	1.414135	-1.885505	0.005332	0.004821	-0.003767	-0.590820	-0.272217	0.502930	-0.192326	-0.761677	0.121716	-0.606667
61881		9.469817	1.367785	-1.888024	-0.003702	-0.000833	-0.002526	-0.583252	-0.274658	0.505127	-0.192379	-0.761649	0.121762	-0.606675
61882		9.504902	1.306999	-1.886384	0.002643	-0.004367	-0.004601	-0.597168	-0.265137	0.509766	-0.192429	-0.761706	0.121770	-0.606586
61883		9.533121	1.301044	-1.831088	0.012056	0.005732	-0.002936	-0.594727	-0.266846	0.500488	-0.192206	-0.761685	0.121613	-0.606715
61884		9.498518	1.384269	-1.852318	0.008816	0.007374	-0.003989	-0.593018	-0.280029	0.510498	-0.192097	-0.761605	0.121509	-0.606871
61885		9.465695	1.450700	-1.905517	0.004612	0.006957	-0.004911	-0.594727	-0.273193	0.507812	-0.192160	-0.761567	0.121469	-0.606906
61886		9.470364	1.392654	-1.905581	-0.002906	-0.001184	-0.005270	-0.589355	-0.272705	0.506836	-0.192208	-0.761560	0.121473	-0.606899
61887		9.503198	1.328114	-1.850971	-0.007651	-0.000813	-0.002266	-0.585449	-0.270020	0.504639	-0.192293	-0.761550	0.121548	-0.606870
61888		9.518295	1.346079	-1.832018	-0.001143	0.004345	-0.003422	-0.591309	-0.278809	0.502686	-0.192320	-0.761524	0.121548	-0.606893
61889		9.502769	1.389310	-1.856574	0.001667	0.012488	-0.002380	-0.590820	-0.263916	0.496094	-0.192418	-0.761403	0.121559	-0.607012
61890		9.480638	1.393382	-1.874427	-0.003001	0.012119	-0.004022	-0.590332	-0.274902	0.507812	-0.192420	-0.761259	0.121532	-0.607197
61891		9.493914	1.394187	-1.876437	-0.005021	0.011203	-0.005541	-0.593506	-0.271729	0.500000	-0.192538	-0.761174	0.121532	-0.607268
61892		9.475374	1.341648	-1.918030	-0.006564	0.001430	-0.005400	-0.598389	-0.268799	0.504395	-0.192637	-0.761111	0.121572	-0.607307
61893		9.495046	1.300248	-1.900695	-0.000581	-0.005189	0.000767	-0.594727	-0.272705	0.504883	-0.192551	-0.761111	0.121604	-0.607327
61894		9.503387	1.335877	-1.863257	0.001046	0.002614	-0.000807	-0.590088	-0.266113	0.514893	-0.192532	-0.761072	0.121616	-0.607381
61895		9.483316	1.403540	-1.825260	0.003980	0.005894	-0.004276	-0.589355	-0.267822	0.498535	-0.192407	-0.761093	0.121496	-0.607417
61896		9.473617	1.418458	-1.870889	0.004488	0.004244	-0.002670	-0.593018	-0.271240	0.504883	-0.192365	-0.761044	0.121470	-0.607498
61897		9.512683	1.383103	-1.822214	-0.003535	0.000277	-0.003882	-0.590088	-0.270264	0.499023	-0.192400	-0.761024	0.121489	-0.607508
61898		9.463673	1.309695	-1.825689	-0.008043	0.006070	-0.005366	-0.593750	-0.270020	0.509766	-0.192524	-0.760933	0.121538	-0.607572
61899		9.495725	1.339467	-1.840227	-0.007832	0.006875	-0.001864	-0.593262	-0.271973	0.511475	-0.192550	-0.760875	0.121560	-0.607632
61900		9.485566	1.390855	-1.852027	-0.004625	0.000555	0.000001	-0.592285	-0.273926	0.510010	-0.192535	-0.760880	0.121591	-0.607625
61901		9.507079	1.412952	-1.894559	-0.011350	-0.000363	-0.000840	-0.593506	-0.270508	0.501221	-0.192620	-0.760871	0.121683	-0.607590
61902		9.526109	1.362344	-1.877514	-0.010051	-0.001128	-0.005191	-0.597412	-0.268799	0.505127	-0.192732	-0.760831	0.121757	-0.607590
61903		9.476640	1.314000	-1.826792	-0.005980	0.002859	-0.003719	-0.594727	-0.269043	0.502441	-0.192748	-0.760776	0.121776	-0.607650
61904		9.480111	1.363518	-1.821687	-0.002788	0.005346	-0.002794	-0.594238	-0.275635	0.509033	-0.192755	-0.760705	0.121789	-0.607734
61905		9.471071	1.399498	-1.887233	0.001041	0.005139	-0.000048	-0.598145	-0.269287	0.496582	-0.192736	-0.760673	0.121786	-0.607780
61906		9.501759	1.397840	-1.883374	-0.005893	0.000890	-0.005155	-0.597412	-0.274170	0.508057	-0.192815	-0.760591	0.121850	-0.607846
61907		9.488952	1.376473	-1.836403	-0.007443	-0.001308	-0.002746	-0.593750	-0.278076	0.494141	-0.192868	-0.760578	0.121901	-0.607835
61908		9.497061	1.355295	-1.812574	-0.000336	-0.002285	-0.004476	-0.587891	-0.278076	0.505371	-0.192998	-0.760531	0.121986	-0.607835
61909		9.542635	1.382335	-1.811365	0.001158	0.007853	-0.002289	-0.593994	-0.281250	0.503662	-0.193057	-0.760487	0.121987	-0.607872
61910		9.481540	1.399079	-1.836541	0.004224	0.008859	-0.002333	-0.589355	-0.271973	0.493896	-0.193116	-0.760411	0.121983	-0.607949
61911		9.498666	1.399827	-1.848772	-0.006110	0.003899	-0.003937	-0.588135	-0.273193	0.500000	-0.193243	-0.760325	0.122067	-0.607999
61912		9.470702	1.384386	-1.861573	-0.009003	0.000248	-0.002794	-0.594727	-0.266113	0.496582	-0.193365	-0.760293	0.122165	-0.607980
61913		9.508836	1.351114	-1.835159	-0.003279	-0.001812	-0.003465	-0.591309	-0.264160	0.496826	-0.193355	-0.760258	0.122194	-0.608021
61914		9.507621	1.320900	-1.815222	0.002797	0.006851	-0.002921	-0.596924	-0.267822	0.504395	-0.193282	-0.760187	0.122151	-0.608142
61915		9.502994	1.392022	-1.833315	0.002914	0.010855	-0.001195	-0.586182	-0.275635	0.496582	-0.193187	-0.760099	0.122089	-0.608295
61916		9.483824	1.409658	-1.904161	-0.002868	0.002262	-0.002879	-0.590576	-0.277832	0.502686	-0.193308	-0.760057	0.122171	-0.608293
61917		9.490297	1.347513	-1.860634	-0.006699	0.003757	-0.001659	-0.584961	-0.273682	0.493896	-0.193433	-0.760007	0.122261	-0.608297
61918		9.478889	1.356606	-1.832367	-0.007449	0.001212	-0.001995	-0.593994	-0.277588	0.499756	-0.193581	-0.759955	0.122391	-0.608288
61919		9.498510	1.395971	-1.842498	0.003443	0.001635	-0.001858	-0.590576	-0.264648	0.499268	-0.193610	-0.759922	0.122422	-0.608314
61920		9.498042	1.386561	-1.842050	-0.000701	0.009338	-0.001197	-0.589844	-0.277100	0.502686	-0.193547	-0.759841	0.122394	-0.608442
61921		9.507299	1.374663	-1.815158	-0.004900	0.006391	-0.002889	-0.586426	-0.274414	0.498779	-0.193660	-0.759783	0.122449	-0.608466
61922		9.493817	1.366435	-1.809834	-0.004007	0.002846	-0.003855	-0.593018	-0.268555	0.504395	-0.193765	-0.759752	0.122503	-0.608461
61923		9.497164	1.369286	-1.839722	-0.001228	0.002551	0.000460	-0.585938	-0.273193	0.507568	-0.193693	-0.759734	0.122505	-0.608506
61924		9.504159	1.385559	-1.802946	-0.005304	0.001084	-0.000263	-0.599609	-0.275391	0.505859	-0.193718	-0.759754	0.122546	-0.608465
61925		9.530153	1.373576	-1.790963	-0.004642	0.004304	-0.002465	-0.592285	-0.278320	0.506104	-0.193757	-0.759698	0.122573	-0.608517
61926		9.497443	1.370717	-1.837217	0.000614	0.004820	-0.003091	-0.593262	-0.267578	0.507568	-0.193798	-0.759676	0.122566	-0.608533
61927		9.500333	1.352226	-1.846513	-0.001406	0.005193	-0.000644	-0.593750	-0.275146	0.503662	-0.193717	-0.759655	0.122534	-0.608591
61928		9.493637	1.370874	-1.826607	0.002946	-0.000471	-0.001009	-0.594482	-0.269531	0.502197	-0.193687	-0.759663	0.122539	-0.608590
61929		9.508623	1.388156	-1.808002	0.002011	0.002150	-0.001690	-0.593018	-0.272217	0.503174	-0.193626	-0.759643	0.122523	-0.608637
61930		9.476728	1.359782	-1.791765	-0.000121	-0.001480	-0.000970	-0.586914	-0.268555	0.502686	-0.193599	-0.759653	0.122543	-0.608629
61931		9.507784	1.390589	-1.829748	-0.003115	0.000591	-0.000852	-0.592041	-0.278320	0.494385	-0.193582	-0.759661	0.122566	-0.608621
61932		9.523521	1.417517	-1.809903	0.000619	0.003587	0.000122	-0.594727	-0.272461	0.495605	-0.193664	-0.759589	0.122666	-0.608665
61933		9.493845	1.360283	-1.804329	0.001799	0.002636	-0.001227	-0.599609	-0.270996	0.502441	-0.193669	-0.759531	0.122710	-0.608726
61934		9.501979	1.361416	-1.821778	-0.000463	0.000049	-0.000720	-0.596191	-0.270752	0.497559	-0.193623	-0.759505	0.122731	-0.608768
61935		9.494375	1.381971	-1.824352	-0.001423	-0.002009	-0.000591	-0.594482	-0.281738	0.505615	-0.193617	-0.759481	0.122796	-0.608787
61936		9.488832	1.362270	-1.817839	0.002327	-0.004058	-0.001131	-0.589355	-0.274902	0.499268	-0.193642	-0.759519	0.122830	-0.608725
61937		9.524740	1.379793	-1.822505	0.000463	-0.000049	0.000719	-0.587891	-0.269287	0.505615	-0.193657	-0.759510	0.122895	-0.608718
61938		9.510477	1.361277	-1.819076	0.001590	0.001832	-0.004735	-0.585938	-0.276855	0.505371	-0.193617	-0.759536	0.122828	-0.608712
61939		9.485949	1.324621	-1.821466	0.002906	-0.001394	-0.002656	-0.596924	-0.276611	0.508789	-0.193623	-0.759587	0.122812	-0.608650
61940		9.491132	1.355893	-1.850260	0.007580	-0.002251	0.002214	-0.597412	-0.279541	0.501953	-0.193503	-0.759628	0.122793	-0.608641
61941		9.507315	1.391916	-1.831171	0.007501	-0.004099	-0.001081	-0.591553	-0.275391	0.506104	-0.193471	-0.759653	0.122802	-0.608619
61942		9.506621	1.359382	-1.791103	0.006062	-0.002353	-0.004131	-0.589600	-0.277588	0.506348	-0.193431	-0.759705	0.122747	-0.608578
61943		9.518598	1.361242	-1.818280	0.007191	-0.000415	-0.002400	-0.590088	-0.271973	0.499756	-0.193393	-0.759747	0.122701	-0.608545
61944		9.498648	1.334321	-1.829732	0.009859	-0.006003	-0.003783	-0.593994	-0.266357	0.499512	-0.193316	-0.759812	0.122657	-0.608498
61945		9.492870	1.372302	-1.810364	0.005359	-0.005206	0.000396	-0.591064	-0.271484	0.509521	-0.193196	-0.759841	0.122670	-0.608497
61946		9.516398	1.400089	-1.809952	0.005766	-0.002425	-0.002992	-0.586426	-0.270020	0.501953	-0.193103	-0.759908	0.122597	-0.608458
61947		9.519077	1.358516	-1.779637	0.003717	-0.005499	-0.002946	-0.592285	-0.260254	0.503174	-0.193061	-0.759973	0.122587	-0.608392
61948		9.503033	1.343764	-1.820907	0.003790	-0.002419	-0.002868	-0.595459	-0.277344	0.495605	-0.192923	-0.760004	0.122538	-0.608406
61949		9.513019	1.362689	-1.815999	0.005554	-0.001939	-0.002530	-0.590576	-0.270020	0.502686	-0.192953	-0.759983	0.122585	-0.608414
61950		9.482013	1.376911	-1.841062	0.005480	-0.005020	-0.002609	-0.593018	-0.272217	0.489990	-0.192883	-0.760037	0.122562	-0.608374
61951		9.498591	1.377298	-1.856444	0.005276	-0.007058	-0.002902	-0.583984	-0.275391	0.500244	-0.192904	-0.760038	0.122641	-0.608349
61952		9.506478	1.355749	-1.834164	0.003048	-0.007490	-0.003960	-0.593994	-0.270508	0.499756	-0.192939	-0.760113	0.122664	-0.608241
61953		9.509503	1.335806	-1.824824	0.003258	-0.007978	-0.004425	-0.595459	-0.274414	0.493408	-0.192914	-0.760161	0.122671	-0.608187
61954		9.498196	1.366023	-1.818972	0.006982	-0.002455	-0.002703	-0.598389	-0.276123	0.503662	-0.192917	-0.760137	0.122713	-0.608208
61955		9.498557	1.376352	-1.819239	0.000055	-0.005420	-0.003839	-0.597656	-0.269531	0.505615	-0.192945	-0.760157	0.122746	-0.608167
61956		9.507602	1.397262	-1.836698	-0.002041	-0.005600	-0.000708	-0.593262	-0.268066	0.505859	-0.192898	-0.760183	0.122784	-0.608142
61957		9.504004	1.349306	-1.841969	-0.000491	-0.005929	-0.003881	-0.594238	-0.273438	0.501465	-0.192855	-0.760235	0.122771	-0.608093
61958		9.485277	1.342346	-1.851788	-0.001718	-0.003377	-0.003420	-0.593506	-0.263428	0.495605	-0.192895	-0.760238	0.122819	-0.608067
61959		9.512864	1.360030	-1.839185	-0.001841	-0.004859	-0.004391	-0.593994	-0.276855	0.497803	-0.192884	-0.760235	0.122857	-0.608066
61960		9.515780	1.363204	-1.870740	0.002021	-0.002902	-0.003212	-0.597412	-0.272461	0.502930	-0.192941	-0.760225	0.122919	-0.608048
61961		9.468615	1.329562	-1.894446	0.003110	-0.001886	-0.003129	-0.590576	-0.275391	0.501221	-0.192912	-0.760225	0.122917	-0.608058
61962		9.473124	1.386593	-1.868472	-0.003652	-0.002445	-0.001644	-0.590332	-0.271484	0.499268	-0.192985	-0.760222	0.123005	-0.608020
61963		9.517779	1.450651	-1.834343	-0.010810	-0.001172	-0.004774	-0.597900	-0.265625	0.504150	-0.193126	-0.760192	0.123108	-0.607993
61964		9.563584	1.408847	-1.825607	-0.008474	0.005794	-0.001232	-0.591797	-0.268066	0.501709	-0.193128	-0.760112	0.123147	-0.608084
61965		9.513923	1.372993	-1.814894	-0.012680	0.017620	-0.000700	-0.595215	-0.281006	0.499268	-0.193233	-0.759938	0.123220	-0.608253
61966		9.548150	1.446287	-1.862305	-0.053155	0.049450	-0.003957	-0.596924	-0.272461	0.498535	-0.193923	-0.759402	0.123575	-0.608631
61967		9.495446	1.518291	-1.900854	-0.058575	0.060452	-0.015650	-0.596680	-0.281982	0.501221	-0.194677	-0.758791	0.123782	-0.609110
61968		9.441479	1.434601	-1.948459	-0.021859	0.056021	-0.014464	-0.593506	-0.281006	0.496582	-0.195127	-0.758316	0.123748	-0.609564
61969		9.437229	1.386613	-1.908697	-0.042382	0.047310	0.002439	-0.596436	-0.278320	0.495850	-0.195644	-0.757827	0.124067	-0.609942
61970		9.596266	1.241888	-1.917800	-0.068298	0.048386	0.010873	-0.585693	-0.276855	0.492432	-0.196306	-0.757249	0.124643	-0.610330
61971		9.697512	1.303830	-1.306060	-0.123349	0.032478	-0.010806	-0.597168	-0.278320	0.499756	-0.197646	-0.756714	0.125476	-0.610389
61972		9.888772	1.608939	-0.869964	-0.077478	0.165472	-0.055198	-0.589355	-0.283936	0.498779	-0.199029	-0.755350	0.125156	-0.611694
61973		10.098385	1.636613	-0.575776	-0.138821	0.329735	-0.113091	-0.604004	-0.287109	0.486328	-0.201733	-0.752690	0.124350	-0.614246
61974		10.224346	1.752439	-0.230826	-0.178457	0.526119	-0.171865	-0.603516	-0.282715	0.476562	-0.205562	-0.748425	0.122828	-0.618480
61975		9.723233	2.109968	0.598778	-0.474615	0.650766	-0.221099	-0.614502	-0.294189	0.461426	-0.212650	-0.742469	0.122762	-0.623257
61976		8.800821	2.704333	0.439494	-0.840817	0.811886	-0.252899	-0.623779	-0.309082	0.438232	-0.223613	-0.734186	0.124818	-0.628800
61977		8.050848	2.413253	1.310068	-1.035483	0.964944	-0.080064	-0.623047	-0.315918	0.422119	-0.235213	-0.723661	0.129553	-0.635771
61978		9.580902	0.446373	0.912637	-0.503930	0.656586	0.008109	-0.636475	-0.313477	0.411133	-0.240688	-0.716919	0.131656	-0.640908
61979		10.045590	0.257161	0.318347	-0.374585	0.725736	-0.027060	-0.644287	-0.325928	0.377686	-0.245274	-0.709996	0.132162	-0.646746
61980		8.529879	1.057574	1.395908	-0.337094	1.138643	-0.034062	-0.654541	-0.330322	0.366455	-0.250432	-0.699638	0.131202	-0.656184
61981		7.710030	1.245130	0.468679	-0.641210	1.446480	0.015036	-0.672607	-0.331299	0.339111	-0.258205	-0.685562	0.132074	-0.667751
61982		7.251134	0.434142	-0.453630	-0.403275	1.309451	0.019626	-0.681152	-0.333984	0.311768	-0.263527	-0.673153	0.131405	-0.678345
61983		7.963752	1.980127	1.948454	-0.589541	0.909041	0.054560	-0.693359	-0.331055	0.290039	-0.269426	-0.663300	0.133931	-0.685205
61984		9.081220	0.664720	0.379096	-0.663897	1.504979	0.098878	-0.684082	-0.336182	0.266602	-0.276434	-0.647796	0.135472	-0.696844
61985		8.676099	-0.068703	1.117156	-0.620816	1.262304	0.206512	-0.702881	-0.334961	0.241455	-0.281628	-0.634237	0.138148	-0.706643
61986		10.782955	4.032088	0.710058	0.335329	0.625626	-0.084740	-0.698242	-0.330811	0.225586	-0.280617	-0.630038	0.132337	-0.711894
61987		12.854982	5.918552	-1.010292	0.026510	0.606109	-0.209997	-0.703857	-0.333984	0.221924	-0.283186	-0.625048	0.128433	-0.715979
61988		16.015344	2.168219	-0.405792	-0.578547	0.177738	-0.144670	-0.702881	-0.331787	0.206055	-0.289103	-0.621657	0.131906	-0.715935
61989		20.452687	1.968948	-2.396499	0.485263	-0.747851	-0.030330	-0.705322	-0.327637	0.231934	-0.284258	-0.630086	0.130293	-0.710783
61990		23.008835	2.989132	-0.550408	0.505128	-1.206376	0.078290	-0.702148	-0.329102	0.244629	-0.277377	-0.642415	0.130944	-0.702295
61991		21.506024	2.484143	1.817167	0.588948	-1.087863	0.196737	-0.701416	-0.327637	0.280273	-0.269112	-0.653532	0.131509	-0.695112
61992		15.836393	2.273011	0.372149	0.755090	-0.885161	0.365392	-0.697998	-0.312988	0.295166	-0.258176	-0.663089	0.131091	-0.690270
61993		6.807684	1.458630	-1.266225	0.977353	-0.845861	0.350477	-0.702148	-0.299805	0.312256	-0.245600	-0.672832	0.128579	-0.685890
61994		0.789287	2.949764	-0.944526	0.968636	-0.931006	0.196788	-0.703369	-0.291748	0.345703	-0.234258	-0.683291	0.125157	-0.680126
61995		0.009162	3.585554	0.895579	0.294993	-0.923592	0.010857	-0.689941	-0.297852	0.363770	-0.230123	-0.691907	0.125676	-0.672692
61996		1.394000	2.032019	2.652919	0.220197	-0.667312	-0.103982	-0.694580	-0.291748	0.385254	-0.228009	-0.698269	0.124908	-0.666955
61997		3.128580	-1.883495	3.361764	0.489724	-0.331601	0.035328	-0.692383	-0.294434	0.384033	-0.222826	-0.702350	0.122170	-0.664927
61998		1.349992	-2.907439	2.099012	0.025532	0.049427	0.031887	-0.690674	-0.284668	0.376709	-0.222414	-0.701920	0.122185	-0.665515
61999		0.214789	-0.812093	0.025761	-0.273095	0.184366	-0.025270	-0.694824	-0.291504	0.382568	-0.225310	-0.699618	0.123863	-0.666655
62000		-0.349469	1.539328	1.041830	0.178925	0.394906	-0.106641	-0.686035	-0.278564	0.369141	-0.225218	-0.696971	0.120380	-0.670087
62001		0.004155	1.545111	1.625202	0.166189	0.329842	-0.142316	-0.690186	-0.296387	0.366699	-0.225443	-0.694865	0.116892	-0.672811
62002		1.362717	0.172155	0.256959	-0.310754	0.327925	-0.146194	-0.685303	-0.289551	0.363281	-0.229830	-0.691418	0.117296	-0.674804
62003		4.754594	-0.516628	-0.272795	-1.047605	0.892448	-0.096032	-0.687012	-0.301270	0.339111	-0.240943	-0.680909	0.122736	-0.680621
62004		15.728542	6.437903	1.976493	-1.454551	0.712776	0.080041	-0.694336	-0.304199	0.321777	-0.253663	-0.670192	0.133632	-0.684573
62005		31.671981	7.456961	1.439514	-1.502222	1.002544	-0.015676	-0.683838	-0.319336	0.282227	-0.267960	-0.656700	0.143155	-0.690253
62006		33.038974	-6.117509	-1.289850	-1.280511	0.715886	-0.064126	-0.696777	-0.334717	0.262695	-0.280225	-0.646231	0.151208	-0.693539
62007		30.719859	1.228509	-4.433865	2.061389	-0.283798	0.069888	-0.705078	-0.317871	0.291748	-0.262322	-0.655551	0.134873	-0.695162
62008		25.724880	7.697821	0.264230	1.421585	-0.995203	0.433809	-0.695557	-0.296143	0.312988	-0.245160	-0.667960	0.129413	-0.690636
62009		14.638330	4.691410	0.621228	0.610596	-1.069814	0.268448	-0.697510	-0.297119	0.336182	-0.235988	-0.678542	0.129753	-0.683414
62010		5.240480	0.542943	0.232803	0.481313	-0.661541	0.172773	-0.702881	-0.294434	0.352539	-0.229339	-0.685286	0.129097	-0.679058
62011		-0.258515	1.818890	3.842137	1.290063	-0.129840	-0.030954	-0.705566	-0.277832	0.364258	-0.218308	-0.690034	0.118284	-0.679855
62012		1.190536	2.680909	4.400062	0.632404	-0.032928	-0.118870	-0.711670	-0.276367	0.369385	-0.213808	-0.692177	0.112049	-0.680163
62013		1.884166	0.117006	2.389470	-0.075800	0.446071	-0.050133	-0.724121	-0.280273	0.358398	-0.215505	-0.688221	0.111117	-0.683786
62014		-0.827815	-1.382584	1.508832	0.406991	0.349850	-0.174081	-0.718018	-0.283203	0.350586	-0.213967	-0.686529	0.105241	-0.686892
62015		-0.767808	-0.582285	-0.582028	0.178457	0.181916	-0.099087	-0.729004	-0.279785	0.356201	-0.213509	-0.685553	0.102387	-0.688439
62016		-0.188911	1.548543	0.922849	-0.038265	0.323532	-0.072413	-0.715820	-0.280518	0.343262	-0.214862	-0.682739	0.101277	-0.690974
62017		-0.102974	1.618221	1.350752	0.046856	0.179096	-0.228033	-0.712158	-0.286865	0.342773	-0.216639	-0.681588	0.098463	-0.691961
62018		0.469885	0.248823	0.353272	-0.146991	0.032641	-0.244170	-0.719238	-0.288574	0.340820	-0.220018	-0.681190	0.097566	-0.691414
62019		1.879532	-1.788199	-0.266207	-0.467223	0.373903	-0.255376	-0.708740	-0.299316	0.331299	-0.226633	-0.676948	0.098412	-0.693321
62020		1.729093	-3.443324	-4.345719	-1.355368	0.906007	0.043383	-0.705322	-0.307129	0.307373	-0.238771	-0.665049	0.107950	-0.699318
62021		5.608227	-0.174793	2.569958	-0.966672	1.030413	0.509166	-0.713135	-0.297363	0.283447	-0.243690	-0.652342	0.117581	-0.707983
62022		19.470026	7.627007	-1.358524	-0.239990	0.851485	-0.006911	-0.713867	-0.301758	0.263428	-0.246936	-0.644035	0.117112	-0.714512
62023		32.629063	11.004942	7.492815	-0.957560	0.361623	-0.054250	-0.715332	-0.304932	0.249023	-0.255620	-0.637868	0.124129	-0.715804
62024		35.973825	0.357082	2.724361	-0.471940	-0.022605	-0.224640	-0.706299	-0.312012	0.243896	-0.261325	-0.636888	0.126629	-0.714177
62025		33.346740	1.263387	1.441364	0.600293	-0.537311	-0.153494	-0.708252	-0.313232	0.265381	-0.257032	-0.643847	0.121818	-0.710321
62026		25.380255	0.463954	0.163797	1.335815	-1.279800	0.286146	-0.700684	-0.301270	0.298828	-0.241712	-0.658884	0.116401	-0.702779
62027		15.208372	4.788824	0.312409	1.269952	-1.595384	0.470645	-0.700439	-0.289795	0.325439	-0.224708	-0.675821	0.113978	-0.692662
62028		6.521383	4.259994	1.524293	0.787513	-1.299228	0.224555	-0.704834	-0.271973	0.356934	-0.214214	-0.688826	0.112729	-0.683318
62029		0.727204	3.362072	2.675580	0.998935	-0.781106	0.034401	-0.693115	-0.270020	0.386475	-0.204201	-0.698020	0.106688	-0.678003
62030		1.470564	1.525754	2.236880	-0.035402	-0.077343	-0.105183	-0.704346	-0.270508	0.382324	-0.205278	-0.698720	0.106275	-0.677020
62031		2.397821	-1.950416	2.750185	-1.029332	0.502440	-0.106818	-0.714600	-0.285400	0.367676	-0.215810	-0.691880	0.112798	-0.679710
62032		-1.362699	-3.317535	-0.338405	-0.260801	0.257002	-0.150793	-0.724121	-0.293945	0.361816	-0.219699	-0.689176	0.113057	-0.681165
62033		-1.992626	0.195896	-2.252980	0.945082	-0.121285	-0.012052	-0.716797	-0.280273	0.366943	-0.211470	-0.692753	0.105291	-0.681387
62034		-0.585197	3.521713	0.813892	0.197825	-0.487520	-0.024946	-0.711182	-0.278320	0.386475	-0.209320	-0.697431	0.104746	-0.677350
62035		-0.116467	2.268570	1.866736	-0.364791	-0.622424	-0.182544	-0.713623	-0.291992	0.386230	-0.213209	-0.701945	0.107905	-0.670948
62036		0.853127	-0.491006	1.256497	-0.535068	-0.397497	-0.138617	-0.703857	-0.298828	0.393555	-0.218504	-0.704002	0.112239	-0.666363
62037		1.776522	-4.417588	2.091373	0.192771	0.136131	0.095519	-0.697266	-0.295410	0.386963	-0.216183	-0.703245	0.111111	-0.668106
62038		1.742735	-2.982578	1.610699	0.646685	0.767680	-0.017841	-0.693848	-0.282959	0.375000	-0.211684	-0.698537	0.103505	-0.675665
62039		6.519103	2.673060	2.657978	-0.024608	1.592190	-0.244369	-0.703369	-0.295410	0.345703	-0.215970	-0.685184	0.097400	-0.688762
62040		12.835061	9.130178	1.753869	-1.481709	1.154823	-0.163215	-0.695312	-0.297852	0.323730	-0.231394	-0.671234	0.105637	-0.696235
62041		18.288172	-2.533820	-2.595605	-0.783744	1.213207	0.172219	-0.701172	-0.299805	0.288086	-0.238001	-0.658059	0.110360	-0.705786
62042		19.684959	3.437554	-0.466634	-0.699102	1.001701	-0.034801	-0.711426	-0.313477	0.268555	-0.245394	-0.647101	0.113278	-0.712889
62043		28.538891	10.627224	1.543564	0.191713	0.588549	-0.306665	-0.712402	-0.315918	0.263184	-0.247379	-0.642844	0.107294	-0.716968
62044		18.529387	2.860763	1.989756	-1.836311	0.294112	-0.655734	-0.704102	-0.333252	0.242432	-0.268296	-0.635209	0.117527	-0.714643
62045		12.272818	-12.345670	-3.774402	0.611283	-0.281380	0.187405	-0.710938	-0.337158	0.253418	-0.261318	-0.639468	0.114502	-0.713921
62046		12.754792	10.719206	-1.148791	2.001224	-0.810163	0.201866	-0.706543	-0.315674	0.280273	-0.242262	-0.652703	0.100941	-0.710703
62047		8.167865	7.001631	-0.116702	-0.390036	-1.281336	-0.108059	-0.694824	-0.324707	0.302246	-0.244747	-0.662944	0.107451	-0.699327
62048		7.698370	-0.861471	0.832818	-0.486736	-1.275952	-0.230688	-0.675537	-0.330566	0.315430	-0.249022	-0.672819	0.113676	-0.687299
62049		9.168930	-1.986429	0.044606	-0.075305	-0.939592	-0.001602	-0.673096	-0.336670	0.327881	-0.248297	-0.680610	0.117228	-0.679246
62050		7.767692	-1.688367	0.152373	0.475656	-0.641591	0.088368	-0.664307	-0.323486	0.343262	-0.242535	-0.687363	0.115941	-0.674735
62051		7.009918	2.322413	0.694977	0.706119	-0.526172	-0.024775	-0.667969	-0.318359	0.355957	-0.235898	-0.693929	0.111440	-0.671115
62052		8.048688	5.444126	1.145091	0.004678	-0.356867	-0.006396	-0.654053	-0.328125	0.366943	-0.235418	-0.696926	0.112496	-0.667995
62053		10.210118	3.192600	2.236388	-0.540853	-0.403129	0.029376	-0.659180	-0.333984	0.361816	-0.239282	-0.698634	0.118415	-0.663802
62054		9.781314	0.602330	1.935640	-0.205292	-0.435925	0.028616	-0.651367	-0.337158	0.371338	-0.240171	-0.701571	0.121657	-0.659785
62055		10.273370	0.717428	1.813773	0.125303	-0.225619	0.156442	-0.654053	-0.329102	0.376221	-0.237413	-0.703557	0.122644	-0.658483
62056		9.542641	3.918863	1.715209	0.463813	-0.378839	0.069419	-0.650391	-0.326904	0.384766	-0.232162	-0.707914	0.120582	-0.656063
62057		9.239828	3.428405	0.596247	0.322328	-0.439041	-0.029362	-0.649414	-0.319336	0.399170	-0.228865	-0.712466	0.118940	-0.652584
62058		9.030908	2.096899	0.239273	0.056592	-0.466033	0.033946	-0.646484	-0.324707	0.401611	-0.227370	-0.716356	0.120126	-0.648619
62059		9.531025	1.588106	-0.027047	0.069611	-0.501835	0.108473	-0.639160	-0.321777	0.415283	-0.225092	-0.720431	0.121943	-0.644548
62060		9.523229	1.934371	-0.246661	0.005702	-0.412311	0.093661	-0.634766	-0.318604	0.425781	-0.223632	-0.723606	0.123877	-0.641122
62061		9.211340	3.030337	-0.692930	-0.162143	-0.436115	0.062908	-0.632568	-0.322998	0.428467	-0.223889	-0.726530	0.126940	-0.637114
62062		9.485155	2.717851	-1.150972	-0.238914	-0.489460	0.060986	-0.619141	-0.322266	0.430664	-0.224767	-0.729636	0.130728	-0.632472
62063		10.036133	0.848829	-1.036153	-0.216196	-0.440562	0.067091	-0.615479	-0.322510	0.435303	-0.225457	-0.732381	0.134235	-0.628306
62064		10.390460	-0.967807	-0.993402	0.114269	-0.239840	0.052727	-0.616699	-0.319824	0.448975	-0.223570	-0.734485	0.134464	-0.626472
62065		9.428908	-0.230732	-1.055388	0.595398	-0.201399	-0.006517	-0.613525	-0.308350	0.455078	-0.217783	-0.737707	0.130290	-0.625606
62066		9.170351	1.755744	-1.249285	0.626683	-0.260303	0.057781	-0.616211	-0.298096	0.461914	-0.211101	-0.741318	0.126649	-0.624375
62067		9.293119	2.032389	-1.437405	0.396486	-0.272197	0.097875	-0.614014	-0.304199	0.465332	-0.206218	-0.744306	0.125226	-0.622737
62068		9.493222	1.636518	-1.219116	0.143335	-0.345858	0.069640	-0.610352	-0.292725	0.474854	-0.203788	-0.747236	0.125656	-0.619934
62069		9.496705	1.072133	-1.330333	0.118539	-0.332229	0.030205	-0.607910	-0.297119	0.481689	-0.201911	-0.750045	0.125895	-0.617102
62070		9.336643	0.900199	-1.329114	0.338776	-0.276477	0.029528	-0.600342	-0.285400	0.479736	-0.198056	-0.752963	0.124268	-0.615124
62071		9.782783	1.266516	-1.339953	0.232424	-0.229054	0.033249	-0.594238	-0.282471	0.500977	-0.195250	-0.755225	0.123403	-0.613420
62072		9.818256	1.343039	-1.349552	0.058278	-0.189846	0.052795	-0.598389	-0.290771	0.491699	-0.193973	-0.756735	0.123918	-0.611859
62073		9.645810	1.122621	-1.493890	0.013165	-0.162539	0.038454	-0.592773	-0.285400	0.503174	-0.193297	-0.757934	0.124592	-0.610450
62074		9.323798	0.991026	-1.737710	0.098661	-0.148079	0.021974	-0.594971	-0.277100	0.502686	-0.191942	-0.759258	0.124408	-0.609268
62075		9.501828	1.444097	-2.156824	0.104741	-0.110609	0.010541	-0.591797	-0.280762	0.512451	-0.190681	-0.760321	0.124015	-0.608418
62076		9.521150	1.429943	-1.830156	0.064377	-0.089148	-0.004183	-0.591553	-0.277588	0.513672	-0.189939	-0.761152	0.123705	-0.607674
62077		9.536631	1.142209	-1.570002	0.020943	-0.095973	-0.009116	-0.584229	-0.272705	0.506592	-0.189637	-0.761937	0.123703	-0.606785
62078		9.585989	1.234270	-1.938253	0.003196	-0.086158	-0.000009	-0.580811	-0.278076	0.514404	-0.189455	-0.762587	0.123912	-0.605982
62079		9.569390	1.265978	-2.482981	-0.069822	-0.065044	0.005769	-0.581787	-0.280029	0.516113	-0.189949	-0.762901	0.124650	-0.605280
62080		9.261842	1.300960	-2.138152	-0.114175	-0.084353	-0.007430	-0.588867	-0.274170	0.515381	-0.190937	-0.763275	0.125647	-0.604291
62081		9.330023	1.378459	-2.087161	-0.057666	-0.084006	-0.027616	-0.588867	-0.277832	0.512207	-0.191543	-0.763803	0.126057	-0.603345
62082		9.679997	1.301658	-2.401425	0.000239	-0.059866	-0.028504	-0.583496	-0.278809	0.512207	-0.191650	-0.764285	0.125973	-0.602719
62083		9.513762	1.098246	-2.008000	-0.023678	-0.067549	-0.020794	-0.580811	-0.273438	0.514404	-0.191913	-0.764757	0.126153	-0.601998
62084		9.572331	1.176127	-2.001676	0.017773	-0.049308	-0.016073	-0.585449	-0.271240	0.521729	-0.191765	-0.765185	0.126021	-0.601528
62085		9.591460	1.258004	-2.147606	0.049410	-0.031574	-0.028591	-0.579102	-0.280029	0.520752	-0.191426	-0.765578	0.125485	-0.601249
62086		9.442709	1.455422	-1.993368	0.043974	-0.007671	-0.039233	-0.572266	-0.280518	0.520020	-0.191264	-0.765796	0.124817	-0.601161
62087		9.357557	1.505554	-2.242082	0.054981	0.001160	-0.040624	-0.573730	-0.276367	0.512939	-0.191018	-0.765981	0.124020	-0.601169
62088		9.419378	1.412752	-2.266533	0.019210	-0.022763	-0.038254	-0.579102	-0.279297	0.511475	-0.191072	-0.766246	0.123600	-0.600900
62089		9.433233	1.413429	-1.938228	0.007996	-0.041782	-0.031668	-0.578125	-0.281006	0.520996	-0.191167	-0.766611	0.123393	-0.600447
62090		9.457373	1.350105	-2.080207	0.019143	-0.054804	-0.031242	-0.572998	-0.287109	0.519775	-0.191114	-0.767108	0.123107	-0.599887
62091		9.490234	1.466637	-2.282709	-0.007737	-0.039769	-0.021762	-0.578613	-0.292236	0.515625	-0.191280	-0.767415	0.123077	-0.599448
62092		9.394038	1.547398	-2.029860	-0.060628	-0.047812	-0.026424	-0.576172	-0.279785	0.517578	-0.191997	-0.767651	0.123449	-0.598840
62093		9.403758	1.534872	-2.024215	-0.026558	-0.046066	-0.030581	-0.569336	-0.284180	0.523682	-0.192397	-0.767966	0.123508	-0.598295
62094		9.477522	1.405412	-2.095587	0.008460	-0.053098	-0.025544	-0.574463	-0.288330	0.521240	-0.192400	-0.768421	0.123338	-0.597745
62095		9.510756	1.370925	-2.125114	0.017325	-0.033514	-0.023122	-0.576904	-0.285156	0.518066	-0.192349	-0.768738	0.123107	-0.597402
62096		9.525517	1.494034	-2.149880	0.005398	-0.019517	-0.023071	-0.571533	-0.275635	0.510986	-0.192439	-0.768914	0.122949	-0.597179
62097		9.379015	1.470626	-2.195647	0.005005	-0.021880	-0.027552	-0.575195	-0.287109	0.523438	-0.192557	-0.769111	0.122761	-0.596926
62098		9.394130	1.446393	-2.067624	0.018516	-0.012829	-0.031415	-0.568115	-0.282471	0.521484	-0.192585	-0.769288	0.122392	-0.596765
62099		9.440266	1.439127	-2.189606	0.038624	-0.007727	-0.029304	-0.571289	-0.288086	0.513672	-0.192402	-0.769476	0.121867	-0.596688
62100		9.452891	1.462777	-2.194982	0.046024	0.007760	-0.027519	-0.565430	-0.278564	0.522705	-0.192190	-0.769549	0.121315	-0.596775
62101		9.381687	1.558574	-2.187985	0.007135	-0.003801	-0.026648	-0.572754	-0.281738	0.523926	-0.192285	-0.769632	0.121027	-0.596696
62102		9.351426	1.573349	-2.170194	0.016384	-0.013854	-0.022947	-0.573486	-0.280273	0.520508	-0.192257	-0.769800	0.120747	-0.596545
62103		9.402349	1.517847	-2.315638	-0.005674	-0.029963	-0.024121	-0.569092	-0.291748	0.519287	-0.192432	-0.770031	0.120671	-0.596205
62104		9.458955	1.501545	-2.052600	0.005484	0.001261	-0.024419	-0.565918	-0.286133	0.527832	-0.192575	-0.770056	0.120456	-0.596170
62105		9.460252	1.545614	-2.047730	0.030307	0.021715	-0.026854	-0.571777	-0.281738	0.519043	-0.192491	-0.770008	0.119930	-0.596366
62106		9.457903	1.571961	-2.211771	0.024423	0.032292	-0.020842	-0.577881	-0.285400	0.518799	-0.192450	-0.769841	0.119516	-0.596677
62107		9.392978	1.603350	-2.275262	-0.025987	0.005811	-0.013980	-0.567139	-0.296631	0.524170	-0.192817	-0.769733	0.119630	-0.596676
62108		9.314591	1.586144	-2.190202	-0.027574	0.004397	-0.017138	-0.567627	-0.289307	0.524658	-0.193225	-0.769653	0.119710	-0.596631
62109		9.370300	1.518191	-2.159951	-0.022727	-0.010746	-0.015412	-0.573242	-0.289795	0.517822	-0.193529	-0.769697	0.119783	-0.596461
62110		9.455242	1.557422	-2.026652	0.004167	0.011432	-0.010018	-0.576904	-0.281006	0.523926	-0.193589	-0.769617	0.119695	-0.596562
62111		9.450553	1.601171	-2.054314	-0.001089	0.022201	-0.007707	-0.563965	-0.284668	0.520996	-0.193660	-0.769448	0.119595	-0.596777
62112		9.410725	1.667564	-2.094455	-0.026156	0.014345	-0.008736	-0.571777	-0.285889	0.523193	-0.193975	-0.769289	0.119685	-0.596862
62113		9.410978	1.614645	-2.125448	-0.038898	0.008867	-0.004520	-0.579346	-0.287842	0.521484	-0.194374	-0.769127	0.119930	-0.596891
62114		9.400728	1.538892	-2.109296	-0.036760	0.012534	-0.005178	-0.568604	-0.292725	0.518555	-0.194776	-0.768934	0.120170	-0.596960
62115		9.411547	1.539458	-2.080239	-0.043777	0.005035	-0.001745	-0.568359	-0.291504	0.514160	-0.195220	-0.768782	0.120516	-0.596942
62116		9.379993	1.564082	-2.101431	-0.033216	-0.007549	0.001521	-0.578857	-0.285400	0.519287	-0.195524	-0.768739	0.120858	-0.596828
62117		9.383839	1.590942	-2.056141	-0.032751	-0.007114	0.003002	-0.571777	-0.288574	0.523926	-0.195787	-0.768690	0.121183	-0.596740
62118		9.404382	1.561680	-2.059763	-0.023539	-0.000344	0.003639	-0.571533	-0.289795	0.516113	-0.195956	-0.768626	0.121399	-0.596722
62119		9.473988	1.554465	-2.125857	-0.017012	0.000150	0.004863	-0.571777	-0.296875	0.514893	-0.196079	-0.768561	0.121618	-0.596721
62120		9.438429	1.547039	-2.011727	-0.025942	0.013633	0.004069	-0.572754	-0.292236	0.515137	-0.196341	-0.768370	0.121897	-0.596824
62121		9.381391	1.576674	-2.094005	-0.025225	0.008633	0.000423	-0.575928	-0.296387	0.512695	-0.196597	-0.768226	0.122126	-0.596878
62122		9.396501	1.569213	-2.128781	-0.008481	0.002649	0.007555	-0.572510	-0.293457	0.519287	-0.196652	-0.768148	0.122347	-0.596916
62123		9.450232	1.529415	-2.160745	-0.004950	0.005921	0.005098	-0.570068	-0.297852	0.514160	-0.196663	-0.768074	0.122454	-0.596985
62124		9.416891	1.482743	-2.058912	0.000212	0.013393	0.002014	-0.564941	-0.288574	0.513916	-0.196688	-0.767955	0.122516	-0.597116
62125		9.429665	1.534414	-2.099637	0.004444	0.021240	0.001434	-0.578369	-0.293457	0.515381	-0.196651	-0.767800	0.122465	-0.597339
62126		9.418389	1.542935	-2.089586	0.025668	0.017668	0.002865	-0.575928	-0.293457	0.523438	-0.196417	-0.767705	0.122324	-0.597566
62127		9.411116	1.505139	-2.124234	0.014924	0.013863	0.004620	-0.576416	-0.296875	0.514648	-0.196244	-0.767627	0.122242	-0.597741
62128		9.439404	1.511040	-2.109503	0.013757	0.013862	0.004428	-0.580322	-0.296387	0.527832	-0.196123	-0.767529	0.122232	-0.597908
62129		9.425750	1.502143	-2.123292	-0.012267	0.015776	0.004330	-0.573242	-0.297607	0.511475	-0.196220	-0.767371	0.122350	-0.598056
62130		9.430773	1.511281	-2.000542	0.001647	0.013277	0.004163	-0.573486	-0.286133	0.510498	-0.196225	-0.767248	0.122441	-0.598193
62131		9.450862	1.466090	-2.077838	0.028665	0.010327	0.004195	-0.572998	-0.293701	0.519043	-0.195921	-0.767217	0.122280	-0.598365
62132		9.434563	1.500284	-2.154651	0.024213	0.019173	0.003041	-0.581543	-0.290283	0.520264	-0.195692	-0.767123	0.122118	-0.598594
62133		9.402690	1.538301	-2.012753	0.001446	0.025728	0.003963	-0.573242	-0.291016	0.505127	-0.195673	-0.766914	0.122115	-0.598867
62134		9.448000	1.519775	-2.063774	0.020296	0.027328	0.005032	-0.577393	-0.291260	0.512207	-0.195508	-0.766724	0.122040	-0.599180
62135		9.429526	1.469771	-2.070265	0.034811	0.022690	0.005775	-0.570801	-0.289795	0.506836	-0.195175	-0.766611	0.121847	-0.599473
62136		9.439744	1.472019	-2.135973	0.018340	0.025134	0.006751	-0.570312	-0.284424	0.510498	-0.195002	-0.766438	0.121787	-0.599762
62137		9.397828	1.459589	-1.981086	0.019236	0.012711	0.006448	-0.572510	-0.291016	0.514648	-0.194768	-0.766372	0.121694	-0.599941
62138		9.459016	1.496718	-2.015031	0.026184	0.009259	0.003613	-0.575439	-0.294189	0.514160	-0.194506	-0.766354	0.121557	-0.600077
62139		9.449156	1.487353	-2.038815	0.031643	0.020808	0.000982	-0.576172	-0.284668	0.510254	-0.194249	-0.766259	0.121356	-0.600322
62140		9.465339	1.472569	-1.996997	0.012412	0.022197	0.002459	-0.572998	-0.281738	0.513184	-0.194135	-0.766103	0.121274	-0.600575
62141		9.445382	1.466467	-2.044857	0.016725	0.015586	0.000327	-0.583740	-0.290771	0.513672	-0.193962	-0.766022	0.121113	-0.600766
62142		9.425242	1.454979	-2.019657	0.012426	0.012950	0.000858	-0.576172	-0.282471	0.516113	-0.193872	-0.765931	0.121077	-0.600919
62143		9.387421	1.479705	-1.947242	0.019970	0.011917	0.001300	-0.578857	-0.284668	0.514404	-0.193653	-0.765885	0.120906	-0.601082
62144		9.468454	1.523702	-1.950293	0.035328	0.018508	0.004994	-0.587646	-0.285645	0.517334	-0.193288	-0.765814	0.120671	-0.601338
62145		9.494793	1.439684	-1.917885	0.039629	0.034730	0.001400	-0.571289	-0.291260	0.510986	-0.192938	-0.765628	0.120343	-0.601753
62146		9.493301	1.421309	-1.955415	0.048700	0.040556	-0.001292	-0.574707	-0.294678	0.517578	-0.192567	-0.765433	0.119942	-0.602199
62147		9.463043	1.474764	-2.010465	0.031848	0.049888	-0.003277	-0.579834	-0.284668	0.511475	-0.192387	-0.765136	0.119622	-0.602697
62148		9.370322	1.548116	-2.018103	-0.006314	0.022736	-0.000081	-0.585449	-0.281738	0.517334	-0.192480	-0.764936	0.119663	-0.602914
62149		9.412625	1.467516	-2.000489	-0.005113	0.008329	-0.001455	-0.593506	-0.281982	0.519775	-0.192519	-0.764855	0.119673	-0.603002
62150		9.484132	1.392391	-2.079218	-0.004560	-0.002526	-0.001442	-0.582031	-0.284180	0.515625	-0.192536	-0.764850	0.119711	-0.602996
62151		9.489507	1.406076	-1.991344	-0.013131	-0.004193	0.000453	-0.581299	-0.284424	0.510986	-0.192633	-0.764842	0.119846	-0.602948
62152		9.440668	1.439148	-1.871984	-0.002084	0.004130	-0.000007	-0.581787	-0.282471	0.516357	-0.192655	-0.764791	0.119901	-0.602995
62153		9.464678	1.513313	-1.962879	0.020729	0.011097	-0.003806	-0.581299	-0.289551	0.513428	-0.192470	-0.764760	0.119685	-0.603137
62154		9.450001	1.541919	-1.942921	0.012912	0.026942	-0.000693	-0.578857	-0.288574	0.511475	-0.192407	-0.764576	0.119585	-0.603409
62155		9.447858	1.515652	-1.981941	-0.010119	0.028811	0.002016	-0.583252	-0.277344	0.506348	-0.192546	-0.764320	0.119677	-0.603671
62156		9.466668	1.473888	-1.948639	-0.013335	0.023084	0.002604	-0.578613	-0.282715	0.513184	-0.192662	-0.764089	0.119773	-0.603907
62157		9.450189	1.495715	-1.951210	-0.037045	0.000992	-0.001347	-0.579590	-0.277832	0.511963	-0.192999	-0.763994	0.120041	-0.603866
62158		9.461776	1.489466	-1.975833	-0.044302	0.010654	0.001024	-0.576660	-0.292480	0.500244	-0.193378	-0.763805	0.120335	-0.603926
62159		9.419236	1.384269	-1.965547	-0.034710	0.001754	0.003792	-0.581787	-0.283691	0.506592	-0.193746	-0.763674	0.120769	-0.603887
62160		9.478824	1.461632	-1.966504	-0.020183	-0.003528	-0.003230	-0.579346	-0.281250	0.510742	-0.193949	-0.763640	0.120944	-0.603830
62161		9.464417	1.455580	-1.982658	-0.019820	0.007882	-0.004184	-0.577637	-0.282715	0.508545	-0.194141	-0.763537	0.121025	-0.603881
62162		9.463706	1.432030	-1.905946	-0.015070	0.020638	-0.000798	-0.577637	-0.288330	0.516113	-0.194293	-0.763343	0.121088	-0.604066
62163		9.477179	1.468561	-1.850861	-0.011330	0.015837	-0.007732	-0.578369	-0.278809	0.510254	-0.194453	-0.763219	0.121052	-0.604178
62164		9.476215	1.474189	-1.886232	-0.013669	0.048792	-0.006349	-0.578369	-0.296875	0.509766	-0.194644	-0.762831	0.120938	-0.604629
62165		9.508699	1.540617	-1.836647	-0.022011	0.038261	-0.003392	-0.583740	-0.287842	0.507080	-0.194968	-0.762489	0.121058	-0.604932
62166		9.450937	1.458503	-1.977706	-0.022129	0.017230	-0.006097	-0.584229	-0.292236	0.507324	-0.195247	-0.762302	0.121170	-0.605056
62167		9.367283	1.386004	-2.111893	-0.008593	0.008315	-0.002032	-0.579834	-0.279785	0.509033	-0.195372	-0.762207	0.121264	-0.605115
62168		9.401019	1.446253	-2.007185	-0.013536	-0.005138	-0.001808	-0.587402	-0.291260	0.507568	-0.195441	-0.762223	0.121317	-0.605064
62169		9.490738	1.439774	-1.948067	-0.019421	-0.013678	-0.006939	-0.585693	-0.288574	0.506104	-0.195668	-0.762272	0.121499	-0.604892
62170		9.506389	1.436087	-1.888569	0.003705	0.005376	-0.003761	-0.585938	-0.284668	0.512695	-0.195668	-0.762229	0.121476	-0.604949
62171		9.479372	1.473708	-1.844028	0.017301	0.004569	-0.006651	-0.579102	-0.282959	0.515137	-0.195509	-0.762249	0.121249	-0.605022
62172		9.465655	1.538129	-1.899047	0.028805	0.008348	-0.008756	-0.592285	-0.293457	0.507568	-0.195233	-0.762291	0.120852	-0.605137
62173		9.451390	1.518159	-1.990735	-0.015259	0.006016	-0.008306	-0.585205	-0.288574	0.505371	-0.195481	-0.762193	0.120975	-0.605157
62174		9.454766	1.477112	-1.807912	-0.025554	0.006264	-0.004317	-0.583008	-0.285156	0.504883	-0.195769	-0.762073	0.121171	-0.605176
62175		9.443054	1.441860	-1.836688	0.013773	-0.008985	-0.004272	-0.586670	-0.298096	0.505127	-0.195636	-0.762170	0.121074	-0.605116
62176		9.475346	1.506305	-1.927413	0.024009	-0.003290	-0.003556	-0.580322	-0.286865	0.509033	-0.195485	-0.762233	0.120996	-0.605100
62177		9.450340	1.526309	-1.915761	-0.008287	0.006780	-0.002360	-0.586426	-0.296387	0.503906	-0.195562	-0.762168	0.121021	-0.605153
62178		9.452241	1.523779	-1.872568	-0.003878	-0.011226	-0.002879	-0.589111	-0.291260	0.507812	-0.195658	-0.762220	0.121178	-0.605025
62179		9.483838	1.464521	-1.887275	0.027858	-0.019357	-0.001759	-0.586182	-0.291992	0.506104	-0.195386	-0.762417	0.121067	-0.604886
62180		9.476498	1.416195	-1.906784	0.016545	0.001122	0.000059	-0.583496	-0.289551	0.508057	-0.195253	-0.762428	0.121026	-0.604924
62181		9.441271	1.555446	-1.924228	0.021946	0.010018	-0.001866	-0.578613	-0.284668	0.504150	-0.195072	-0.762399	0.120864	-0.605051
62182		9.412367	1.573735	-1.904476	0.024733	-0.008119	-0.000117	-0.586426	-0.290039	0.510254	-0.194807	-0.762514	0.120720	-0.605020
62183		9.458149	1.498693	-1.976590	-0.011540	-0.012346	-0.001966	-0.588135	-0.289795	0.504395	-0.194914	-0.762571	0.120867	-0.604884
62184		9.486839	1.442277	-1.883455	-0.005304	-0.006128	-0.001848	-0.585449	-0.280762	0.502197	-0.194995	-0.762578	0.121002	-0.604822
62185		9.438906	1.398495	-1.929913	0.008526	-0.006721	0.001146	-0.584229	-0.287354	0.507080	-0.194871	-0.762624	0.120998	-0.604805
62186		9.463384	1.509602	-1.870904	0.025336	0.003183	0.000888	-0.581299	-0.282227	0.510498	-0.194624	-0.762647	0.120854	-0.604885
62187		9.477265	1.547997	-1.875796	0.005999	-0.021467	-0.003620	-0.587158	-0.284912	0.511475	-0.194509	-0.762833	0.120801	-0.604697
62188		9.483180	1.454554	-1.936086	-0.004547	-0.016425	-0.002343	-0.576172	-0.289062	0.500732	-0.194515	-0.762942	0.120863	-0.604546
62189		9.487939	1.432473	-1.905824	0.007385	-0.007199	0.000185	-0.585938	-0.285645	0.511963	-0.194466	-0.762995	0.120921	-0.604483
62190		9.448264	1.429260	-1.989225	0.031971	-0.002937	-0.000079	-0.581543	-0.285889	0.501953	-0.194129	-0.763089	0.120699	-0.604517
62191		9.440629	1.451501	-1.896986	0.007401	-0.007525	-0.003733	-0.586670	-0.285400	0.503418	-0.194095	-0.763144	0.120712	-0.604456
62192		9.469057	1.498610	-1.882805	0.007895	0.001174	-0.002127	-0.581055	-0.289551	0.512939	-0.194055	-0.763125	0.120717	-0.604492
62193		9.496894	1.481113	-1.924605	0.015844	0.005917	-0.003357	-0.584473	-0.285645	0.500977	-0.193931	-0.763125	0.120581	-0.604558
62194		9.490028	1.433845	-1.940659	0.015141	0.001358	-0.005251	-0.581787	-0.280518	0.507080	-0.193857	-0.763125	0.120517	-0.604595
62195		9.456914	1.403865	-2.043536	0.006365	-0.010076	-0.004542	-0.578613	-0.284424	0.521729	-0.193777	-0.763215	0.120452	-0.604520
62196		9.409694	1.438992	-1.957818	0.016558	-0.007957	-0.004730	-0.573975	-0.288330	0.509521	-0.193561	-0.763357	0.120214	-0.604458
62197		9.448574	1.503322	-1.918279	0.013601	-0.009570	-0.003738	-0.581299	-0.282715	0.504639	-0.193443	-0.763474	0.120129	-0.604364
62198		9.462873	1.516795	-1.977805	0.021479	-0.007924	-0.005101	-0.579346	-0.279053	0.506104	-0.193261	-0.763574	0.119992	-0.604323
62199		9.436399	1.490330	-1.876555	0.031336	-0.012688	-0.001908	-0.586670	-0.283447	0.514648	-0.192922	-0.763739	0.119776	-0.604266
62200		9.467721	1.446742	-1.986958	0.020008	-0.019973	-0.001901	-0.582764	-0.284180	0.506104	-0.192681	-0.763935	0.119660	-0.604118
62201		9.466689	1.446410	-1.992111	0.009889	-0.019000	-0.001573	-0.582275	-0.287354	0.510010	-0.192585	-0.764080	0.119695	-0.603958
62202		9.442444	1.478510	-1.887232	0.007393	-0.011419	0.001754	-0.582520	-0.276855	0.513428	-0.192502	-0.764166	0.119758	-0.603864
62203		9.461529	1.480503	-1.934149	0.013556	-0.003943	-0.002983	-0.585205	-0.289795	0.515137	-0.192318	-0.764233	0.119595	-0.603870
62204		9.504246	1.490127	-1.958140	0.017789	0.004807	-0.001994	-0.581299	-0.283691	0.514160	-0.192186	-0.764232	0.119496	-0.603933
62205		9.441844	1.437791	-2.021379	0.009595	-0.013270	-0.002770	-0.575684	-0.279541	0.513672	-0.192070	-0.764359	0.119440	-0.603820
62206		9.415443	1.407539	-1.994996	0.010793	-0.013760	-0.003308	-0.584473	-0.280762	0.514404	-0.191913	-0.764506	0.119322	-0.603707
62207		9.444884	1.462613	-1.961447	0.019911	-0.013240	-0.002796	-0.582520	-0.284424	0.513184	-0.191687	-0.764651	0.119180	-0.603624
62208		9.472579	1.433525	-1.986269	0.024507	-0.011532	-0.006017	-0.587891	-0.277832	0.510254	-0.191476	-0.764795	0.119010	-0.603542
62209		9.481642	1.482630	-2.003770	0.034176	-0.003410	-0.002274	-0.583008	-0.282715	0.506104	-0.191142	-0.764877	0.118782	-0.603589
62210		9.437898	1.483550	-2.002478	0.016107	0.001251	-0.003795	-0.578125	-0.280273	0.514160	-0.191053	-0.764876	0.118733	-0.603627
62211		9.419832	1.495082	-2.011533	0.001734	-0.015263	-0.005291	-0.584717	-0.282715	0.520508	-0.191017	-0.765007	0.118702	-0.603479
62212		9.459045	1.442184	-1.969387	0.011254	-0.022078	-0.002633	-0.577881	-0.282471	0.507080	-0.190852	-0.765208	0.118629	-0.603290
62213		9.500510	1.410904	-1.979172	0.030930	-0.016934	-0.000992	-0.575195	-0.276123	0.525146	-0.190565	-0.765388	0.118519	-0.603175
62214		9.479842	1.459396	-1.978737	0.024124	-0.008096	-0.002656	-0.585938	-0.284180	0.519775	-0.190217	-0.765553	0.118189	-0.603140
62215		9.453146	1.475775	-1.916520	0.022466	0.000829	-0.005926	-0.579346	-0.276367	0.525146	-0.190032	-0.765602	0.117989	-0.603176
62216		9.446268	1.508594	-2.122013	0.017017	-0.011162	-0.004035	-0.580078	-0.278564	0.515137	-0.189768	-0.765763	0.117730	-0.603104
62217		9.418645	1.439605	-2.097173	0.006376	-0.009651	-0.003699	-0.578369	-0.272705	0.512939	-0.189692	-0.765850	0.117682	-0.603027
62218		9.431463	1.424430	-2.009724	-0.000471	-0.013279	-0.003899	-0.579102	-0.278564	0.511719	-0.189652	-0.765948	0.117664	-0.602918
62219		9.424332	1.427906	-2.047172	0.001522	-0.011134	-0.005577	-0.574707	-0.282715	0.521973	-0.189661	-0.766027	0.117679	-0.602813
62220		9.445569	1.463903	-1.995711	0.008730	-0.005462	-0.004823	-0.581543	-0.277588	0.513916	-0.189548	-0.766121	0.117533	-0.602757
62221		9.436134	1.506103	-2.020920	-0.010860	-0.012202	-0.005531	-0.577148	-0.276855	0.521973	-0.189659	-0.766178	0.117628	-0.602631
62222		9.456479	1.527904	-2.045686	-0.010180	-0.015902	-0.003728	-0.576660	-0.274658	0.520508	-0.189670	-0.766301	0.117624	-0.602472
62223		9.467668	1.438639	-2.016418	0.003654	-0.015759	-0.006286	-0.579590	-0.279297	0.515625	-0.189563	-0.766456	0.117487	-0.602335
62224		9.483340	1.399578	-2.014531	0.003650	-0.011206	-0.003921	-0.580566	-0.284668	0.531738	-0.189523	-0.766544	0.117479	-0.602237
62225		9.429422	1.443533	-2.057653	0.009306	0.005749	-0.000775	-0.577881	-0.266602	0.513672	-0.189337	-0.766566	0.117264	-0.602310
62226		9.429073	1.540692	-2.042530	0.002966	-0.002953	-0.003358	-0.576660	-0.280029	0.523438	-0.189252	-0.766592	0.117177	-0.602321
62227		9.423293	1.502548	-2.037547	-0.008098	-0.011147	-0.006038	-0.580566	-0.288574	0.523193	-0.189272	-0.766690	0.117127	-0.602199
62228		9.457754	1.406175	-2.060320	-0.003928	-0.001409	-0.003603	-0.579102	-0.283447	0.510742	-0.189310	-0.766706	0.117129	-0.602166
62229		9.463200	1.415248	-2.046856	0.007838	0.002604	0.000125	-0.580566	-0.280762	0.520264	-0.189293	-0.766672	0.117199	-0.602201
62230		9.442813	1.521364	-2.007433	-0.005608	0.003668	-0.001424	-0.577881	-0.283936	0.509277	-0.189320	-0.766635	0.117210	-0.602238
62231		9.416776	1.477354	-2.051533	-0.017037	0.002187	-0.003848	-0.577881	-0.281006	0.515869	-0.189582	-0.766550	0.117444	-0.602219
62232		9.441654	1.458633	-2.062585	-0.000653	-0.000994	-0.000994	-0.581787	-0.280762	0.520264	-0.189580	-0.766550	0.117473	-0.602213
62233		9.446599	1.458518	-2.050020	-0.016713	-0.003561	-0.002598	-0.578369	-0.283203	0.510986	-0.189710	-0.766541	0.117574	-0.602163
62234		9.444407	1.437266	-1.998774	-0.020078	-0.002039	-0.002202	-0.580566	-0.281494	0.514404	-0.189959	-0.766485	0.117823	-0.602109
62235		9.448765	1.458011	-2.006724	-0.001238	-0.003095	-0.000323	-0.575195	-0.279053	0.521484	-0.189972	-0.766487	0.117898	-0.602087
62236		9.443440	1.499643	-2.039924	-0.002655	-0.007215	-0.000922	-0.578857	-0.286377	0.517090	-0.189907	-0.766561	0.117848	-0.602023
62237		9.449963	1.467661	-1.985429	-0.031351	0.002531	-0.001218	-0.580322	-0.282715	0.516602	-0.190227	-0.766462	0.118122	-0.601994
62238		9.439064	1.451605	-2.010967	-0.016011	0.001008	-0.000726	-0.580811	-0.281738	0.516113	-0.190375	-0.766408	0.118269	-0.601987
62239		9.424596	1.444089	-2.027829	-0.004401	-0.001034	-0.000400	-0.574707	-0.283691	0.514648	-0.190404	-0.766394	0.118334	-0.601983
62240		9.430520	1.437058	-2.068458	-0.005459	-0.003107	-0.000447	-0.578369	-0.284180	0.512695	-0.190448	-0.766404	0.118414	-0.601940
62241		9.470628	1.440455	-1.987106	0.004420	0.004759	-0.001900	-0.577637	-0.283691	0.521729	-0.190451	-0.766363	0.118436	-0.601988
62242		9.447577	1.433279	-2.006113	0.002987	0.013611	-0.003234	-0.581543	-0.281006	0.520508	-0.190405	-0.766291	0.118306	-0.602119
62243		9.452953	1.463368	-2.010494	0.005746	0.010469	-0.002209	-0.579102	-0.283447	0.517334	-0.190321	-0.766235	0.118184	-0.602241
62244		9.449698	1.472950	-1.999514	0.007315	0.003265	-0.003010	-0.569336	-0.278809	0.510254	-0.190254	-0.766232	0.118107	-0.602281
62245		9.452063	1.501307	-1.975107	0.010206	0.005979	-0.005670	-0.586670	-0.276123	0.522217	-0.190194	-0.766221	0.117986	-0.602338
62246		9.445160	1.413891	-1.971288	0.012786	0.001815	-0.004920	-0.581543	-0.282227	0.513428	-0.190016	-0.766247	0.117770	-0.602403
62247		9.446693	1.427476	-2.023278	0.001450	-0.000920	-0.002513	-0.584717	-0.284180	0.522461	-0.190033	-0.766239	0.117814	-0.602400
62248		9.445419	1.505880	-2.009222	-0.008262	0.000655	-0.003891	-0.581787	-0.278320	0.516357	-0.190090	-0.766225	0.117816	-0.602399
62249		9.431160	1.508924	-2.025512	-0.013542	-0.001430	-0.004064	-0.572021	-0.277588	0.518799	-0.190209	-0.766200	0.117886	-0.602379
62250		9.461204	1.458752	-2.004963	-0.011798	-0.007264	-0.000673	-0.570068	-0.282715	0.512695	-0.190217	-0.766258	0.117890	-0.602302
62251		9.478177	1.403581	-2.054025	-0.003134	0.001229	-0.004741	-0.573486	-0.282715	0.513672	-0.190272	-0.766257	0.117885	-0.602288
62252		9.450569	1.422391	-2.011385	0.009441	0.002858	-0.005278	-0.575439	-0.281494	0.524658	-0.190212	-0.766268	0.117782	-0.602313
62253		9.408703	1.472933	-2.005013	0.016075	0.005960	-0.004614	-0.577881	-0.279541	0.516846	-0.189976	-0.766312	0.117465	-0.602393
62254		9.436859	1.469554	-2.119813	0.023185	0.009031	-0.003228	-0.568115	-0.280029	0.517334	-0.189742	-0.766307	0.117221	-0.602520
62255		9.446937	1.529095	-1.984279	0.002306	0.000612	-0.001990	-0.582764	-0.277588	0.516357	-0.189653	-0.766347	0.117102	-0.602521
62256		9.452261	1.427098	-2.061101	-0.009730	0.001708	-0.004544	-0.578369	-0.283447	0.510742	-0.189746	-0.766305	0.117139	-0.602538
62257		9.450132	1.440510	-1.955262	0.017085	-0.003483	-0.001572	-0.576660	-0.281982	0.516113	-0.189630	-0.766349	0.117114	-0.602523
62258		9.453092	1.456234	-2.060021	0.018946	0.005294	-0.001049	-0.583740	-0.282227	0.511475	-0.189435	-0.766359	0.116955	-0.602603
62259		9.446702	1.479433	-1.964554	0.015957	0.012580	-0.002400	-0.577393	-0.286621	0.518555	-0.189366	-0.766267	0.116911	-0.602750
62260		9.451279	1.449379	-1.951330	0.016940	0.011682	-0.005622	-0.578613	-0.279053	0.509521	-0.189239	-0.766239	0.116707	-0.602865
62261		9.482056	1.407507	-2.077409	0.027442	0.004467	-0.005424	-0.572998	-0.282227	0.516602	-0.189056	-0.766249	0.116541	-0.602942
62262		9.463560	1.460957	-1.975348	-0.008215	0.008305	-0.001432	-0.582031	-0.280762	0.514648	-0.189118	-0.766187	0.116553	-0.602999
62263		9.433390	1.518271	-1.921126	0.002526	-0.003409	-0.004820	-0.575195	-0.281738	0.517822	-0.189122	-0.766209	0.116550	-0.602970
62264		9.451228	1.446199	-2.023918	0.015243	0.000204	-0.003552	-0.574463	-0.285645	0.517822	-0.188952	-0.766266	0.116370	-0.602985
62265		9.462631	1.442484	-2.125345	0.008588	0.005862	-0.003416	-0.576416	-0.278809	0.517334	-0.188875	-0.766265	0.116254	-0.603033
62266		9.424546	1.484321	-1.978637	-0.007042	0.008299	-0.001223	-0.580322	-0.284668	0.510498	-0.188906	-0.766200	0.116243	-0.603108
62267		9.443728	1.472838	-1.947667	-0.001883	0.008383	-0.002811	-0.575195	-0.286377	0.517578	-0.189018	-0.766106	0.116348	-0.603172
62268		9.479156	1.445918	-2.006591	0.018296	0.008843	0.000351	-0.587402	-0.285889	0.517578	-0.188829	-0.766099	0.116194	-0.603270
62269		9.457036	1.426806	-2.005232	0.000202	0.004737	-0.002024	-0.583496	-0.285400	0.520752	-0.188860	-0.766048	0.116233	-0.603318
62270		9.417936	1.484252	-1.954785	-0.001061	0.002130	-0.001600	-0.578125	-0.276367	0.515381	-0.188846	-0.766039	0.116214	-0.603338
62271		9.440253	1.457632	-2.009895	0.016461	0.003780	-0.002462	-0.578613	-0.279053	0.508301	-0.188662	-0.766055	0.116040	-0.603408
62272		9.488076	1.421171	-2.075003	0.002755	0.009464	-0.003618	-0.578857	-0.282471	0.511719	-0.188721	-0.765964	0.116082	-0.603497
62273		9.455742	1.445887	-1.968948	-0.002493	0.006768	-0.001395	-0.583984	-0.285645	0.518066	-0.188792	-0.765892	0.116158	-0.603551
62274		9.439182	1.446237	-1.953712	0.003333	0.003291	-0.004344	-0.574951	-0.284668	0.512451	-0.188789	-0.765877	0.116120	-0.603579
62275		9.450800	1.448324	-1.979956	-0.002006	0.002184	-0.003036	-0.575928	-0.273438	0.514893	-0.188852	-0.765859	0.116166	-0.603572
62276		9.478117	1.457323	-1.966613	-0.002059	0.007355	-0.003088	-0.589355	-0.280762	0.516113	-0.188831	-0.765814	0.116084	-0.603652
62277		9.458645	1.440854	-1.995449	0.012618	0.009528	-0.004337	-0.576904	-0.281738	0.512451	-0.188750	-0.765752	0.115982	-0.603776
62278		9.454443	1.461358	-2.005823	0.018229	0.005870	-0.002898	-0.583740	-0.288086	0.510986	-0.188609	-0.765751	0.115853	-0.603846
62279		9.460352	1.434806	-2.045518	0.000523	0.011590	-0.005429	-0.583252	-0.287842	0.506348	-0.188741	-0.765639	0.115929	-0.603933
62280		9.422548	1.456091	-2.027635	-0.002371	0.000263	-0.006751	-0.581055	-0.280029	0.510742	-0.188936	-0.765589	0.116102	-0.603901
62281		9.418322	1.462461	-1.944510	0.011979	-0.004294	-0.007744	-0.583252	-0.281494	0.511963	-0.188889	-0.765640	0.116025	-0.603866
62282		9.460257	1.453334	-1.969653	0.019613	0.006400	-0.003145	-0.581055	-0.284668	0.515137	-0.188756	-0.765618	0.115917	-0.603957
62283		9.486766	1.467434	-2.052273	0.009392	0.008482	-0.004531	-0.579590	-0.286133	0.515381	-0.188722	-0.765577	0.115842	-0.604033
62284		9.459097	1.476922	-2.008046	-0.017445	0.013545	-0.004456	-0.579102	-0.270752	0.518066	-0.188956	-0.765440	0.115960	-0.604111
62285		9.433569	1.484325	-1.920813	-0.005743	0.001781	-0.006373	-0.590576	-0.282227	0.510010	-0.188935	-0.765444	0.115821	-0.604139
62286		9.430728	1.438283	-1.945162	0.001398	0.000171	-0.004163	-0.583984	-0.278320	0.513916	-0.189010	-0.765400	0.115917	-0.604153
62287		9.479625	1.481592	-2.028515	0.009563	0.001243	-0.004311	-0.580322	-0.284424	0.523682	-0.188928	-0.765407	0.115824	-0.604189
62288		9.440588	1.468730	-1.938254	-0.007169	0.010484	-0.004558	-0.580078	-0.284180	0.510986	-0.188965	-0.765354	0.115736	-0.604261
62289		9.457622	1.475286	-1.874983	0.003205	0.009913	-0.002138	-0.584229	-0.279785	0.513428	-0.188998	-0.765274	0.115761	-0.604347
62290		9.478775	1.430417	-1.950932	0.018744	0.013618	-0.002836	-0.584717	-0.283936	0.520996	-0.188847	-0.765204	0.115599	-0.604513
62291		9.445586	1.510652	-1.960476	-0.003765	0.000087	-0.002589	-0.590088	-0.285889	0.513428	-0.188849	-0.765214	0.115574	-0.604505
62292		9.430217	1.524905	-1.848623	-0.008663	0.003634	-0.001374	-0.584229	-0.277588	0.508545	-0.188990	-0.765133	0.115734	-0.604532
62293		9.472371	1.454700	-2.003361	0.019031	0.004307	-0.002453	-0.587646	-0.282471	0.521729	-0.188848	-0.765116	0.115640	-0.604616
62294		9.477318	1.413677	-1.971354	-0.004914	-0.004589	-0.002008	-0.574219	-0.286865	0.508057	-0.188838	-0.765154	0.115630	-0.604574
62295		9.437735	1.425596	-1.977776	-0.007462	-0.001050	-0.000359	-0.579590	-0.281494	0.514404	-0.188977	-0.765135	0.115811	-0.604520
62296		9.449830	1.492085	-1.948469	0.010188	-0.001467	-0.001012	-0.579346	-0.278564	0.521240	-0.188863	-0.765176	0.115743	-0.604516
62297		9.493371	1.445470	-2.006702	0.004955	-0.000329	-0.004258	-0.581543	-0.275635	0.510986	-0.188742	-0.765232	0.115565	-0.604518
62298		9.442474	1.426195	-1.965392	-0.007468	0.003266	-0.005064	-0.587158	-0.290283	0.512695	-0.188833	-0.765182	0.115592	-0.604547
62299		9.459120	1.427767	-1.978947	-0.010461	-0.002041	-0.001788	-0.581543	-0.273682	0.516602	-0.189016	-0.765146	0.115806	-0.604495
62300		9.448199	1.492019	-2.044790	-0.004624	-0.001323	-0.006269	-0.577881	-0.290771	0.514648	-0.189010	-0.765166	0.115710	-0.604490
62301		9.458009	1.456927	-1.924571	-0.005766	0.002261	-0.005623	-0.578613	-0.283936	0.511230	-0.189145	-0.765150	0.115772	-0.604455
62302		9.475332	1.437666	-1.917060	0.001141	0.004800	-0.003737	-0.583496	-0.277100	0.512451	-0.189189	-0.765115	0.115786	-0.604483
62303		9.457414	1.475206	-2.018512	-0.020274	-0.002969	-0.005733	-0.582275	-0.280029	0.512207	-0.189390	-0.765085	0.115908	-0.604434
62304		9.454151	1.481283	-1.913086	-0.028814	-0.005612	-0.005386	-0.581299	-0.278320	0.503418	-0.189684	-0.765057	0.116123	-0.604338
62305		9.455747	1.495947	-1.964820	-0.004555	0.001645	-0.002993	-0.578857	-0.277344	0.519043	-0.189803	-0.764993	0.116257	-0.604355
62306		9.472847	1.461879	-2.032918	-0.019086	0.001086	-0.003889	-0.580811	-0.276855	0.510986	-0.189906	-0.764977	0.116258	-0.604343
62307		9.466552	1.486153	-1.916521	-0.019670	-0.001013	-0.003222	-0.578857	-0.283203	0.514648	-0.190079	-0.764934	0.116385	-0.604318
62308		9.432680	1.471652	-1.964109	0.001608	-0.003482	-0.003090	-0.577393	-0.288330	0.510742	-0.190048	-0.764980	0.116348	-0.604277
62309		9.451696	1.469719	-1.934536	-0.004665	0.003589	0.000006	-0.579834	-0.279785	0.513672	-0.190135	-0.764938	0.116463	-0.604281
62310		9.465023	1.480247	-1.937393	-0.016817	0.006728	-0.002743	-0.574219	-0.283203	0.513428	-0.190279	-0.764857	0.116533	-0.604324
62311		9.460250	1.482131	-1.948107	0.003021	0.008895	-0.002401	-0.577148	-0.277344	0.504150	-0.190243	-0.764822	0.116452	-0.604395
62312		9.442906	1.397076	-1.990451	0.014176	0.006780	0.000415	-0.587402	-0.289795	0.513184	-0.190132	-0.764779	0.116414	-0.604492
62313		9.454164	1.433624	-1.962668	0.015755	-0.004477	-0.002001	-0.572266	-0.282715	0.514404	-0.190031	-0.764832	0.116390	-0.604462
62314		9.472218	1.497976	-1.899127	-0.010451	-0.002054	-0.001779	-0.584229	-0.280029	0.504639	-0.190091	-0.764857	0.116422	-0.604404
62315		9.456424	1.491685	-1.939397	-0.002704	-0.010302	-0.001063	-0.582764	-0.284668	0.516357	-0.190158	-0.764884	0.116586	-0.604318
62316		9.478152	1.506278	-1.866081	0.010357	0.003767	-0.002287	-0.592529	-0.274658	0.510010	-0.190049	-0.764891	0.116478	-0.604364
62317		9.457031	1.480946	-1.919291	0.002052	-0.003022	-0.001623	-0.586182	-0.272217	0.504150	-0.190012	-0.764875	0.116500	-0.604391
62318		9.455823	1.441980	-1.922114	-0.001612	-0.000585	0.001474	-0.573242	-0.281250	0.516113	-0.190014	-0.764823	0.116604	-0.604437
62319		9.458346	1.473972	-1.972545	0.004053	0.003063	0.001481	-0.576904	-0.273682	0.508057	-0.189895	-0.764845	0.116515	-0.604464
62320		9.423312	1.464587	-1.967594	0.005838	-0.007658	-0.001403	-0.583496	-0.290039	0.509277	-0.189793	-0.764914	0.116471	-0.604417
62321		9.450480	1.442661	-1.936514	-0.004142	-0.001478	-0.002390	-0.572266	-0.285645	0.512451	-0.189931	-0.764889	0.116638	-0.604373
62322		9.497947	1.401446	-1.928968	0.030232	0.001248	-0.001144	-0.579346	-0.279785	0.514893	-0.189647	-0.764974	0.116419	-0.604397
62323		9.473913	1.403403	-1.971768	0.042453	0.005508	-0.002949	-0.579590	-0.288086	0.507568	-0.189217	-0.765050	0.116031	-0.604510
62324		9.442852	1.485280	-2.014142	-0.003153	-0.006449	-0.007218	-0.579590	-0.282959	0.513672	-0.189377	-0.765075	0.116157	-0.604403
62325		9.406145	1.529615	-1.900707	0.013502	0.002316	-0.004592	-0.582031	-0.272949	0.508789	-0.189274	-0.765100	0.116033	-0.604429
62326		9.474590	1.413043	-1.952246	0.031895	-0.006936	-0.003397	-0.581543	-0.284180	0.508301	-0.188947	-0.765212	0.115790	-0.604436
62327		9.512008	1.422825	-1.990501	0.033315	0.001241	-0.001170	-0.581055	-0.274902	0.509766	-0.188698	-0.765254	0.115653	-0.604487
62328		9.424656	1.515399	-1.874961	0.026737	0.009485	-0.001687	-0.583008	-0.281250	0.511230	-0.188444	-0.765231	0.115439	-0.604636
62329		9.418367	1.541424	-2.004571	0.021781	-0.002519	0.000908	-0.580566	-0.262451	0.512207	-0.188244	-0.765280	0.115367	-0.604649
62330		9.466814	1.453984	-2.031594	-0.034917	-0.014510	-0.002938	-0.584473	-0.276855	0.510254	-0.188436	-0.765315	0.115517	-0.604517
62331		9.470867	1.360292	-1.907263	-0.018570	-0.004221	0.000008	-0.595459	-0.287109	0.509521	-0.188605	-0.765276	0.115725	-0.604474
62332		9.469620	1.401662	-1.948656	0.023977	0.004233	0.000362	-0.578369	-0.279297	0.505615	-0.188483	-0.765231	0.115743	-0.604565
62333		9.449121	1.509455	-2.134015	0.018487	0.001610	0.000634	-0.585449	-0.279541	0.518066	-0.188350	-0.765233	0.115720	-0.604609
62334		9.440753	1.520296	-1.967944	-0.015229	-0.013275	-0.005980	-0.579346	-0.282715	0.512451	-0.188474	-0.765309	0.115797	-0.604460
62335		9.455341	1.343137	-1.929103	0.002669	-0.009569	-0.006231	-0.590820	-0.275391	0.518066	-0.188499	-0.765390	0.115806	-0.604346
62336		9.487773	1.364816	-1.979497	0.034295	0.000810	-0.003623	-0.581543	-0.282227	0.513916	-0.188125	-0.765458	0.115478	-0.604440
62337		9.456898	1.485649	-2.040671	0.017134	0.008851	0.000193	-0.583008	-0.277344	0.511963	-0.187983	-0.765423	0.115390	-0.604545
62338		9.436533	1.595983	-1.906064	-0.001353	-0.005094	-0.002094	-0.580566	-0.275879	0.512451	-0.187996	-0.765445	0.115437	-0.604505
62339		9.448077	1.421810	-1.930734	-0.001477	-0.002907	-0.005415	-0.579590	-0.285400	0.514893	-0.188017	-0.765464	0.115417	-0.604478
62340		9.458295	1.328693	-2.016547	0.019495	-0.003493	-0.001016	-0.574951	-0.279785	0.510254	-0.187860	-0.765537	0.115343	-0.604448
62341		9.464282	1.462379	-1.966349	0.003791	-0.000452	-0.001309	-0.572266	-0.281738	0.520264	-0.187850	-0.765548	0.115368	-0.604432
62342		9.419708	1.530321	-1.930008	-0.001881	-0.004093	-0.001317	-0.579102	-0.287842	0.517578	-0.187817	-0.765621	0.115334	-0.604357
62343		9.459468	1.442859	-1.960106	0.018259	-0.002400	-0.002891	-0.581787	-0.288818	0.511230	-0.187687	-0.765695	0.115242	-0.604321
62344		9.495852	1.358165	-2.055175	0.031349	0.003265	-0.001015	-0.580322	-0.274658	0.513672	-0.187495	-0.765718	0.115155	-0.604368
62345		9.463808	1.360235	-1.930553	0.047333	0.007909	0.000541	-0.589844	-0.275146	0.517090	-0.187010	-0.765765	0.114786	-0.604530
62346		9.441225	1.398601	-1.970835	0.085772	0.011583	0.001677	-0.588623	-0.278564	0.512207	-0.186150	-0.765856	0.114134	-0.604803
62347		9.482636	1.425447	-2.037824	0.096790	0.009551	-0.000425	-0.580566	-0.275146	0.515137	-0.185277	-0.765970	0.113486	-0.605048
62348		9.479288	1.411306	-2.028404	0.066839	0.022854	-0.000377	-0.585938	-0.267334	0.517822	-0.184660	-0.765948	0.112957	-0.605364
62349		9.455214	1.434717	-1.938589	0.052125	0.029055	-0.002326	-0.584473	-0.275146	0.520508	-0.184134	-0.765848	0.112423	-0.605749
62350		9.435571	1.421748	-1.911851	0.071012	0.025337	0.000498	-0.583740	-0.274658	0.523438	-0.183447	-0.765826	0.111828	-0.606095
62351		9.466532	1.366910	-1.907307	0.091187	0.031704	0.010039	-0.582031	-0.271240	0.513916	-0.182482	-0.765802	0.111125	-0.606546
62352		9.472103	1.295918	-1.814862	0.126012	0.063738	0.021470	-0.582764	-0.272461	0.516602	-0.181202	-0.765565	0.110281	-0.607383
62353		9.453269	1.313517	-2.013363	0.127901	0.086875	0.017215	-0.585938	-0.267090	0.516113	-0.179969	-0.765170	0.109326	-0.608419
62354		9.513581	1.495459	-2.207469	0.095350	0.044182	0.012520	-0.588135	-0.274414	0.516602	-0.179000	-0.765027	0.108644	-0.609007
62355		9.469662	1.551180	-1.919644	0.011843	0.040521	0.004517	-0.592529	-0.262451	0.520996	-0.178955	-0.764728	0.108612	-0.609402
62356		9.442248	1.413419	-1.904151	-0.004300	0.045128	0.007378	-0.579590	-0.272949	0.512451	-0.178918	-0.764369	0.108563	-0.609871
62357		9.457268	1.334777	-1.954241	0.005279	0.038846	0.009487	-0.590332	-0.262207	0.516113	-0.178895	-0.764077	0.108623	-0.610233
62358		9.485736	1.361221	-1.955967	0.004706	0.023424	0.008700	-0.594238	-0.266602	0.512451	-0.178758	-0.763897	0.108599	-0.610503
62359		9.504255	1.445671	-1.909733	0.015413	0.019444	0.001434	-0.597412	-0.252686	0.515869	-0.178638	-0.763755	0.108524	-0.610729
62360		9.502430	1.453553	-1.874582	0.018671	0.020487	0.000105	-0.591309	-0.260498	0.516113	-0.178362	-0.763628	0.108249	-0.611017
62361		9.484555	1.424661	-1.879806	0.007064	0.014414	-0.001896	-0.591309	-0.266846	0.500732	-0.178257	-0.763540	0.108109	-0.611182
62362		9.468722	1.368180	-1.917199	-0.001271	0.012930	-0.002848	-0.586914	-0.263916	0.512939	-0.178420	-0.763381	0.108266	-0.611306
62363		9.491746	1.357520	-1.893273	0.006700	0.015949	-0.001673	-0.579346	-0.266846	0.511475	-0.178363	-0.763280	0.108176	-0.611464
62364		9.496972	1.347723	-1.877199	0.016064	0.016552	-0.007070	-0.590332	-0.263672	0.514648	-0.178284	-0.763217	0.107983	-0.611599
62365		9.498220	1.397561	-1.893653	0.019248	0.021057	-0.002970	-0.589355	-0.267822	0.506592	-0.178112	-0.763107	0.107759	-0.611827
62366		9.489958	1.418086	-1.914268	0.006193	0.021594	-0.001704	-0.595215	-0.262451	0.511963	-0.178154	-0.762931	0.107773	-0.612032
62367		9.486493	1.408548	-1.901225	0.001726	0.017019	-0.003020	-0.592041	-0.267334	0.509766	-0.178159	-0.762792	0.107719	-0.612213
62368		9.487483	1.359248	-1.854882	0.007571	0.019628	-0.005922	-0.594238	-0.262939	0.505859	-0.178185	-0.762649	0.107646	-0.612396
62369		9.496648	1.340138	-1.846626	0.004361	0.022649	-0.002956	-0.592285	-0.263184	0.517578	-0.178218	-0.762455	0.107621	-0.612632
62370		9.443948	1.362877	-1.887262	-0.001654	0.017988	-0.000303	-0.589600	-0.264893	0.519531	-0.178189	-0.762332	0.107546	-0.612807
62371		9.488455	1.401561	-1.906523	0.001873	0.007721	-0.001133	-0.591309	-0.260498	0.512695	-0.178110	-0.762313	0.107443	-0.612872
62372		9.500719	1.388964	-1.813057	-0.003772	0.012861	-0.000366	-0.583496	-0.260986	0.516113	-0.178106	-0.762212	0.107415	-0.613003
62373		9.494146	1.368312	-1.749296	-0.007331	0.010345	-0.001889	-0.594727	-0.270752	0.512939	-0.178108	-0.762160	0.107348	-0.613079
62374		9.515186	1.379525	-1.790065	-0.013776	0.014945	0.000029	-0.586914	-0.261475	0.506836	-0.178275	-0.762010	0.107485	-0.613193
62375		9.498616	1.400318	-1.793726	-0.012951	0.013387	0.000525	-0.586914	-0.265625	0.511475	-0.178395	-0.761876	0.107587	-0.613307
62376		9.503763	1.420673	-1.798592	-0.014045	0.011377	-0.001164	-0.595703	-0.264160	0.509766	-0.178525	-0.761775	0.107663	-0.613382
62377		9.507267	1.382575	-1.805217	-0.016100	0.013396	0.000417	-0.597656	-0.268311	0.514648	-0.178676	-0.761623	0.107793	-0.613503
62378		9.505878	1.345209	-1.825094	-0.014464	0.008843	-0.002599	-0.591309	-0.268066	0.507324	-0.178816	-0.761528	0.107870	-0.613567
62379		9.501167	1.306971	-1.814439	-0.012012	0.012882	-0.000404	-0.597168	-0.256592	0.508789	-0.178970	-0.761394	0.107999	-0.613666
62380		9.485677	1.366689	-1.817111	-0.003625	0.014894	-0.000137	-0.592529	-0.270508	0.510742	-0.178951	-0.761259	0.107963	-0.613844
62381		9.523482	1.424014	-1.795228	-0.008712	0.014909	-0.000070	-0.593262	-0.266357	0.503418	-0.179058	-0.761129	0.108040	-0.613961
62382		9.492872	1.406059	-1.795396	-0.014638	0.013399	-0.000504	-0.590332	-0.260742	0.497559	-0.179251	-0.760971	0.108210	-0.614071
62383		9.473739	1.369179	-1.823892	-0.015830	0.005160	0.000880	-0.593018	-0.266846	0.509277	-0.179432	-0.760860	0.108425	-0.614117
62384		9.465474	1.329446	-1.783997	-0.023571	0.003070	0.003215	-0.593750	-0.269043	0.507568	-0.179616	-0.760782	0.108650	-0.614121
62385		9.494271	1.376599	-1.747597	-0.027324	-0.004118	0.003795	-0.596924	-0.266846	0.503662	-0.179848	-0.760741	0.108960	-0.614048
62386		9.521083	1.385376	-1.735321	-0.018142	-0.004640	0.002922	-0.588867	-0.271240	0.509033	-0.180014	-0.760704	0.109221	-0.613999
62387		9.522987	1.337967	-1.767788	-0.013113	-0.000464	-0.000451	-0.590576	-0.265869	0.510742	-0.180145	-0.760692	0.109358	-0.613952
62388		9.527776	1.368347	-1.775520	-0.017413	-0.002989	-0.001547	-0.586914	-0.270264	0.508057	-0.180267	-0.760695	0.109464	-0.613893
62389		9.487806	1.360916	-1.783248	-0.017378	-0.002010	0.000104	-0.598877	-0.265625	0.504150	-0.180424	-0.760686	0.109634	-0.613828
62390		9.521680	1.331322	-1.789851	-0.004940	-0.001022	0.000299	-0.592773	-0.273438	0.514893	-0.180471	-0.760653	0.109740	-0.613836
62391		9.504580	1.301544	-1.755107	0.008920	0.004182	-0.003701	-0.592041	-0.268555	0.505127	-0.180390	-0.760671	0.109625	-0.613858
62392		9.494898	1.323684	-1.801139	0.016510	0.007308	-0.006272	-0.599854	-0.275146	0.509033	-0.180301	-0.760652	0.109481	-0.613933
62393		9.496652	1.382551	-1.798176	0.019410	0.005168	-0.003342	-0.592041	-0.267334	0.500977	-0.180184	-0.760644	0.109378	-0.613995
62394		9.498157	1.411099	-1.775441	0.011834	-0.001487	-0.003133	-0.591797	-0.271973	0.503662	-0.180128	-0.760663	0.109354	-0.613993
62395		9.507201	1.400459	-1.751167	0.005098	-0.006617	-0.002419	-0.596924	-0.269775	0.499756	-0.180138	-0.760714	0.109411	-0.613917
62396		9.506249	1.381318	-1.753778	0.008670	-0.007632	-0.003243	-0.597900	-0.269775	0.501221	-0.180135	-0.760754	0.109466	-0.613858
62397		9.528538	1.410426	-1.755009	0.004426	-0.003020	-0.002682	-0.593018	-0.271729	0.504883	-0.180165	-0.760751	0.109536	-0.613841
62398		9.507311	1.410726	-1.732807	-0.004076	0.000052	-0.001556	-0.593018	-0.266113	0.510010	-0.180259	-0.760728	0.109650	-0.613821
62399		9.486333	1.355134	-1.786955	-0.004922	-0.004550	-0.002055	-0.597656	-0.265137	0.507080	-0.180281	-0.760761	0.109682	-0.613768
62400		9.488445	1.327502	-1.820372	-0.004259	-0.011227	-0.001796	-0.591797	-0.260742	0.503662	-0.180298	-0.760825	0.109751	-0.613671
62401		9.505976	1.336786	-1.814230	-0.002705	-0.009244	0.000617	-0.595703	-0.272705	0.505859	-0.180270	-0.760878	0.109809	-0.613604
62402		9.516375	1.374743	-1.788464	-0.000999	-0.003569	-0.000743	-0.590820	-0.264893	0.502441	-0.180327	-0.760884	0.109921	-0.613560
62403		9.480638	1.346560	-1.784593	0.006741	-0.001476	-0.003079	-0.595703	-0.270508	0.516846	-0.180288	-0.760899	0.109899	-0.613557
62404		9.490473	1.329612	-1.856929	0.001727	-0.009186	-0.002068	-0.596680	-0.269043	0.500000	-0.180236	-0.760995	0.109879	-0.613456
62405		9.491764	1.368173	-1.836251	-0.001915	-0.011783	-0.000539	-0.589844	-0.267090	0.510498	-0.180299	-0.761039	0.110040	-0.613354
62406		9.493688	1.406147	-1.794335	-0.000114	-0.014282	-0.003316	-0.593506	-0.271973	0.497314	-0.180279	-0.761165	0.110052	-0.613201
62407		9.519982	1.385318	-1.763654	-0.000584	-0.007653	-0.001677	-0.589600	-0.268799	0.507812	-0.180382	-0.761177	0.110226	-0.613124
62408		9.490653	1.359230	-1.821936	-0.006777	-0.006118	-0.000938	-0.598633	-0.267578	0.507324	-0.180450	-0.761211	0.110333	-0.613044
62409		9.512060	1.359035	-1.824580	-0.006017	-0.011285	0.000264	-0.598389	-0.269043	0.505127	-0.180490	-0.761260	0.110461	-0.612947
62410		9.563313	1.328824	-1.825147	-0.010027	-0.007624	-0.001994	-0.595703	-0.266846	0.507568	-0.180615	-0.761268	0.110621	-0.612873
62411		9.486896	1.233484	-1.808915	-0.002694	0.001635	-0.003395	-0.586426	-0.270752	0.510986	-0.180660	-0.761239	0.110646	-0.612891
62412		9.493824	1.256347	-1.869380	-0.002038	-0.000320	-0.007155	-0.586182	-0.265381	0.511475	-0.180735	-0.761263	0.110635	-0.612841
62413		9.512060	1.316488	-1.881593	0.004926	-0.003941	-0.006692	-0.602051	-0.267822	0.512939	-0.180688	-0.761336	0.110529	-0.612783
62414		9.501039	1.376053	-1.853928	0.013148	-0.002315	-0.010673	-0.592041	-0.269043	0.505127	-0.180611	-0.761384	0.110350	-0.612778
62415		9.506529	1.356686	-1.798436	0.005038	0.001844	-0.012120	-0.593506	-0.270508	0.510742	-0.180680	-0.761382	0.110268	-0.612776
62416		9.482807	1.331396	-1.820342	-0.000486	-0.000226	-0.011124	-0.592041	-0.269287	0.512695	-0.180771	-0.761395	0.110214	-0.612741
62417		9.508494	1.373356	-1.850729	0.000811	-0.001800	-0.009903	-0.597656	-0.269287	0.507568	-0.180816	-0.761433	0.110138	-0.612695
62418		9.515130	1.422799	-1.814005	0.002749	0.004813	-0.007706	-0.596436	-0.271484	0.506836	-0.180864	-0.761391	0.110096	-0.612741
62419		9.489273	1.424969	-1.802817	0.004816	0.008956	-0.009291	-0.589355	-0.271484	0.503662	-0.180930	-0.761323	0.110035	-0.612817
62420		9.484510	1.427777	-1.813624	-0.007832	0.008452	-0.009002	-0.592285	-0.271484	0.499023	-0.181127	-0.761237	0.110088	-0.612855
62421		9.481784	1.382828	-1.856956	-0.012268	0.005308	-0.006316	-0.589600	-0.267822	0.501709	-0.181363	-0.761141	0.110238	-0.612878
62422		9.465524	1.383960	-1.820167	-0.009127	0.002221	-0.006216	-0.596436	-0.258301	0.507812	-0.181516	-0.761094	0.110313	-0.612878
62423		9.480136	1.423700	-1.800841	-0.009826	0.003194	-0.004112	-0.601562	-0.262451	0.502930	-0.181549	-0.761045	0.110286	-0.612933
62424		9.494693	1.463160	-1.781948	-0.011467	-0.001955	-0.003464	-0.590820	-0.267822	0.518066	-0.181644	-0.761001	0.110365	-0.612945
62425		9.506120	1.415718	-1.789010	-0.014934	-0.006045	-0.004062	-0.585938	-0.274658	0.506836	-0.181736	-0.761053	0.110407	-0.612846
62426		9.492532	1.367440	-1.764480	-0.016853	-0.001535	0.000134	-0.590576	-0.265137	0.508057	-0.181931	-0.761031	0.110625	-0.612777
62427		9.509785	1.388313	-1.777621	-0.024133	-0.005555	-0.003202	-0.587158	-0.265625	0.506836	-0.182130	-0.761026	0.110785	-0.612694
62428		9.509145	1.410032	-1.799413	-0.018228	-0.006660	-0.000406	-0.589600	-0.265869	0.503418	-0.182257	-0.761044	0.110935	-0.612607
62429		9.497811	1.353582	-1.828087	-0.008860	-0.002519	-0.001803	-0.591309	-0.273438	0.507812	-0.182331	-0.761036	0.111018	-0.612580
62430		9.491977	1.326028	-1.842817	-0.006517	-0.005526	-0.004544	-0.595459	-0.268066	0.507324	-0.182436	-0.761066	0.111100	-0.612497
62431		9.515681	1.354559	-1.799866	-0.002803	-0.003948	-0.005952	-0.588135	-0.272705	0.507080	-0.182477	-0.761086	0.111096	-0.612460
62432		9.488281	1.337718	-1.813025	0.008948	0.002281	-0.008430	-0.592529	-0.273438	0.507568	-0.182471	-0.761102	0.110999	-0.612460
62433		9.521359	1.339958	-1.861931	0.012389	0.003742	-0.005476	-0.588379	-0.270020	0.510986	-0.182416	-0.761101	0.110907	-0.612494
62434		9.480383	1.388942	-1.814562	0.011066	0.002234	-0.006735	-0.592773	-0.274170	0.504883	-0.182335	-0.761134	0.110761	-0.612504
62435		9.494760	1.428135	-1.796619	0.004531	-0.003956	-0.005724	-0.600830	-0.272217	0.505127	-0.182367	-0.761164	0.110772	-0.612455
62436		9.494015	1.379861	-1.777670	-0.002299	-0.004465	-0.005968	-0.589355	-0.275879	0.507080	-0.182449	-0.761166	0.110824	-0.612418
62437		9.518251	1.362467	-1.810771	-0.001407	-0.003433	-0.006176	-0.587158	-0.275635	0.502441	-0.182544	-0.761194	0.110871	-0.612348
62438		9.518020	1.364082	-1.810769	-0.003633	0.002733	-0.006439	-0.589844	-0.275146	0.500732	-0.182690	-0.761159	0.110945	-0.612334
62439		9.515026	1.414241	-1.799154	-0.004168	0.003739	-0.005674	-0.592529	-0.274414	0.507568	-0.182838	-0.761104	0.111034	-0.612342
62440		9.503619	1.418676	-1.868197	-0.003410	-0.001384	-0.006098	-0.591064	-0.268799	0.510010	-0.182937	-0.761106	0.111077	-0.612302
62441		9.463752	1.381630	-1.854845	-0.003631	0.002731	-0.006437	-0.587402	-0.274414	0.509521	-0.182989	-0.761091	0.111042	-0.612311
62442		9.503953	1.381778	-1.825046	-0.010857	0.001248	-0.008892	-0.591553	-0.269775	0.496338	-0.183173	-0.761078	0.111092	-0.612263
62443		9.495759	1.423198	-1.826958	-0.002663	0.002200	-0.005729	-0.586670	-0.278809	0.501953	-0.183273	-0.761026	0.111141	-0.612289
62444		9.503648	1.415295	-1.844014	0.002050	0.006821	-0.005577	-0.595459	-0.275879	0.512451	-0.183382	-0.760972	0.111190	-0.612315
62445		9.481477	1.397507	-1.842600	-0.000913	0.004759	-0.005399	-0.593506	-0.269531	0.506348	-0.183446	-0.760940	0.111189	-0.612336
62446		9.473211	1.398602	-1.824468	-0.004050	-0.002388	-0.007098	-0.598145	-0.272705	0.505371	-0.183514	-0.760949	0.111183	-0.612305
62447		9.513495	1.408023	-1.795264	-0.003441	-0.000893	-0.005351	-0.586426	-0.263672	0.498535	-0.183592	-0.760931	0.111221	-0.612297
62448		9.528059	1.417392	-1.755771	-0.000589	0.003227	-0.005695	-0.594238	-0.276367	0.500977	-0.183605	-0.760900	0.111170	-0.612341
62449		9.500962	1.400293	-1.767710	0.001695	0.004781	-0.006129	-0.594971	-0.277100	0.510254	-0.183696	-0.760845	0.111202	-0.612377
62450		9.499683	1.412864	-1.809696	0.001589	0.006263	-0.003896	-0.588867	-0.277100	0.501709	-0.183742	-0.760800	0.111210	-0.612417
62451		9.499858	1.414048	-1.807848	-0.000923	0.009397	-0.006198	-0.594238	-0.273193	0.512207	-0.183868	-0.760718	0.111248	-0.612474
62452		9.477840	1.396262	-1.805704	0.001013	0.008336	-0.004787	-0.584961	-0.275635	0.498535	-0.183889	-0.760668	0.111201	-0.612538
62453		9.486272	1.407332	-1.821865	0.006961	0.003183	-0.003532	-0.592041	-0.272705	0.503418	-0.183908	-0.760650	0.111215	-0.612553
62454		9.494599	1.418245	-1.838705	0.001313	0.002659	-0.003538	-0.596191	-0.267334	0.500000	-0.183935	-0.760623	0.111225	-0.612576
62455		9.504884	1.407465	-1.790201	-0.002953	0.007295	-0.004572	-0.596436	-0.267334	0.498291	-0.183979	-0.760539	0.111210	-0.612670
62456		9.502393	1.436766	-1.756362	-0.000703	0.009343	-0.004260	-0.600098	-0.271973	0.520020	-0.184007	-0.760439	0.111183	-0.612790
62457		9.519455	1.428034	-1.768352	-0.002056	0.007753	-0.002377	-0.587891	-0.267578	0.510742	-0.183996	-0.760396	0.111136	-0.612855
62458		9.496642	1.410406	-1.788825	-0.006012	0.002074	-0.001366	-0.593262	-0.272217	0.501709	-0.184006	-0.760390	0.111137	-0.612860
62459		9.490824	1.392847	-1.823190	-0.009270	0.005111	-0.000038	-0.595215	-0.271729	0.505615	-0.184110	-0.760311	0.111256	-0.612905
62460		9.508265	1.403623	-1.834646	-0.009849	0.007758	-0.003326	-0.585938	-0.270508	0.498779	-0.184227	-0.760223	0.111318	-0.612968
62461		9.483477	1.413801	-1.801115	-0.007052	0.004164	-0.002979	-0.586670	-0.268555	0.505859	-0.184326	-0.760170	0.111386	-0.612991
62462		9.502145	1.383226	-1.749524	-0.007405	0.002125	-0.003536	-0.589600	-0.276367	0.511719	-0.184387	-0.760154	0.111403	-0.612991
62463		9.492212	1.365814	-1.775075	-0.012518	0.004079	-0.000306	-0.591553	-0.271729	0.508545	-0.184514	-0.760111	0.111526	-0.612983
62464		9.488793	1.395831	-1.763896	-0.011657	0.002119	-0.003767	-0.597656	-0.275391	0.508545	-0.184629	-0.760080	0.111588	-0.612975
62465		9.506385	1.426442	-1.775541	-0.013547	0.001530	-0.001120	-0.593506	-0.274902	0.506836	-0.184765	-0.760031	0.111722	-0.612970
62466		9.532307	1.427675	-1.783906	-0.011804	0.005241	-0.005580	-0.588867	-0.271484	0.506592	-0.184927	-0.759969	0.111793	-0.612986
62467		9.510047	1.370438	-1.762392	-0.006010	0.003222	-0.006153	-0.589600	-0.279297	0.506836	-0.185008	-0.759948	0.111786	-0.612989
62468		9.499798	1.343614	-1.788911	-0.002573	0.000056	-0.002411	-0.595703	-0.272461	0.505615	-0.185081	-0.759948	0.111858	-0.612953
62469		9.495315	1.404276	-1.821297	0.001001	-0.000445	-0.002439	-0.592285	-0.281250	0.505127	-0.185069	-0.759949	0.111855	-0.612956
62470		9.505559	1.442856	-1.793840	0.007070	0.001714	-0.005759	-0.596436	-0.282471	0.507568	-0.185098	-0.759952	0.111842	-0.612946
62471		9.519795	1.432357	-1.754424	0.003626	0.008363	-0.005497	-0.595459	-0.277100	0.505371	-0.185166	-0.759894	0.111843	-0.612998
62472		9.510955	1.423802	-1.756983	0.004519	0.008820	-0.003303	-0.591309	-0.273926	0.501465	-0.185176	-0.759830	0.111822	-0.613077
62473		9.479315	1.406349	-1.781760	0.007928	0.002664	-0.002818	-0.595703	-0.268311	0.496338	-0.185131	-0.759822	0.111782	-0.613109
62474		9.487137	1.427490	-1.820286	0.003500	0.001062	-0.000934	-0.601074	-0.271729	0.496826	-0.185082	-0.759794	0.111773	-0.613160
62475		9.485075	1.454960	-1.766305	-0.001040	0.002090	-0.001612	-0.594727	-0.277344	0.504883	-0.185107	-0.759737	0.111819	-0.613215
62476		9.493778	1.445595	-1.761955	-0.001542	0.003175	-0.003988	-0.592529	-0.268555	0.502930	-0.185177	-0.759705	0.111855	-0.613226
62477		9.509596	1.378158	-1.777439	0.002599	0.004663	-0.001521	-0.598633	-0.280273	0.500244	-0.185128	-0.759673	0.111812	-0.613289
62478		9.487343	1.389163	-1.797618	-0.000251	-0.000032	0.001209	-0.590576	-0.277344	0.508545	-0.185176	-0.759640	0.111939	-0.613292
62479		9.487906	1.418262	-1.796513	-0.003500	-0.001062	0.000934	-0.585449	-0.275391	0.501465	-0.185212	-0.759647	0.112032	-0.613255
62480		9.493139	1.446998	-1.782928	-0.001420	-0.004091	-0.000637	-0.594727	-0.277588	0.509033	-0.185244	-0.759677	0.112111	-0.613193
62481		9.528805	1.425454	-1.746393	0.000149	-0.002548	-0.000581	-0.598145	-0.275391	0.497070	-0.185254	-0.759699	0.112167	-0.613153
62482		9.502463	1.366444	-1.717408	0.001568	0.002118	-0.002341	-0.596436	-0.277100	0.501709	-0.185283	-0.759655	0.112208	-0.613191
62483		9.497262	1.348179	-1.730855	0.005431	0.001156	-0.004320	-0.593018	-0.278320	0.509277	-0.185291	-0.759644	0.112201	-0.613203
62484		9.540117	1.388553	-1.774564	0.006686	-0.000983	-0.000775	-0.594238	-0.273438	0.505615	-0.185250	-0.759673	0.112208	-0.613179
62485		9.493594	1.417644	-1.741423	0.010576	0.002197	-0.004288	-0.597900	-0.270508	0.492676	-0.185175	-0.759682	0.112117	-0.613207
62486		9.514471	1.409041	-1.764080	0.011004	0.003247	-0.005215	-0.596924	-0.271240	0.501953	-0.185110	-0.759649	0.112028	-0.613284
62487		9.512272	1.372566	-1.808885	0.014330	0.003287	-0.006424	-0.591797	-0.276367	0.504150	-0.185009	-0.759649	0.111879	-0.613342
62488		9.485580	1.374193	-1.821006	0.014871	0.001708	-0.004789	-0.593018	-0.278076	0.498291	-0.184926	-0.759672	0.111784	-0.613356
62489		9.500376	1.362490	-1.760841	0.006652	0.000655	-0.004817	-0.590088	-0.272949	0.500732	-0.184948	-0.759666	0.111788	-0.613356
62490		9.492794	1.401362	-1.741988	0.013091	-0.000934	-0.001980	-0.590088	-0.267578	0.499023	-0.184840	-0.759698	0.111722	-0.613361
62491		9.510582	1.450544	-1.754281	0.015377	0.001192	-0.004801	-0.591553	-0.271973	0.499023	-0.184698	-0.759722	0.111566	-0.613402
62492		9.505427	1.442300	-1.767843	0.004370	-0.000333	-0.006783	-0.595947	-0.270264	0.510254	-0.184709	-0.759729	0.111520	-0.613398
62493		9.504284	1.434665	-1.790364	-0.000061	-0.001932	-0.004905	-0.593018	-0.270996	0.500732	-0.184703	-0.759756	0.111479	-0.613374
62494		9.462887	1.388601	-1.822095	-0.001631	-0.004045	-0.002565	-0.591309	-0.279541	0.500488	-0.184721	-0.759774	0.111513	-0.613341
62495		9.494599	1.377151	-1.776277	0.001834	-0.002491	-0.002751	-0.589844	-0.270508	0.504883	-0.184778	-0.759784	0.111590	-0.613296
62496		9.507559	1.427268	-1.801278	0.004683	0.001629	-0.003085	-0.587646	-0.280518	0.508301	-0.184736	-0.759790	0.111541	-0.613311
62497		9.491900	1.465785	-1.764021	0.005574	0.002662	-0.003288	-0.593994	-0.273438	0.507080	-0.184761	-0.759795	0.111556	-0.613295
62498		9.503068	1.408556	-1.792699	-0.000388	-0.000974	-0.002210	-0.591309	-0.284424	0.503174	-0.184772	-0.759803	0.111579	-0.613277
62499		9.485598	1.399109	-1.780434	-0.002119	-0.008170	-0.001748	-0.593994	-0.276855	0.501465	-0.184882	-0.759849	0.111740	-0.613157
62500		9.485226	1.399388	-1.782200	-0.001014	-0.007182	-0.000020	-0.591064	-0.271973	0.505127	-0.184911	-0.759884	0.111846	-0.613086
62501		9.517989	1.445728	-1.734689	-0.000526	-0.003629	0.001559	-0.596436	-0.270996	0.507324	-0.184886	-0.759908	0.111905	-0.613053
62502		9.521086	1.437326	-1.765986	-0.002147	0.001099	-0.003341	-0.593750	-0.276611	0.502686	-0.184906	-0.759894	0.111905	-0.613064
62503		9.484326	1.371045	-1.784693	0.000540	-0.000435	-0.003157	-0.594482	-0.271729	0.501221	-0.184950	-0.759889	0.111949	-0.613050
62504		9.497017	1.361961	-1.789803	-0.003075	0.000560	-0.002393	-0.591309	-0.272461	0.504150	-0.184986	-0.759865	0.111986	-0.613062
62505		9.514266	1.382227	-1.802895	-0.002208	-0.002547	-0.001058	-0.593262	-0.272705	0.509277	-0.185004	-0.759877	0.112036	-0.613032
62506		9.506277	1.401462	-1.785136	0.005161	-0.003021	-0.001564	-0.599121	-0.275879	0.503906	-0.184945	-0.759918	0.112016	-0.613002
62507		9.498003	1.401108	-1.767938	0.005938	0.000067	-0.001935	-0.593994	-0.276367	0.504395	-0.184917	-0.759913	0.112018	-0.613017
62508		9.518813	1.392171	-1.791226	0.002512	-0.001983	-0.002490	-0.595459	-0.277344	0.502197	-0.184930	-0.759927	0.112051	-0.612990
62509		9.492953	1.402627	-1.781453	-0.000464	0.000586	-0.003119	-0.598633	-0.272461	0.501221	-0.184989	-0.759906	0.112107	-0.612988
62510		9.480000	1.413033	-1.776700	0.000731	-0.004051	-0.002080	-0.589111	-0.269775	0.502197	-0.184983	-0.759918	0.112133	-0.612970
62511		9.492359	1.403783	-1.783707	-0.002853	-0.011757	-0.002114	-0.594238	-0.272217	0.497803	-0.184986	-0.760002	0.112182	-0.612856
62512		9.509758	1.373972	-1.757407	-0.004070	-0.010691	-0.004005	-0.587891	-0.270264	0.503418	-0.185038	-0.760056	0.112250	-0.612760
62513		9.531357	1.384267	-1.759190	0.000830	-0.001471	-0.002711	-0.596436	-0.278320	0.502930	-0.185027	-0.760074	0.112243	-0.612743
62514		9.517751	1.395771	-1.775551	0.002669	0.004243	-0.005406	-0.595459	-0.271240	0.496826	-0.185085	-0.760034	0.112251	-0.612773
62515		9.473577	1.417655	-1.795003	0.005840	-0.001942	-0.003699	-0.594727	-0.271484	0.500244	-0.185044	-0.760040	0.112217	-0.612784
62516		9.472668	1.389195	-1.797742	-0.003778	-0.011729	-0.003556	-0.589600	-0.273193	0.499268	-0.185078	-0.760108	0.112277	-0.612680
62517		9.508660	1.407610	-1.761385	-0.004143	-0.009704	-0.002515	-0.597656	-0.280273	0.502441	-0.185130	-0.760162	0.112363	-0.612581
62518		9.517701	1.397730	-1.737452	0.000770	-0.003978	-0.005215	-0.590332	-0.277344	0.498047	-0.185208	-0.760175	0.112425	-0.612530
62519		9.519797	1.390855	-1.791145	0.003267	-0.002465	-0.003715	-0.599121	-0.268311	0.507568	-0.185241	-0.760186	0.112464	-0.612499
62520		9.505705	1.432280	-1.829261	0.003770	-0.002975	-0.003733	-0.592041	-0.282959	0.504150	-0.185173	-0.760213	0.112395	-0.612498
62521		9.470310	1.414139	-1.825277	0.003595	-0.003427	-0.006405	-0.595703	-0.270020	0.503662	-0.185258	-0.760241	0.112445	-0.612428
62522		9.492247	1.394680	-1.805820	0.002126	-0.002960	-0.004695	-0.598145	-0.271973	0.506104	-0.185236	-0.760263	0.112404	-0.612416
62523		9.500135	1.396270	-1.823966	0.008296	0.001206	-0.006246	-0.594238	-0.274658	0.503662	-0.185183	-0.760268	0.112304	-0.612444
62524		9.499202	1.397871	-1.846054	0.009808	-0.000896	-0.003907	-0.597168	-0.279053	0.506104	-0.185124	-0.760289	0.112250	-0.612446
62525		9.483102	1.416808	-1.810313	0.005301	-0.000937	-0.002936	-0.585938	-0.266602	0.500977	-0.185132	-0.760294	0.112275	-0.612432
62526		9.509610	1.426414	-1.798748	0.004644	-0.005516	-0.004785	-0.592529	-0.274414	0.494385	-0.185068	-0.760355	0.112199	-0.612390
62527		9.505696	1.406746	-1.769801	0.007487	-0.001392	-0.005126	-0.590088	-0.273682	0.498779	-0.185055	-0.760358	0.112172	-0.612395
62528		9.522395	1.397893	-1.784140	0.010370	0.001668	-0.003815	-0.600342	-0.276611	0.508789	-0.184998	-0.760357	0.112114	-0.612424
62529		9.496385	1.448130	-1.794532	0.004043	0.000622	-0.004085	-0.595947	-0.276367	0.506836	-0.185004	-0.760351	0.112107	-0.612431
62530		9.501254	1.458270	-1.781035	0.002068	0.002168	-0.004753	-0.588867	-0.282227	0.505615	-0.185040	-0.760334	0.112110	-0.612441
62531		9.500260	1.400573	-1.783166	0.002052	-0.001972	-0.003207	-0.586182	-0.268311	0.498047	-0.185116	-0.760350	0.112196	-0.612382
62532		9.504499	1.371375	-1.771654	-0.000387	-0.000978	-0.002205	-0.594727	-0.276855	0.500488	-0.185103	-0.760352	0.112191	-0.612384
62533		9.507519	1.412653	-1.822807	-0.000252	0.000539	-0.001188	-0.591064	-0.273193	0.508057	-0.185144	-0.760325	0.112264	-0.612392
62534		9.486640	1.432309	-1.799592	0.001296	-0.000923	-0.004376	-0.594727	-0.269531	0.496094	-0.185158	-0.760342	0.112254	-0.612369
62535		9.494333	1.414140	-1.818125	-0.002575	0.000043	-0.002409	-0.595703	-0.271484	0.511230	-0.185172	-0.760313	0.112271	-0.612398
62536		9.489720	1.385368	-1.810422	-0.002921	-0.001999	-0.002962	-0.591553	-0.280273	0.510986	-0.185189	-0.760327	0.112285	-0.612373
62537		9.507445	1.395444	-1.802246	-0.005321	-0.001502	-0.002700	-0.585449	-0.270996	0.505615	-0.185305	-0.760330	0.112401	-0.612312
62538		9.508561	1.424274	-1.779487	0.000465	-0.000014	0.000723	-0.585205	-0.278076	0.500977	-0.185276	-0.760338	0.112427	-0.612307
62539		9.506870	1.416334	-1.823337	0.000211	0.001091	-0.002857	-0.592285	-0.272949	0.498779	-0.185343	-0.760326	0.112492	-0.612289
62540		9.471004	1.398555	-1.840052	0.000715	0.000581	-0.002876	-0.590088	-0.280518	0.506592	-0.185356	-0.760308	0.112505	-0.612305
62541		9.519417	1.398194	-1.828408	-0.001473	0.001602	-0.003079	-0.590820	-0.277832	0.502197	-0.185451	-0.760290	0.112591	-0.612283
62542		9.495156	1.407150	-1.774485	0.002824	0.001119	-0.003582	-0.589600	-0.269287	0.510498	-0.185488	-0.760279	0.112621	-0.612280
62543		9.477308	1.408308	-1.782537	0.002399	0.000070	-0.002653	-0.599365	-0.267822	0.505859	-0.185445	-0.760299	0.112577	-0.612276
62544		9.490012	1.399051	-1.787852	-0.004392	-0.001532	-0.001255	-0.593994	-0.273193	0.508057	-0.185434	-0.760290	0.112588	-0.612289
62545		9.499623	1.398562	-1.761753	-0.002016	0.002608	-0.002319	-0.589355	-0.271729	0.503662	-0.185463	-0.760265	0.112610	-0.612307
62546		9.512475	1.389380	-1.766222	0.000557	0.003133	-0.002304	-0.591309	-0.270264	0.504639	-0.185464	-0.760242	0.112607	-0.612336
62547		9.507445	1.430274	-1.798990	-0.005014	0.001034	-0.001406	-0.581543	-0.276123	0.503418	-0.185493	-0.760221	0.112644	-0.612346
62548		9.511137	1.412035	-1.808304	-0.005824	-0.000428	-0.005073	-0.596191	-0.266602	0.500244	-0.185614	-0.760224	0.112713	-0.612293
62549		9.475568	1.364651	-1.804373	0.002147	0.000609	-0.003840	-0.592285	-0.276367	0.502197	-0.185562	-0.760213	0.112643	-0.612336
62550		9.497751	1.394443	-1.803653	0.005491	0.004225	-0.004199	-0.591309	-0.280273	0.501709	-0.185567	-0.760184	0.112622	-0.612373
62551		9.511185	1.424497	-1.806265	0.006261	0.007315	-0.004573	-0.592041	-0.272461	0.504150	-0.185606	-0.760132	0.112621	-0.612426
62552		9.480688	1.435483	-1.808240	0.006287	0.002679	-0.003769	-0.600830	-0.266846	0.510742	-0.185565	-0.760125	0.112564	-0.612458
62553		9.484418	1.416880	-1.817700	0.002440	-0.000427	-0.003392	-0.592041	-0.272949	0.505615	-0.185493	-0.760136	0.112483	-0.612482
62554		9.493803	1.406714	-1.792352	0.005014	0.000098	-0.003375	-0.590820	-0.277588	0.499268	-0.185460	-0.760147	0.112447	-0.612484
62555		9.504322	1.415033	-1.744034	0.006885	0.004182	-0.002028	-0.582275	-0.271729	0.503906	-0.185451	-0.760116	0.112454	-0.612524
