// Start Time: Unknown
// Update Rate: 40.0Hz
// Filter Profile: human (46.1)
// Firmware Version: 4.6.0
PacketCounter	SampleTimeFine	Acc_X	Acc_Y	Acc_Z	Gyr_X	Gyr_Y	Gyr_Z	Mag_X	Mag_Y	Mag_Z	Quat_q0	Quat_q1	Quat_q2	Quat_q3
61647		5.475131	-0.196235	8.039162	-0.002743	-0.007307	0.001898	-0.637207	-0.468506	-0.133057	-0.383940	-0.265387	0.127937	-0.875095
61648		5.473784	-0.197084	8.024635	-0.002967	-0.007099	0.001283	-0.636719	-0.465820	-0.136475	-0.383925	-0.265448	0.128008	-0.875073
61649		5.459554	-0.193803	8.026690	-0.005975	-0.010435	0.003162	-0.635742	-0.465332	-0.144287	-0.383892	-0.265524	0.128136	-0.875046
61650		5.493736	-0.204150	8.018576	-0.004277	-0.011905	0.002026	-0.645264	-0.467773	-0.138916	-0.383865	-0.265630	0.128246	-0.875009
61651		5.484237	-0.188781	8.026563	-0.000979	-0.007943	0.000087	-0.639893	-0.468506	-0.145264	-0.383855	-0.265713	0.128296	-0.874981
61652		5.485661	-0.189218	8.025580	-0.002901	-0.006266	0.000610	-0.633789	-0.471191	-0.143799	-0.383848	-0.265769	0.128360	-0.874958
61653		5.493771	-0.217352	8.009351	-0.001086	-0.005014	0.001357	-0.643311	-0.464844	-0.148682	-0.383829	-0.265820	0.128400	-0.874945
61654		5.480342	-0.196137	8.025703	-0.000250	-0.004392	-0.000533	-0.636230	-0.468750	-0.141602	-0.383827	-0.265874	0.128425	-0.874926
61655		5.478296	-0.190711	8.032759	-0.000697	-0.003975	-0.001762	-0.637695	-0.466797	-0.143311	-0.383842	-0.265922	0.128448	-0.874901
61656		5.487732	-0.201300	8.030440	-0.001211	-0.004393	-0.002316	-0.628906	-0.458252	-0.143066	-0.383864	-0.265973	0.128475	-0.874872
61657		5.490286	-0.190058	8.022396	-0.002527	-0.004177	0.000727	-0.637695	-0.459961	-0.156006	-0.383858	-0.266010	0.128525	-0.874856
61658		5.481878	-0.208043	8.030935	0.000347	-0.002510	0.000199	-0.635498	-0.465820	-0.147461	-0.383851	-0.266043	0.128534	-0.874848
61659		5.474087	-0.202831	8.011035	-0.001260	-0.004600	-0.000786	-0.630615	-0.472656	-0.157227	-0.383857	-0.266095	0.128566	-0.874825
61660		5.488331	-0.196939	8.035665	-0.002984	-0.007732	0.000434	-0.633789	-0.462402	-0.147217	-0.383858	-0.266163	0.128635	-0.874793
61661		5.487317	-0.197715	8.020896	-0.002910	-0.010241	0.001548	-0.639404	-0.464600	-0.150146	-0.383832	-0.266264	0.128720	-0.874761
61662		5.479162	-0.204663	8.007518	-0.002637	-0.010244	0.000634	-0.631348	-0.461914	-0.144287	-0.383815	-0.266365	0.128799	-0.874726
61663		5.495775	-0.187549	8.024231	-0.003789	-0.008779	-0.000056	-0.633545	-0.459229	-0.156982	-0.383813	-0.266451	0.128879	-0.874689
61664		5.492677	-0.199432	8.017185	-0.000044	-0.005231	-0.000770	-0.636230	-0.459961	-0.144531	-0.383813	-0.266496	0.128904	-0.874672
61665		5.462925	-0.207457	8.022955	-0.001534	-0.004600	0.000130	-0.631836	-0.466553	-0.142822	-0.383799	-0.266552	0.128939	-0.874656
61666		5.483554	-0.189042	8.003853	0.000013	-0.008369	-0.000510	-0.637451	-0.469238	-0.149414	-0.383798	-0.266657	0.128962	-0.874621
61667		5.476539	-0.178491	8.004537	-0.000963	-0.007320	0.000944	-0.635010	-0.472168	-0.143311	-0.383789	-0.266730	0.128997	-0.874597
61668		5.501001	-0.205675	8.005786	-0.004013	-0.008572	-0.000667	-0.640869	-0.454102	-0.149170	-0.383815	-0.266825	0.129052	-0.874549
61669		5.493986	-0.195741	8.006456	-0.002967	-0.007107	0.001292	-0.635010	-0.470947	-0.144287	-0.383760	-0.266876	0.129132	-0.874546
61670		5.496254	-0.207881	8.026640	-0.002752	-0.003971	0.000117	-0.639648	-0.465332	-0.141357	-0.383782	-0.266926	0.129155	-0.874518
61671		5.497340	-0.208468	8.025881	-0.001956	-0.006900	0.001545	-0.628174	-0.465820	-0.142334	-0.383744	-0.267017	0.129200	-0.874500
61672		5.494408	-0.220835	8.018703	-0.002874	-0.008990	0.003260	-0.636475	-0.459961	-0.139160	-0.383725	-0.267112	0.129259	-0.874471
61673		5.497727	-0.209989	8.010114	-0.001703	-0.007532	-0.000222	-0.632812	-0.469238	-0.143555	-0.383682	-0.267216	0.129308	-0.874450
61674		5.486178	-0.205994	8.025889	-0.002537	-0.008156	0.001670	-0.642090	-0.467529	-0.149658	-0.383686	-0.267303	0.129354	-0.874415
61675		5.495108	-0.200330	8.023244	-0.000964	-0.007323	0.000946	-0.636475	-0.463135	-0.144531	-0.383666	-0.267355	0.129401	-0.874401
61676		5.486298	-0.206845	8.010323	-0.001413	-0.006905	-0.000283	-0.633301	-0.460693	-0.137207	-0.383649	-0.267422	0.129442	-0.874382
61677		5.503498	-0.211484	8.006110	-0.001057	-0.005442	-0.001021	-0.632568	-0.473145	-0.147217	-0.383617	-0.267521	0.129458	-0.874363
61678		5.495930	-0.200917	8.007197	-0.001263	-0.004604	-0.000782	-0.644287	-0.464355	-0.150391	-0.383701	-0.267551	0.129454	-0.874318
61679		5.515647	-0.199967	8.037887	0.000984	-0.004398	0.000336	-0.639160	-0.460205	-0.151123	-0.383658	-0.267559	0.129482	-0.874330
61680		5.493105	-0.206869	8.021127	0.001049	-0.003561	-0.000340	-0.643799	-0.454102	-0.147949	-0.383623	-0.267541	0.129507	-0.874347
61681		5.495529	-0.189873	8.034328	-0.000973	-0.003977	-0.000843	-0.638184	-0.461182	-0.149170	-0.383508	-0.267539	0.129576	-0.874388
61682		5.504773	-0.206224	8.010915	-0.001207	-0.002718	0.001778	-0.639404	-0.466309	-0.144531	-0.383467	-0.267509	0.129618	-0.874409
61683		5.486645	-0.196535	8.021457	0.000759	-0.004189	-0.000278	-0.632568	-0.464844	-0.146973	-0.383451	-0.267564	0.129611	-0.874400
61684		5.495766	-0.206964	8.019301	0.002163	-0.001259	0.000941	-0.641357	-0.465332	-0.147461	-0.383478	-0.267555	0.129577	-0.874396
61685		5.494633	-0.189753	8.019475	0.001798	0.000625	-0.000111	-0.639893	-0.468994	-0.145264	-0.383457	-0.267528	0.129553	-0.874417
61686		5.490084	-0.201156	8.013427	0.000450	-0.000418	0.001229	-0.641357	-0.456787	-0.146729	-0.383462	-0.267533	0.129528	-0.874417
61687		5.482903	-0.207431	8.014869	0.001106	-0.001675	0.002219	-0.637695	-0.466553	-0.153809	-0.383319	-0.267516	0.129560	-0.874480
61688		5.481559	-0.213277	8.043267	0.002931	-0.001472	-0.000275	-0.637451	-0.460938	-0.145752	-0.383383	-0.267435	0.129542	-0.874480
61689		5.492069	-0.212130	8.033858	0.000656	-0.001256	0.000990	-0.637207	-0.463379	-0.147461	-0.383325	-0.267427	0.129544	-0.874507
61690		5.488616	-0.195328	8.020137	0.000197	-0.004815	0.000700	-0.638184	-0.463135	-0.145752	-0.383311	-0.267436	0.129564	-0.874508
61691		5.490475	-0.212572	8.019467	-0.002650	-0.001878	0.001151	-0.631104	-0.466309	-0.146484	-0.383282	-0.267422	0.129598	-0.874520
61692		5.498325	-0.201261	8.038724	0.001808	-0.002724	0.001680	-0.631836	-0.472412	-0.147949	-0.383357	-0.267425	0.129563	-0.874491
61693		5.509164	-0.200547	8.029073	-0.001227	-0.003347	0.000926	-0.638916	-0.464111	-0.143066	-0.383543	-0.267411	0.129543	-0.874417
61694		5.486600	-0.202366	8.033502	0.000983	-0.004399	0.000337	-0.637695	-0.463867	-0.147949	-0.383490	-0.267487	0.129537	-0.874418
61695		5.471696	-0.197810	8.036165	-0.000113	-0.006073	-0.000090	-0.639160	-0.461182	-0.144775	-0.383489	-0.267497	0.129568	-0.874411
61696		5.488701	-0.202225	8.032070	0.000983	-0.004399	0.000338	-0.636475	-0.465576	-0.147949	-0.383397	-0.267537	0.129581	-0.874436
61697		5.483962	-0.197201	8.025533	-0.003109	-0.005438	0.000863	-0.633789	-0.462158	-0.141113	-0.383445	-0.267520	0.129633	-0.874413
61698		5.485986	-0.214461	8.024746	0.000797	-0.002932	0.001429	-0.644531	-0.455078	-0.146973	-0.383391	-0.267599	0.129607	-0.874417
61699		5.477810	-0.203628	8.026276	0.001938	-0.001051	0.000326	-0.633789	-0.470459	-0.147949	-0.383144	-0.267560	0.129653	-0.874530
61700		5.491107	-0.202612	8.030415	-0.001031	-0.000837	-0.001104	-0.631592	-0.466797	-0.145752	-0.383349	-0.267507	0.129620	-0.874461
61701		5.484062	-0.208901	8.031773	0.000075	-0.002512	0.001115	-0.643555	-0.470215	-0.147949	-0.383465	-0.267502	0.129592	-0.874416
61702		5.486452	-0.197395	8.023826	0.000467	-0.004818	-0.000214	-0.637695	-0.466553	-0.153320	-0.383522	-0.267511	0.129601	-0.874387
61703		5.481751	-0.192165	8.017268	-0.000365	-0.005443	0.001679	-0.645996	-0.461670	-0.146240	-0.383610	-0.267403	0.129653	-0.874373
61704		5.480930	-0.203912	8.024139	-0.000440	-0.002931	0.000564	-0.633301	-0.464355	-0.142822	-0.383457	-0.267403	0.129708	-0.874433
61705		5.474281	-0.210266	8.025227	-0.000525	-0.004397	0.000388	-0.629883	-0.473145	-0.148926	-0.383483	-0.267471	0.129692	-0.874402
61706		5.488229	-0.209295	8.028916	0.001769	-0.003983	-0.000026	-0.638916	-0.454346	-0.152100	-0.383791	-0.267442	0.129624	-0.874287
61707		5.486038	-0.209302	8.014936	-0.001677	-0.002929	-0.000301	-0.637451	-0.463379	-0.153076	-0.383610	-0.267294	0.129729	-0.874396
61708		5.495594	-0.191729	8.005534	0.001087	-0.002305	0.001366	-0.639160	-0.470703	-0.142334	-0.383645	-0.267149	0.129765	-0.874419
61709		5.487036	-0.209333	8.014252	0.001583	-0.002516	0.001065	-0.637451	-0.459473	-0.145996	-0.383723	-0.267247	0.129708	-0.874364
61710		5.471713	-0.204650	8.017227	0.001273	-0.003773	0.000276	-0.639404	-0.466064	-0.147461	-0.383605	-0.267255	0.129727	-0.874410
61711		5.477082	-0.187568	8.043916	0.000261	-0.003981	0.000025	-0.630615	-0.471191	-0.143799	-0.383637	-0.267248	0.129740	-0.874396
61712		5.490877	-0.192013	8.026509	0.000551	-0.003353	-0.000038	-0.633789	-0.471680	-0.145996	-0.383874	-0.267307	0.129665	-0.874285
61713		5.492814	-0.203300	8.046991	0.001047	-0.003564	-0.000339	-0.631836	-0.470947	-0.142334	-0.384099	-0.267330	0.129610	-0.874188
61714		5.486452	-0.186357	8.019775	0.000346	-0.002515	0.000201	-0.641846	-0.461426	-0.151611	-0.384295	-0.267407	0.129538	-0.874089
61715		5.472317	-0.193243	8.043747	0.000326	-0.003144	-0.000652	-0.633545	-0.468018	-0.146484	-0.384211	-0.267293	0.129602	-0.874151
61716		5.478556	-0.203954	8.028051	0.000076	-0.002513	0.001116	-0.631592	-0.463867	-0.149170	-0.384338	-0.267277	0.129577	-0.874104
61717		5.476370	-0.198638	8.035263	0.000261	-0.003981	0.000026	-0.640869	-0.463623	-0.147705	-0.384407	-0.267212	0.129577	-0.874093
61718		5.479960	-0.198813	8.048289	-0.001948	-0.002928	0.000616	-0.630127	-0.460938	-0.138428	-0.384349	-0.267170	0.129635	-0.874123
61719		5.470725	-0.177005	8.028739	0.000527	-0.002932	0.002345	-0.641602	-0.454834	-0.141846	-0.384243	-0.267313	0.129586	-0.874133
61720		5.501720	-0.197704	8.028850	-0.000300	-0.004608	0.001005	-0.640381	-0.466797	-0.145508	-0.383872	-0.267402	0.129646	-0.874260
61721		5.481874	-0.204808	8.025765	0.000636	-0.001887	0.000138	-0.632324	-0.469727	-0.146973	-0.383887	-0.267410	0.129637	-0.874252
61722		5.463476	-0.194759	8.036580	0.000906	-0.001889	-0.000778	-0.633545	-0.465820	-0.161377	-0.384116	-0.267379	0.129582	-0.874169
61723		5.472803	-0.205353	8.034254	-0.000836	-0.005656	-0.000399	-0.640137	-0.470703	-0.146484	-0.384354	-0.267063	0.129671	-0.874148
61724		5.482867	-0.182308	8.045698	0.001228	-0.003982	0.001806	-0.634521	-0.459961	-0.149902	-0.384460	-0.267086	0.129661	-0.874096
61725		5.484142	-0.232858	8.031154	0.001358	-0.002308	0.000451	-0.641846	-0.464355	-0.147949	-0.384389	-0.266989	0.129676	-0.874155
61726		5.469053	-0.194196	8.048278	0.001983	-0.000844	-0.001205	-0.642578	-0.467529	-0.149658	-0.384350	-0.266946	0.129676	-0.874185
61727		5.479370	-0.192949	8.038951	0.001733	-0.000213	0.000563	-0.633301	-0.462646	-0.149658	-0.384386	-0.266864	0.129680	-0.874193
61728		5.476134	-0.220885	8.032623	0.002478	-0.001055	-0.001507	-0.639648	-0.471436	-0.141602	-0.384427	-0.266775	0.129651	-0.874207
61729		5.467000	-0.192693	8.034233	0.002469	-0.005036	-0.000564	-0.644043	-0.462158	-0.147705	-0.384534	-0.266930	0.129593	-0.874121
61730		5.474992	-0.186044	8.032218	0.001938	-0.001052	0.000325	-0.637939	-0.463623	-0.154297	-0.384395	-0.266889	0.129622	-0.874190
61731		5.475224	-0.185474	8.032073	0.003942	-0.001266	-0.000028	-0.632080	-0.475098	-0.139648	-0.384423	-0.266716	0.129625	-0.874230
61732		5.468040	-0.190965	8.033567	0.001757	-0.000635	-0.001820	-0.637451	-0.468018	-0.144287	-0.384722	-0.266859	0.129486	-0.874076
61733		5.459090	-0.207963	8.042604	0.003285	-0.000009	-0.001019	-0.635010	-0.461670	-0.145996	-0.384794	-0.266890	0.129416	-0.874045
61734		5.472875	-0.178121	8.039447	0.002370	-0.002100	0.000702	-0.648193	-0.460449	-0.147217	-0.384711	-0.266884	0.129395	-0.874086
61735		5.468827	-0.189259	8.033072	0.002575	-0.002939	0.000464	-0.633789	-0.464844	-0.156006	-0.384478	-0.266877	0.129456	-0.874182
61736		5.463569	-0.183750	8.026903	0.000366	-0.001886	0.001055	-0.644775	-0.463867	-0.151367	-0.384592	-0.266653	0.129488	-0.874196
61737		5.473844	-0.211127	8.024546	0.002058	-0.003358	-0.000087	-0.636963	-0.462646	-0.144043	-0.384526	-0.266571	0.129538	-0.874242
61738		5.465891	-0.194853	8.047158	0.000366	-0.001886	0.001055	-0.631348	-0.457275	-0.145264	-0.384448	-0.266604	0.129530	-0.874267
61739		5.463712	-0.194910	8.033158	0.000175	-0.005450	-0.000146	-0.635498	-0.466309	-0.141357	-0.384316	-0.266632	0.129541	-0.874316
61740		5.459240	-0.184266	8.047667	-0.000159	-0.006285	0.001448	-0.645752	-0.467529	-0.149658	-0.384316	-0.266769	0.129523	-0.874276
61741		5.464588	-0.207006	8.038894	-0.002969	-0.007118	0.001315	-0.640381	-0.473389	-0.144775	-0.384314	-0.266745	0.129627	-0.874269
61742		5.456348	-0.180436	8.039858	-0.004541	-0.007952	0.002046	-0.641357	-0.465332	-0.147461	-0.384467	-0.266826	0.129675	-0.874170
61743		5.466771	-0.192530	8.036743	-0.006715	-0.010673	0.002052	-0.639160	-0.463135	-0.144287	-0.384447	-0.266852	0.129819	-0.874150
61744		5.456169	-0.189686	8.052005	-0.007382	-0.013398	0.002007	-0.635986	-0.463379	-0.147461	-0.384372	-0.266961	0.129965	-0.874128
61745		5.482175	-0.195155	8.023827	-0.006725	-0.014658	0.002999	-0.635986	-0.456055	-0.148682	-0.384349	-0.267014	0.130112	-0.874100
61746		5.490474	-0.201947	8.027878	-0.004713	-0.010891	0.001701	-0.637207	-0.467529	-0.144287	-0.384179	-0.266997	0.130254	-0.874159
61747		5.486551	-0.197507	8.020778	-0.003445	-0.007332	-0.000762	-0.636719	-0.472900	-0.152100	-0.384264	-0.267067	0.130285	-0.874095
61748		5.465591	-0.216625	8.024838	-0.001064	-0.004399	0.002227	-0.629883	-0.459961	-0.142578	-0.384506	-0.266965	0.130301	-0.874018
61749		5.487091	-0.204497	8.047980	-0.000753	-0.004193	-0.000220	-0.642578	-0.468262	-0.141602	-0.384452	-0.267022	0.130280	-0.874027
61750		5.466387	-0.200012	8.023698	0.000356	-0.006923	-0.001235	-0.636475	-0.469727	-0.151855	-0.384468	-0.267166	0.130279	-0.873976
61751		5.488244	-0.192860	8.025349	-0.000635	-0.006501	-0.000631	-0.630371	-0.468994	-0.144775	-0.384657	-0.267090	0.130304	-0.873912
61752		5.492204	-0.198198	8.016891	0.000690	-0.005035	0.000405	-0.641113	-0.465332	-0.157959	-0.384816	-0.267133	0.130252	-0.873837
61753		5.476445	-0.193075	8.020260	0.004510	0.003344	-0.001960	-0.636230	-0.467285	-0.144287	-0.384908	-0.266856	0.130242	-0.873883
61754		5.474304	-0.198106	8.049352	0.004241	0.003345	-0.001043	-0.631348	-0.469971	-0.142334	-0.384980	-0.266845	0.130140	-0.873869
61755		5.485107	-0.212957	8.040257	0.005209	0.002292	-0.002499	-0.637207	-0.468994	-0.145020	-0.385154	-0.266890	0.129986	-0.873802
61756		5.496334	-0.193297	8.045202	0.010398	0.005006	-0.002615	-0.636963	-0.469727	-0.141602	-0.385257	-0.266880	0.129810	-0.873786
61757		5.490360	-0.157050	8.032624	0.013157	0.001646	-0.000007	-0.631104	-0.456299	-0.146729	-0.385312	-0.266981	0.129612	-0.873760
61758		5.488628	-0.187636	8.019593	0.019411	0.009809	0.000884	-0.632080	-0.466797	-0.143311	-0.385078	-0.266894	0.129345	-0.873929
61759		5.423513	-0.160675	8.055676	0.016633	0.005199	0.000172	-0.637207	-0.460693	-0.149902	-0.385099	-0.266927	0.129086	-0.873948
61760		5.453484	-0.178513	8.056482	0.011597	-0.002544	0.002530	-0.634277	-0.471924	-0.153320	-0.384947	-0.266885	0.129004	-0.874040
61761		5.483855	-0.207924	8.014538	0.011166	-0.001496	0.002153	-0.641113	-0.463623	-0.138916	-0.385131	-0.266784	0.128884	-0.874008
61762		5.460731	-0.145099	8.026781	0.013649	0.009816	0.000182	-0.644043	-0.474609	-0.144531	-0.384983	-0.266834	0.128672	-0.874089
61763		5.425926	-0.190601	8.049732	0.008179	0.010458	-0.000587	-0.635986	-0.471924	-0.147461	-0.385144	-0.266769	0.128517	-0.874061
61764		5.446844	-0.136914	8.059870	0.004950	0.007325	0.000704	-0.641357	-0.475830	-0.144531	-0.385304	-0.266655	0.128398	-0.874042
61765		5.423727	-0.155567	8.065446	-0.002702	0.002324	0.004124	-0.629395	-0.469482	-0.145020	-0.385488	-0.266618	0.128403	-0.873972
61766		5.405118	-0.181153	8.062198	-0.007953	-0.009610	0.004434	-0.635498	-0.471436	-0.148682	-0.385575	-0.266659	0.128480	-0.873910
61767		5.438759	-0.176276	8.053428	-0.015122	-0.019862	0.005272	-0.626465	-0.471924	-0.150635	-0.385695	-0.266717	0.128731	-0.873802
61768		5.476297	-0.177258	8.036228	-0.013369	-0.020505	0.003456	-0.642334	-0.459473	-0.147461	-0.385883	-0.266756	0.128911	-0.873680
61769		5.441820	-0.193966	8.042112	-0.011705	-0.015278	-0.001284	-0.635986	-0.472656	-0.152832	-0.385746	-0.266796	0.129150	-0.873693
61770		5.494891	-0.164545	8.035963	-0.011498	-0.015067	0.001715	-0.638184	-0.469727	-0.143555	-0.385947	-0.266755	0.129340	-0.873589
61771		5.463877	-0.203502	8.034359	-0.012058	-0.015696	0.002699	-0.632324	-0.459717	-0.144531	-0.386027	-0.266874	0.129533	-0.873489
61772		5.441439	-0.174144	8.037634	-0.013052	-0.016329	0.000071	-0.636230	-0.463623	-0.142822	-0.385908	-0.266964	0.129724	-0.873485
61773		5.422249	-0.202574	8.068151	-0.022559	-0.027216	0.002875	-0.634766	-0.468262	-0.144775	-0.385858	-0.267156	0.130088	-0.873395
61774		5.484759	-0.158678	8.036975	-0.028455	-0.037285	0.003064	-0.637695	-0.458740	-0.138184	-0.385939	-0.267399	0.130552	-0.873215
61775		5.498612	-0.220640	8.023306	-0.025547	-0.038356	0.005175	-0.638672	-0.462891	-0.151855	-0.385716	-0.267759	0.131011	-0.873135
61776		5.467999	-0.240036	8.026578	-0.023321	-0.035856	0.001259	-0.635498	-0.470703	-0.142334	-0.385708	-0.267879	0.131467	-0.873033
61777		5.537467	-0.194901	8.021570	-0.019205	-0.038608	0.000136	-0.639648	-0.465820	-0.149170	-0.385843	-0.268219	0.131812	-0.872817
61778		5.498507	-0.207602	8.005348	-0.018586	-0.040094	0.002668	-0.642090	-0.461670	-0.143555	-0.385851	-0.268447	0.132229	-0.872680
61779		5.527377	-0.221051	8.002486	-0.016011	-0.031702	-0.000564	-0.637451	-0.462158	-0.135498	-0.385772	-0.268685	0.132567	-0.872591
61780		5.523595	-0.224942	8.007407	-0.015000	-0.031503	-0.000312	-0.638184	-0.469727	-0.148926	-0.385677	-0.269052	0.132838	-0.872478
61781		5.532450	-0.227471	8.016807	-0.011395	-0.026259	-0.001509	-0.639893	-0.462158	-0.147217	-0.385835	-0.269166	0.133076	-0.872337
61782		5.555233	-0.244309	7.981116	-0.006925	-0.018703	-0.000525	-0.642822	-0.470947	-0.143311	-0.385796	-0.269232	0.133255	-0.872307
61783		5.526993	-0.207653	7.979051	-0.002763	-0.012821	-0.002714	-0.644775	-0.462891	-0.145020	-0.385937	-0.269335	0.133330	-0.872201
61784		5.523532	-0.225682	7.999964	-0.001439	-0.010935	0.000697	-0.649414	-0.466797	-0.139404	-0.385872	-0.269375	0.133432	-0.872202
61785		5.521032	-0.237549	7.992438	-0.001898	-0.010513	-0.000528	-0.629883	-0.461182	-0.152588	-0.385873	-0.269504	0.133528	-0.872147
61786		5.545223	-0.219375	7.985926	-0.002162	-0.010515	0.000390	-0.634277	-0.469971	-0.138184	-0.385862	-0.269408	0.133586	-0.872172
61787		5.548048	-0.236407	7.984475	0.000139	-0.006099	-0.000993	-0.638672	-0.472412	-0.139648	-0.385970	-0.269521	0.133542	-0.872096
61788		5.510808	-0.223177	8.035048	-0.003079	-0.005254	-0.000626	-0.639404	-0.467285	-0.142090	-0.386129	-0.269588	0.133555	-0.872004
61789		5.538397	-0.204226	7.992537	-0.002684	-0.010936	-0.000154	-0.644531	-0.464355	-0.143555	-0.386173	-0.269669	0.133619	-0.871949
61790		5.533910	-0.232992	7.971282	-0.001378	-0.010097	0.000021	-0.632812	-0.461182	-0.151123	-0.386151	-0.269717	0.133705	-0.871931
61791		5.534003	-0.244675	7.977564	-0.000876	-0.006309	-0.001233	-0.637207	-0.471436	-0.134766	-0.386132	-0.269609	0.133731	-0.871968
61792		5.526121	-0.212219	8.000041	-0.004244	-0.007779	-0.000357	-0.639648	-0.458252	-0.137939	-0.386246	-0.269765	0.133749	-0.871867
61793		5.546377	-0.222663	7.987470	-0.002304	-0.008835	-0.000047	-0.640625	-0.465576	-0.145508	-0.386082	-0.269870	0.133805	-0.871899
61794		5.538910	-0.240729	7.995579	-0.002324	-0.005466	-0.001847	-0.639893	-0.465820	-0.142334	-0.386132	-0.269836	0.133854	-0.871879
61795		5.533942	-0.212374	7.960930	-0.000699	-0.003365	-0.000889	-0.640625	-0.466553	-0.142334	-0.386160	-0.269834	0.133863	-0.871866
61796		5.533360	-0.218746	7.989150	-0.000643	-0.002105	0.000814	-0.647461	-0.462158	-0.140137	-0.386184	-0.269816	0.133872	-0.871860
61797		5.541662	-0.234673	7.965845	0.001277	0.000210	-0.000678	-0.645508	-0.463867	-0.129883	-0.386118	-0.269810	0.133883	-0.871889
61798		5.532448	-0.224620	8.017614	0.000986	-0.000421	-0.000611	-0.640869	-0.464111	-0.133057	-0.386039	-0.269961	0.133847	-0.871883
61799		5.539816	-0.223791	7.994448	-0.001746	-0.003786	0.000402	-0.632080	-0.468018	-0.145752	-0.385980	-0.270085	0.133847	-0.871871
61800		5.541650	-0.241039	7.993671	-0.000704	-0.002948	0.001494	-0.636475	-0.461426	-0.153809	-0.386051	-0.270024	0.133825	-0.871862
61801		5.543129	-0.234667	7.964825	0.001742	-0.000631	-0.001835	-0.639404	-0.462402	-0.137695	-0.386071	-0.269828	0.133826	-0.871913
61802		5.530947	-0.224921	8.003034	-0.001601	-0.001054	0.002276	-0.636230	-0.459473	-0.145996	-0.385983	-0.269851	0.133829	-0.871944
61803		5.528134	-0.225332	7.989355	-0.000643	-0.002105	0.000814	-0.633057	-0.460938	-0.145020	-0.385910	-0.269768	0.133846	-0.872000
61804		5.528507	-0.225559	7.989091	-0.000122	-0.001686	0.001360	-0.646240	-0.458496	-0.141846	-0.385863	-0.269699	0.133835	-0.872044
61805		5.500275	-0.222299	7.988167	-0.002187	-0.006734	0.000978	-0.633057	-0.466553	-0.144287	-0.385716	-0.269720	0.133919	-0.872090
61806		5.533991	-0.226742	8.000878	-0.003324	-0.008629	0.002098	-0.633057	-0.456543	-0.141357	-0.385765	-0.269731	0.133964	-0.872058
61807		5.538151	-0.232733	7.992119	-0.000652	-0.006106	0.001764	-0.634277	-0.460205	-0.139160	-0.385611	-0.269753	0.133974	-0.872117
61808		5.528208	-0.238958	7.979986	0.000554	0.000632	-0.000986	-0.634521	-0.473145	-0.143066	-0.385545	-0.269748	0.133917	-0.872157
61809		5.535433	-0.227011	7.999873	0.003574	0.005046	0.000315	-0.638916	-0.466309	-0.137939	-0.385718	-0.269675	0.133802	-0.872120
61810		5.514280	-0.233564	7.997978	0.001075	0.001052	-0.000440	-0.640137	-0.466797	-0.145752	-0.385717	-0.269697	0.133738	-0.872124
61811		5.532917	-0.215538	8.028975	0.001733	-0.004632	-0.000885	-0.637451	-0.462891	-0.145752	-0.385774	-0.269675	0.133733	-0.872106
61812		5.527261	-0.220633	7.980184	0.000133	-0.005686	0.001392	-0.640137	-0.461182	-0.151367	-0.385753	-0.269646	0.133757	-0.872121
61813		5.513664	-0.227798	8.004285	0.000663	-0.001266	0.000987	-0.640381	-0.457764	-0.140869	-0.385747	-0.269491	0.133792	-0.872166
61814		5.525063	-0.243711	7.994430	0.002199	-0.000638	0.001772	-0.642090	-0.464600	-0.149170	-0.385580	-0.269480	0.133763	-0.872248
61815		5.516929	-0.227270	8.017658	0.003828	0.001046	0.000346	-0.632324	-0.467285	-0.144287	-0.385611	-0.269357	0.133739	-0.872276
61816		5.515255	-0.214783	7.996860	0.004033	-0.000213	-0.002274	-0.641113	-0.460449	-0.145752	-0.385720	-0.269325	0.133646	-0.872252
61817		5.514639	-0.219188	7.975833	0.003395	0.002100	-0.000028	-0.638428	-0.474609	-0.140137	-0.385656	-0.269231	0.133605	-0.872315
61818		5.524992	-0.206968	8.009173	0.004730	0.003570	0.000996	-0.638672	-0.462402	-0.147949	-0.385788	-0.269228	0.133483	-0.872276
61819		5.507608	-0.235473	7.999330	0.003715	0.003361	0.000756	-0.634033	-0.453125	-0.142822	-0.385777	-0.269096	0.133433	-0.872330
61820		5.512942	-0.240221	8.005413	0.004087	0.001464	0.001811	-0.637939	-0.460938	-0.137695	-0.385560	-0.269041	0.133362	-0.872453
61821		5.513082	-0.211097	7.998457	0.004321	0.000835	0.000042	-0.636475	-0.465820	-0.155762	-0.385440	-0.269080	0.133261	-0.872510
61822		5.515714	-0.215800	7.990796	0.002983	-0.000217	0.001401	-0.640869	-0.462646	-0.144043	-0.385575	-0.268882	0.133269	-0.872510
61823		5.513095	-0.210387	7.998467	-0.000554	-0.000632	0.000986	-0.639893	-0.466553	-0.143311	-0.385529	-0.268832	0.133269	-0.872546
61824		5.495451	-0.222891	7.988277	0.000893	-0.001477	0.001601	-0.639648	-0.465576	-0.146484	-0.385537	-0.268813	0.133246	-0.872552
61825		5.499549	-0.217831	8.022526	-0.001517	-0.003998	0.001017	-0.642334	-0.472168	-0.144043	-0.385569	-0.268767	0.133277	-0.872547
61826		5.508994	-0.205837	7.991529	0.000100	-0.005898	0.002926	-0.642334	-0.463867	-0.142822	-0.385646	-0.268791	0.133292	-0.872503
61827		5.500210	-0.230156	8.028431	-0.001405	-0.006314	0.000609	-0.642334	-0.467285	-0.148438	-0.385606	-0.268818	0.133322	-0.872508
61828		5.499686	-0.219020	8.006800	-0.002039	-0.004418	0.000473	-0.637451	-0.463135	-0.140381	-0.385677	-0.268753	0.133373	-0.872489
61829		5.509801	-0.224862	8.025170	-0.001466	-0.007157	0.001290	-0.641357	-0.463135	-0.147705	-0.385616	-0.268817	0.133383	-0.872494
61830		5.507990	-0.225243	8.010798	-0.001635	-0.006103	-0.000003	-0.634766	-0.462158	-0.141846	-0.385619	-0.268776	0.133433	-0.872498
61831		5.521181	-0.207830	8.014301	-0.001344	-0.005472	-0.000070	-0.636963	-0.466064	-0.138184	-0.385583	-0.268803	0.133429	-0.872506
61832		5.504310	-0.220395	8.003584	-0.000531	-0.004421	0.000407	-0.638184	-0.467529	-0.148682	-0.385566	-0.268875	0.133396	-0.872497
61833		5.512531	-0.214285	8.001279	0.000483	-0.004213	0.000647	-0.636963	-0.468506	-0.148682	-0.385652	-0.268816	0.133407	-0.872475
61834		5.501964	-0.203618	7.989084	-0.000420	-0.006738	-0.000001	-0.647461	-0.457275	-0.145020	-0.385762	-0.268784	0.133432	-0.872433
61835		5.507651	-0.220632	8.001279	0.000042	-0.007162	0.001225	-0.636963	-0.455566	-0.148926	-0.385601	-0.268786	0.133481	-0.872496
61836		5.514743	-0.226195	8.006124	-0.001345	-0.005473	-0.000069	-0.642334	-0.466309	-0.146729	-0.385508	-0.268713	0.133522	-0.872553
61837		5.517177	-0.214658	7.998066	0.001036	-0.003582	-0.000339	-0.640137	-0.464844	-0.149414	-0.385552	-0.268678	0.133521	-0.872545
61838		5.514695	-0.214859	7.984152	-0.001980	-0.003158	0.002177	-0.652100	-0.463867	-0.151123	-0.385588	-0.268583	0.133568	-0.872551
61839		5.512716	-0.233058	8.019765	-0.000442	-0.002949	0.000579	-0.638428	-0.469238	-0.146484	-0.385593	-0.268476	0.133633	-0.872571
61840		5.510816	-0.204877	7.998571	-0.000883	-0.005897	0.001157	-0.632080	-0.466797	-0.147949	-0.385683	-0.268465	0.133653	-0.872532
61841		5.514562	-0.233616	8.018480	-0.000502	-0.003792	0.001259	-0.634277	-0.468262	-0.144043	-0.385763	-0.268412	0.133650	-0.872513
61842		5.520727	-0.215974	7.995581	0.000954	-0.000635	0.000920	-0.641602	-0.465332	-0.145264	-0.385835	-0.268382	0.133602	-0.872498
61843		5.513621	-0.221984	7.997129	0.000895	-0.001896	-0.000782	-0.634521	-0.463379	-0.140625	-0.385861	-0.268349	0.133582	-0.872500
61844		5.511325	-0.216298	8.004606	0.002141	-0.001900	0.000070	-0.632568	-0.459717	-0.144287	-0.385821	-0.268375	0.133510	-0.872520
61845		5.519127	-0.209728	8.002592	0.001850	-0.002531	0.000138	-0.635010	-0.467285	-0.147217	-0.385752	-0.268357	0.133456	-0.872564
61846		5.490492	-0.228768	8.030437	0.001478	-0.000633	-0.000918	-0.633057	-0.468262	-0.145508	-0.385848	-0.268294	0.133414	-0.872548
61847		5.510692	-0.226732	8.011457	0.001216	-0.000634	0.000001	-0.632324	-0.461670	-0.144043	-0.385942	-0.268250	0.133365	-0.872528
61848		5.501110	-0.199070	8.013712	0.000231	-0.000212	0.000613	-0.634766	-0.458740	-0.145752	-0.385906	-0.268205	0.133317	-0.872564
61849		5.515645	-0.214990	8.017286	0.001648	-0.001689	0.000376	-0.636230	-0.468750	-0.143799	-0.385821	-0.268160	0.133274	-0.872622
61850		5.499586	-0.215577	7.999652	0.000925	-0.001266	0.000069	-0.638428	-0.456055	-0.145020	-0.385898	-0.268144	0.133231	-0.872600
61851		5.501717	-0.198346	8.013314	0.003999	-0.000010	0.001636	-0.635254	-0.470215	-0.144531	-0.385726	-0.268096	0.133162	-0.872701
61852		5.507548	-0.203189	8.019045	0.002753	-0.000007	0.000784	-0.635010	-0.466553	-0.146729	-0.385825	-0.268068	0.133097	-0.872676
61853		5.494127	-0.231983	8.022112	0.002663	-0.001481	0.000615	-0.645508	-0.462891	-0.142090	-0.385879	-0.268025	0.133049	-0.872673
61854		5.502151	-0.197097	8.013047	0.001156	-0.001478	0.000682	-0.633545	-0.470459	-0.145020	-0.385792	-0.268025	0.133016	-0.872716
61855		5.513524	-0.212847	8.003183	0.002231	-0.000426	0.000240	-0.640381	-0.469727	-0.144531	-0.385909	-0.267994	0.132955	-0.872684
61856		5.503635	-0.213403	8.012544	0.001678	-0.001058	0.001227	-0.644531	-0.469238	-0.146973	-0.385971	-0.267971	0.132919	-0.872669
61857		5.489483	-0.220209	8.037116	0.002261	0.000205	0.001090	-0.636230	-0.462158	-0.145264	-0.386033	-0.267909	0.132890	-0.872665
61858		5.518915	-0.195433	8.030223	-0.000030	-0.000212	0.001532	-0.635498	-0.465576	-0.151855	-0.385986	-0.267851	0.132860	-0.872708
61859		5.487857	-0.208570	8.016226	0.001507	-0.000003	-0.000067	-0.642334	-0.464111	-0.152588	-0.386064	-0.267733	0.132835	-0.872713
61860		5.489441	-0.197093	8.008743	-0.000814	-0.000632	0.001906	-0.639404	-0.467773	-0.151367	-0.386085	-0.267598	0.132863	-0.872741
61861		5.499851	-0.219753	8.027424	-0.000905	-0.002107	0.001737	-0.645020	-0.472168	-0.144775	-0.386168	-0.267499	0.132888	-0.872731
61862		5.478583	-0.210241	8.025138	-0.000412	-0.002318	0.001431	-0.636963	-0.466309	-0.148682	-0.386272	-0.267483	0.132896	-0.872689
61863		5.496586	-0.203314	8.013539	0.000020	-0.003791	-0.000576	-0.635986	-0.471191	-0.143799	-0.386329	-0.267442	0.132889	-0.872677
61864		5.486129	-0.215953	8.029676	-0.002713	-0.007157	0.000446	-0.635986	-0.461670	-0.145996	-0.386436	-0.267482	0.132915	-0.872614
61865		5.499198	-0.204077	8.011727	-0.001266	-0.008004	0.001060	-0.628662	-0.463623	-0.147949	-0.386368	-0.267503	0.132929	-0.872635
61866		5.504731	-0.221251	8.024037	0.000221	-0.004216	0.001569	-0.638184	-0.462646	-0.145996	-0.386355	-0.267472	0.132901	-0.872655
61867		5.491206	-0.205425	8.019777	-0.001256	-0.004000	0.000105	-0.640137	-0.466064	-0.148438	-0.386322	-0.267451	0.132900	-0.872676
61868		5.500319	-0.216459	8.017332	-0.000904	-0.002107	0.001737	-0.638428	-0.468506	-0.144287	-0.386348	-0.267385	0.132910	-0.872683
61869		5.469029	-0.207765	8.024524	-0.001397	-0.002314	-0.000339	-0.633057	-0.468018	-0.143066	-0.386418	-0.267371	0.132900	-0.872658
61870		5.503526	-0.200318	8.030237	-0.002332	-0.005052	0.000548	-0.637695	-0.463867	-0.146973	-0.386465	-0.267395	0.132897	-0.872630
61871		5.498947	-0.195732	8.023645	-0.003759	-0.007580	0.001742	-0.643066	-0.468506	-0.148438	-0.386443	-0.267390	0.132949	-0.872633
61872		5.495529	-0.208126	8.016746	-0.002361	-0.005266	0.002081	-0.633789	-0.468262	-0.146240	-0.386504	-0.267354	0.133000	-0.872610
61873		5.489134	-0.214768	8.017805	-0.000533	-0.004425	0.000412	-0.629639	-0.464844	-0.146484	-0.386569	-0.267347	0.132988	-0.872585
61874		5.489934	-0.214812	8.017256	0.000773	-0.003585	0.000581	-0.635986	-0.469727	-0.146973	-0.386571	-0.267333	0.132944	-0.872595
61875		5.494081	-0.215071	8.030029	-0.000914	-0.006114	0.002695	-0.638184	-0.456055	-0.152100	-0.386638	-0.267332	0.132964	-0.872563
61876		5.484776	-0.221536	8.017470	0.000099	-0.006324	0.000550	-0.632568	-0.478271	-0.140137	-0.386498	-0.267276	0.132968	-0.872641
61877		5.494848	-0.204086	8.007467	-0.001377	-0.005690	0.001470	-0.642090	-0.463623	-0.145996	-0.386696	-0.267351	0.132964	-0.872531
61878		5.491601	-0.210643	8.021999	-0.000734	-0.003582	0.000650	-0.636475	-0.464355	-0.153564	-0.386667	-0.267327	0.132965	-0.872551
61879		5.490714	-0.222543	8.028999	-0.001195	-0.002740	0.001807	-0.639160	-0.465576	-0.143311	-0.386687	-0.267218	0.132985	-0.872572
61880		5.485642	-0.217634	8.022757	-0.001086	-0.005058	0.001401	-0.641846	-0.465576	-0.147949	-0.386671	-0.267240	0.132984	-0.872573
61881		5.494184	-0.211613	8.020205	-0.000164	-0.006743	-0.000913	-0.633301	-0.468506	-0.144287	-0.386700	-0.267240	0.132998	-0.872558
61882		5.506136	-0.205624	8.030939	-0.002455	-0.007161	-0.000467	-0.643799	-0.457520	-0.142578	-0.386765	-0.267276	0.133009	-0.872517
61883		5.483513	-0.212902	8.014499	0.000221	-0.004219	0.001570	-0.642090	-0.462646	-0.149170	-0.386592	-0.267291	0.132985	-0.872592
61884		5.500271	-0.217533	8.010095	0.000190	-0.004850	0.000720	-0.641113	-0.474365	-0.144775	-0.386562	-0.267254	0.132992	-0.872616
61885		5.494371	-0.218493	8.032386	-0.000766	-0.004214	-0.000199	-0.641846	-0.466309	-0.147461	-0.386722	-0.267262	0.132999	-0.872541
61886		5.497575	-0.200807	7.995826	0.000049	-0.003163	0.000276	-0.635986	-0.463135	-0.146484	-0.386756	-0.267227	0.132996	-0.872538
61887		5.501433	-0.200698	8.008813	0.000801	-0.003374	-0.000950	-0.632080	-0.463867	-0.145264	-0.386734	-0.267210	0.132956	-0.872558
61888		5.498060	-0.206926	8.023455	-0.000794	-0.004428	0.001334	-0.639893	-0.471680	-0.147949	-0.386697	-0.267209	0.132933	-0.872579
61889		5.500410	-0.195603	8.015432	-0.000998	-0.004002	-0.000811	-0.639404	-0.454346	-0.150879	-0.386836	-0.267182	0.132945	-0.872524
61890		5.500929	-0.224402	8.021952	-0.002825	-0.004845	0.000860	-0.639404	-0.466309	-0.146240	-0.386672	-0.267110	0.132967	-0.872615
61891		5.500842	-0.207798	8.021525	0.001637	-0.005699	0.001332	-0.640381	-0.464111	-0.151855	-0.386674	-0.267124	0.132949	-0.872613
61892		5.495285	-0.207828	7.994066	-0.001690	-0.002948	-0.000266	-0.640869	-0.459717	-0.141602	-0.386706	-0.267037	0.132970	-0.872622
61893		5.500835	-0.219599	8.027931	0.000281	-0.003376	0.000889	-0.645752	-0.465088	-0.147461	-0.386581	-0.267058	0.132928	-0.872677
61894		5.492865	-0.208973	8.029621	0.000373	-0.001901	0.001057	-0.636963	-0.457520	-0.135986	-0.386585	-0.267008	0.132923	-0.872691
61895		5.479649	-0.215031	8.004119	0.001265	-0.003799	0.000275	-0.636963	-0.459717	-0.152344	-0.386390	-0.267094	0.132833	-0.872765
61896		5.482719	-0.198083	8.017177	-0.000134	-0.006115	-0.000060	-0.639160	-0.461670	-0.142578	-0.386356	-0.267041	0.132844	-0.872795
61897		5.490997	-0.220457	8.021679	-0.000685	-0.006749	0.000929	-0.636719	-0.462646	-0.151855	-0.386268	-0.267087	0.132830	-0.872822
61898		5.501430	-0.197487	8.032978	0.000308	-0.003163	-0.000643	-0.640625	-0.464844	-0.141113	-0.386293	-0.267013	0.132823	-0.872835
61899		5.493936	-0.208814	8.013257	0.000924	-0.001268	0.000068	-0.639648	-0.467773	-0.138428	-0.386254	-0.267025	0.132761	-0.872858
61900		5.486853	-0.214835	8.014826	0.001156	-0.001480	0.000681	-0.640381	-0.468750	-0.143799	-0.386230	-0.267069	0.132688	-0.872866
61901		5.477348	-0.215464	8.023995	0.000800	-0.003375	-0.000950	-0.641113	-0.459961	-0.147217	-0.386276	-0.267083	0.132649	-0.872847
61902		5.489782	-0.225861	8.034886	0.002512	-0.003804	0.001124	-0.644531	-0.462646	-0.146729	-0.386194	-0.267063	0.132611	-0.872895
61903		5.500814	-0.196183	8.017794	0.001583	-0.002954	-0.001326	-0.644531	-0.459961	-0.147949	-0.386176	-0.267039	0.132578	-0.872915
61904		5.479278	-0.214364	8.022707	0.001356	-0.002324	0.000444	-0.642822	-0.464600	-0.142822	-0.386114	-0.266990	0.132554	-0.872961
61905		5.485876	-0.190981	8.020999	0.002663	-0.001484	0.000610	-0.643799	-0.460205	-0.153320	-0.386072	-0.266992	0.132487	-0.872989
61906		5.480057	-0.213788	8.022190	0.000341	-0.002532	0.000208	-0.643066	-0.465332	-0.140381	-0.386068	-0.266891	0.132499	-0.873020
61907		5.495341	-0.201336	8.018285	0.000308	-0.003164	-0.000642	-0.641357	-0.469482	-0.152832	-0.386036	-0.266927	0.132450	-0.873031
61908		5.478016	-0.213526	8.007957	0.001064	-0.002957	0.000514	-0.635498	-0.471924	-0.143066	-0.386145	-0.266852	0.132455	-0.873005
61909		5.486582	-0.201728	8.026957	0.001815	-0.003167	-0.000713	-0.641602	-0.470703	-0.146240	-0.386222	-0.266882	0.132392	-0.872971
61910		5.490383	-0.201429	8.040002	0.001589	-0.002537	0.001057	-0.636963	-0.461426	-0.155518	-0.386289	-0.266867	0.132362	-0.872951
61911		5.484571	-0.201393	8.012704	0.000978	-0.004015	0.002729	-0.631104	-0.466553	-0.149414	-0.386274	-0.266769	0.132374	-0.872986
61912		5.495309	-0.200607	8.002682	0.000773	-0.003589	0.000584	-0.640869	-0.456299	-0.153076	-0.386309	-0.266736	0.132342	-0.872985
61913		5.479247	-0.202278	8.034658	0.000049	-0.003165	0.000278	-0.637451	-0.457520	-0.151123	-0.386235	-0.266645	0.132343	-0.873046
61914		5.484017	-0.218924	8.047522	0.002955	-0.000852	0.000540	-0.643066	-0.460693	-0.145508	-0.386157	-0.266564	0.132286	-0.873113
61915		5.480049	-0.201563	8.034129	0.002804	-0.003173	0.001055	-0.632812	-0.468018	-0.149414	-0.386073	-0.266558	0.132232	-0.873160
61916		5.480684	-0.201279	8.033703	0.000308	-0.003164	-0.000641	-0.637939	-0.468262	-0.146729	-0.386153	-0.266522	0.132208	-0.873140
61917		5.470667	-0.207189	8.021657	0.001847	-0.002537	0.000137	-0.632812	-0.468994	-0.153076	-0.386200	-0.266507	0.132163	-0.873130
61918		5.489980	-0.211308	8.031110	0.002523	0.000204	0.000164	-0.638672	-0.467041	-0.147705	-0.386307	-0.266413	0.132119	-0.873118
61919		5.474262	-0.206475	8.034857	0.001156	-0.001481	0.000681	-0.637695	-0.455078	-0.151123	-0.386340	-0.266373	0.132083	-0.873121
61920		5.486748	-0.188692	8.038795	0.000340	-0.002533	0.000209	-0.635254	-0.464111	-0.146240	-0.386227	-0.266299	0.132054	-0.873199
61921		5.475108	-0.206312	8.034285	0.000632	-0.001901	0.000139	-0.633301	-0.466797	-0.147705	-0.386214	-0.266275	0.132006	-0.873219
61922		5.488876	-0.205400	8.037828	0.000773	-0.003590	0.000585	-0.639160	-0.459473	-0.144043	-0.386245	-0.266260	0.131973	-0.873215
61923		5.486355	-0.204999	8.023922	0.003787	-0.003598	0.000442	-0.632812	-0.465576	-0.140869	-0.386128	-0.266281	0.131889	-0.873272
61924		5.472560	-0.211481	8.048439	0.001799	0.000628	-0.000142	-0.644287	-0.466797	-0.141602	-0.386098	-0.266285	0.131788	-0.873300
61925		5.468316	-0.194261	8.035223	0.000891	-0.001900	-0.000781	-0.636719	-0.469238	-0.139404	-0.386084	-0.266303	0.131729	-0.873309
61926		5.468739	-0.194101	8.034939	0.001097	-0.002326	0.001365	-0.635742	-0.459473	-0.141357	-0.386066	-0.266348	0.131657	-0.873315
61927		5.474635	-0.204924	8.019007	-0.001026	-0.004218	0.000727	-0.636230	-0.467285	-0.144775	-0.385948	-0.266375	0.131612	-0.873365
61928		5.470298	-0.194577	8.033866	-0.001318	-0.004851	0.000798	-0.641113	-0.458740	-0.146729	-0.385958	-0.266386	0.131600	-0.873359
61929		5.479648	-0.205600	8.031208	-0.000502	-0.003799	0.001270	-0.639648	-0.463623	-0.144287	-0.385867	-0.266360	0.131585	-0.873410
61930		5.481576	-0.194173	8.023452	0.000957	-0.000637	0.000918	-0.632324	-0.461426	-0.145508	-0.385821	-0.266335	0.131527	-0.873446
61931		5.474954	-0.195000	8.046320	-0.000524	-0.000420	-0.000542	-0.637207	-0.467529	-0.151611	-0.385794	-0.266291	0.131474	-0.873479
61932		5.481808	-0.194067	8.023295	0.001448	-0.000849	0.000611	-0.640869	-0.462891	-0.151855	-0.385867	-0.266214	0.131448	-0.873475
61933		5.474704	-0.199932	8.024905	0.002896	-0.001698	0.001222	-0.641113	-0.461914	-0.147949	-0.385865	-0.266144	0.131413	-0.873502
61934		5.466829	-0.189041	8.026557	0.000713	-0.004435	0.001269	-0.637207	-0.464111	-0.149414	-0.385817	-0.266126	0.131395	-0.873532
61935		5.460189	-0.195229	8.027845	0.000573	-0.002746	0.000822	-0.635986	-0.469482	-0.141846	-0.385824	-0.266082	0.131373	-0.873545
61936		5.460843	-0.195276	8.027399	-0.000244	-0.003798	0.000351	-0.632324	-0.468018	-0.149170	-0.385836	-0.266118	0.131327	-0.873536
61937		5.472632	-0.189676	8.038227	-0.004285	-0.008009	0.001224	-0.633057	-0.456787	-0.145508	-0.385899	-0.266116	0.131381	-0.873501
61938		5.477618	-0.212580	8.029329	-0.000794	-0.004432	0.001341	-0.634033	-0.463623	-0.145020	-0.385782	-0.266108	0.131350	-0.873559
61939		5.468555	-0.213526	8.038232	0.001204	-0.004648	0.000962	-0.638184	-0.467285	-0.141113	-0.385744	-0.266125	0.131305	-0.873578
61940		5.472328	-0.190510	8.022774	-0.000968	-0.003374	0.000046	-0.641846	-0.470947	-0.142090	-0.385722	-0.266156	0.131260	-0.873585
61941		5.472381	-0.196786	8.050787	0.000155	-0.005488	-0.000122	-0.638428	-0.468262	-0.143311	-0.385736	-0.266211	0.131223	-0.873567
61942		5.456145	-0.203969	8.061354	-0.001844	-0.005272	0.000258	-0.635254	-0.468994	-0.143066	-0.385742	-0.266239	0.131210	-0.873558
61943		5.484655	-0.196558	8.039673	-0.001703	-0.006962	0.000705	-0.635498	-0.463379	-0.150146	-0.385752	-0.266290	0.131201	-0.873539
61944		5.464599	-0.209215	8.015585	-0.000070	-0.004858	0.001648	-0.640869	-0.459717	-0.149658	-0.385752	-0.266255	0.131202	-0.873550
61945		5.463600	-0.198832	8.043845	-0.001552	-0.004640	0.000188	-0.635010	-0.466064	-0.141846	-0.385717	-0.266212	0.131213	-0.873577
61946		5.475532	-0.215093	8.033439	-0.000244	-0.003800	0.000352	-0.630859	-0.464111	-0.145020	-0.385689	-0.266242	0.131164	-0.873587
61947		5.476674	-0.215396	8.032653	-0.001995	-0.007596	0.000777	-0.635742	-0.453613	-0.146240	-0.385675	-0.266275	0.131165	-0.873583
61948		5.479672	-0.204371	8.024148	-0.001996	-0.007596	0.000777	-0.641357	-0.473633	-0.152588	-0.385545	-0.266283	0.131172	-0.873637
61949		5.462675	-0.194887	8.034778	-0.000688	-0.006756	0.000941	-0.636475	-0.462891	-0.146240	-0.385670	-0.266261	0.131209	-0.873584
61950		5.473919	-0.194200	8.024358	-0.000138	-0.006123	-0.000050	-0.637939	-0.464111	-0.154785	-0.385645	-0.266275	0.131191	-0.873593
61951		5.471054	-0.200549	8.038735	-0.001879	-0.005906	-0.000589	-0.634277	-0.467285	-0.149658	-0.385722	-0.266210	0.131237	-0.873572
61952		5.478248	-0.206363	8.043492	-0.002720	-0.007173	0.000474	-0.640869	-0.461182	-0.146729	-0.385784	-0.266200	0.131273	-0.873542
61953		5.486226	-0.206055	8.019626	-0.002136	-0.005908	0.000332	-0.642334	-0.466309	-0.156982	-0.385734	-0.266196	0.131281	-0.873564
61954		5.471644	-0.202035	8.022644	-0.002428	-0.006541	0.000404	-0.642822	-0.468994	-0.146484	-0.385830	-0.266119	0.131353	-0.873534
61955		5.486859	-0.196359	8.046788	-0.001412	-0.006333	0.000637	-0.644043	-0.463379	-0.141846	-0.385860	-0.266133	0.131365	-0.873515
61956		5.479808	-0.208224	8.026725	-0.001985	-0.003585	-0.000185	-0.639893	-0.459473	-0.144043	-0.385802	-0.266146	0.131340	-0.873541
61957		5.477469	-0.208626	8.012651	-0.002137	-0.005909	0.000333	-0.639160	-0.467285	-0.147949	-0.385714	-0.266161	0.131333	-0.873576
61958		5.468100	-0.187395	8.042989	0.000503	-0.004013	-0.000876	-0.639404	-0.458740	-0.154297	-0.385757	-0.266149	0.131309	-0.873564
61959		5.476913	-0.203399	8.019013	-0.001155	-0.006333	-0.000282	-0.639160	-0.469238	-0.150146	-0.385755	-0.266092	0.131340	-0.873578
61960		5.476132	-0.192852	8.047182	-0.000046	-0.004647	0.000116	-0.643066	-0.462891	-0.147461	-0.385828	-0.266068	0.131341	-0.873553
61961		5.480906	-0.215003	8.038400	0.000877	-0.005918	0.000184	-0.636963	-0.465820	-0.150635	-0.385795	-0.266074	0.131323	-0.873568
61962		5.491570	-0.213827	8.028359	0.001437	-0.001268	-0.001773	-0.636230	-0.462891	-0.151611	-0.385859	-0.266016	0.131282	-0.873564
61963		5.474462	-0.191517	8.032694	0.005221	0.002946	-0.001736	-0.640381	-0.454590	-0.143311	-0.385890	-0.265921	0.131180	-0.873594
61964		5.481392	-0.184251	8.031206	0.004848	0.001253	0.000553	-0.636475	-0.460449	-0.147705	-0.385719	-0.265893	0.131050	-0.873698
61965		5.478743	-0.177869	8.039027	0.005736	-0.000650	-0.000228	-0.640381	-0.471924	-0.150146	-0.385668	-0.265864	0.130944	-0.873745
61966		5.466276	-0.222558	8.042082	0.008586	0.000819	0.000708	-0.641357	-0.462891	-0.150391	-0.385739	-0.265826	0.130829	-0.873743
61967		5.500879	-0.200611	8.041068	0.013735	0.006094	-0.006074	-0.638916	-0.472412	-0.145508	-0.385775	-0.265753	0.130603	-0.873782
61968		5.498606	-0.201594	8.021089	0.020263	0.009876	-0.007644	-0.634033	-0.472412	-0.148438	-0.385882	-0.265723	0.130266	-0.873795
61969		5.473438	-0.163460	8.042945	0.027242	0.020624	-0.010770	-0.636475	-0.469727	-0.143799	-0.386046	-0.265592	0.129801	-0.873831
61970		5.462549	-0.179741	8.047806	0.026337	0.026319	-0.009419	-0.628174	-0.466309	-0.149414	-0.386134	-0.265424	0.129301	-0.873917
61971		5.462241	-0.161761	8.057302	0.026685	0.024196	-0.006815	-0.632324	-0.468750	-0.146240	-0.386195	-0.265235	0.128828	-0.874018
61972		5.493431	-0.130610	8.030569	0.022172	0.024625	-0.004210	-0.625977	-0.470215	-0.140869	-0.386241	-0.265040	0.128403	-0.874119
61973		5.463770	-0.183040	8.054815	0.030769	0.033450	-0.005414	-0.634766	-0.471680	-0.149902	-0.386269	-0.264838	0.127810	-0.874255
61974		5.425889	-0.116371	8.080714	0.031065	0.026261	-0.005063	-0.631592	-0.464600	-0.148438	-0.386346	-0.264646	0.127298	-0.874353
61975		5.441439	-0.130510	8.043768	0.029321	0.022885	-0.002244	-0.636230	-0.468262	-0.150146	-0.386298	-0.264484	0.126811	-0.874495
61976		5.419193	-0.081498	8.072317	0.022316	0.023753	0.001031	-0.634766	-0.470459	-0.155273	-0.386286	-0.264264	0.126424	-0.874622
61977		5.392944	-0.147221	8.066753	0.016517	0.019982	0.005277	-0.629395	-0.466064	-0.147705	-0.386302	-0.264016	0.126154	-0.874729
61978		5.271197	-0.171620	8.182579	0.004601	0.009259	-0.000455	-0.632812	-0.462158	-0.149658	-0.386302	-0.263893	0.126004	-0.874788
61979		5.326433	-0.189915	8.126247	-0.007951	-0.023602	-0.005938	-0.632568	-0.469727	-0.164307	-0.386310	-0.264058	0.126135	-0.874716
61980		5.458428	-0.017657	8.020566	-0.012840	-0.021263	-0.004415	-0.635742	-0.471680	-0.156250	-0.386518	-0.264070	0.126389	-0.874584
61981		5.292013	0.252503	8.204683	-0.059265	-0.066799	0.039740	-0.638184	-0.472656	-0.149170	-0.386287	-0.264346	0.127487	-0.874443
61982		5.053801	-0.169536	8.354867	-0.108123	-0.153492	0.060108	-0.640381	-0.469727	-0.148193	-0.385834	-0.265349	0.129580	-0.874031
61983		5.536293	-0.530604	7.788695	-0.143162	-0.148776	0.040477	-0.646729	-0.463623	-0.147949	-0.385696	-0.266159	0.131964	-0.873489
61984		6.083292	-0.328694	7.279467	-0.073521	0.098118	0.002612	-0.626953	-0.463379	-0.145752	-0.386083	-0.264659	0.132272	-0.873728
61985		4.770263	-0.456806	8.510423	-0.023576	0.150329	-0.019316	-0.635254	-0.466309	-0.146729	-0.386605	-0.262913	0.131671	-0.874115
61986		4.770814	-0.591155	8.397354	-0.068947	-0.092794	-0.118465	-0.630859	-0.465576	-0.151123	-0.387984	-0.263773	0.132424	-0.873130
61987		5.783724	0.114039	7.574809	-0.074273	-0.106671	-0.138264	-0.635498	-0.466309	-0.142334	-0.389568	-0.264753	0.133244	-0.872003
61988		5.575313	0.225528	8.077407	-0.055505	-0.013355	-0.018554	-0.633301	-0.460205	-0.149658	-0.389876	-0.264661	0.133776	-0.871812
61989		4.923542	-0.416919	8.989218	-0.071107	-0.399388	0.013977	-0.643799	-0.454102	-0.141846	-0.389189	-0.268590	0.136474	-0.870498
61990		5.139296	0.275754	9.666833	-0.131706	-0.990325	-0.014557	-0.650635	-0.463135	-0.129639	-0.387880	-0.278686	0.142582	-0.866922
61991		3.229608	-0.076155	11.724293	-0.089495	-2.716852	0.059154	-0.673096	-0.459961	-0.070801	-0.382421	-0.307368	0.156782	-0.857146
61992		5.148787	-1.458440	10.247844	0.338521	-4.636364	-0.269851	-0.699951	-0.463867	0.014404	-0.374079	-0.358682	0.173855	-0.837369
61993		7.134816	0.987617	9.564254	0.594752	-5.621756	-0.323814	-0.714111	-0.459717	0.118896	-0.361572	-0.420028	0.191907	-0.809947
61994		17.385707	2.956428	12.990328	-0.601912	-4.676933	0.349586	-0.729004	-0.450928	0.214844	-0.349349	-0.463001	0.220516	-0.784193
61995		14.093862	0.727482	2.857596	-1.452978	-1.542901	0.945709	-0.729248	-0.438232	0.240967	-0.344087	-0.468919	0.246746	-0.775136
61996		13.383314	-0.770496	-1.849369	-0.427990	1.235022	-0.623381	-0.737793	-0.443604	0.221680	-0.356388	-0.456902	0.241772	-0.778315
61997		1.482808	0.883966	-3.530364	0.112268	2.222525	-1.209062	-0.735840	-0.477783	0.172119	-0.374051	-0.439157	0.223676	-0.785619
61998		0.897518	-0.156053	-4.704503	-0.226201	1.493263	-0.794551	-0.727539	-0.484619	0.140625	-0.387191	-0.425511	0.214436	-0.789329
61999		-0.825767	-0.487626	-5.737856	-0.327388	0.525872	-0.147249	-0.728271	-0.491211	0.140137	-0.391795	-0.419078	0.214284	-0.790540
62000		-0.579195	0.597073	-5.830650	-0.637843	-0.991312	0.516295	-0.723389	-0.469238	0.146973	-0.387345	-0.424278	0.228092	-0.786083
62001		1.005470	1.370796	-4.026913	-0.677739	-2.086149	0.588439	-0.735352	-0.475830	0.177002	-0.379077	-0.439614	0.247870	-0.775629
62002		33.722106	-6.155467	14.703425	1.700498	2.613856	-0.098476	-0.721191	-0.474365	0.127930	-0.378524	-0.422280	0.218278	-0.794200
62003		7.835876	-1.669907	15.467079	0.236756	6.551921	0.185622	-0.706299	-0.481201	0.006104	-0.392058	-0.356484	0.185250	-0.827582
62004		1.109641	-4.317145	12.039550	-0.330264	4.875124	-0.016800	-0.678711	-0.480713	-0.082031	-0.404283	-0.303811	0.164381	-0.846896
62005		2.744628	3.460874	13.448389	-0.102424	1.980854	-0.120758	-0.648193	-0.490479	-0.127441	-0.409918	-0.282440	0.154944	-0.853339
62006		5.767931	0.542460	10.441545	-0.016732	-0.130541	0.089330	-0.658936	-0.492920	-0.118896	-0.408776	-0.283523	0.156066	-0.853323
62007		5.276294	0.245872	10.073370	-0.127086	-1.224646	0.118224	-0.675537	-0.482666	-0.092285	-0.405531	-0.295619	0.164027	-0.849264
62008		3.596125	-1.292916	11.956688	0.034327	-3.062808	0.027589	-0.688965	-0.479004	-0.038330	-0.398536	-0.327972	0.179104	-0.837571
62009		4.664542	-1.635255	10.771064	0.520327	-5.460047	-0.379162	-0.715088	-0.486084	0.072021	-0.387216	-0.387697	0.198783	-0.812552
62010		16.064856	3.284940	16.586233	-0.695667	-6.444922	0.067541	-0.734131	-0.482910	0.189941	-0.372632	-0.448223	0.236582	-0.777348
62011		30.053400	-3.899632	0.144943	-2.097403	-1.808794	0.994106	-0.743652	-0.453613	0.215820	-0.369120	-0.452725	0.270661	-0.765201
62012		15.622613	-7.476191	-9.362399	1.981708	1.620089	-0.339183	-0.745605	-0.459961	0.194336	-0.366449	-0.447237	0.242114	-0.779150
62013		1.001471	5.966964	-5.740426	1.140941	1.671926	-0.900672	-0.749756	-0.486084	0.167969	-0.373790	-0.438702	0.218250	-0.787521
62014		0.313803	1.141348	-3.141618	-0.554971	0.781633	-0.660456	-0.738281	-0.503174	0.145996	-0.385456	-0.430144	0.216445	-0.787116
62015		-1.320445	1.607266	-2.972555	-0.624262	0.056276	-0.316413	-0.748047	-0.509766	0.144287	-0.392094	-0.427400	0.220640	-0.784162
62016		-1.269298	1.114843	-3.075680	-0.696714	-1.047537	0.056098	-0.735352	-0.514160	0.153564	-0.392361	-0.434024	0.232910	-0.776807
62017		-0.115410	0.999919	-1.570029	-0.546865	-1.857133	0.112166	-0.740479	-0.521484	0.179932	-0.388749	-0.448901	0.247906	-0.765444
62018		2.089341	2.602302	1.835682	-0.623075	-2.138886	-0.084029	-0.752930	-0.529297	0.208008	-0.386303	-0.466404	0.263731	-0.750788
62019		5.543789	3.848366	6.326925	-1.405858	-1.150244	-0.029969	-0.753906	-0.545166	0.204102	-0.387979	-0.471484	0.280341	-0.740665
62020		20.259812	-15.240589	2.718727	1.729393	2.954782	0.068139	-0.753174	-0.559082	0.153809	-0.384488	-0.452703	0.248516	-0.765160
62021		20.334702	2.911484	19.458521	1.331847	6.756330	-0.205803	-0.742432	-0.574219	0.026855	-0.397632	-0.393719	0.200907	-0.804059
62022		2.750651	-2.457786	13.041337	-0.751861	6.721223	0.124818	-0.706787	-0.580566	-0.115967	-0.415432	-0.320799	0.174968	-0.833001
62023		0.642060	0.503451	15.315571	-0.312785	3.812852	-0.125111	-0.679688	-0.586670	-0.185059	-0.425877	-0.279364	0.157739	-0.845993
62024		2.926844	1.291126	13.729597	0.032113	-0.033821	0.035768	-0.674316	-0.586914	-0.186768	-0.425331	-0.279775	0.157674	-0.846143
62025		4.136615	0.934303	11.738234	0.001829	-2.429391	0.139011	-0.700439	-0.582764	-0.131348	-0.418871	-0.305017	0.170924	-0.838032
62026		3.331103	-3.085008	11.797235	0.291183	-4.567200	-0.206298	-0.721436	-0.577881	-0.042480	-0.409479	-0.354238	0.190630	-0.818842
62027		6.146844	-0.013204	11.621370	0.797597	-6.664268	-0.741185	-0.745850	-0.585449	0.088623	-0.396209	-0.426887	0.212496	-0.784622
62028		26.989748	5.770007	20.284201	-1.770987	-6.272099	0.544475	-0.758789	-0.550781	0.206787	-0.382145	-0.476712	0.262819	-0.746751
62029		21.075849	-8.399856	-0.408716	-1.149438	-1.778888	1.214981	-0.750732	-0.518311	0.251465	-0.370561	-0.483967	0.288291	-0.738477
62030		11.302745	-5.866081	-2.910826	3.046515	1.587301	0.184951	-0.758301	-0.503174	0.248291	-0.354277	-0.482765	0.252589	-0.760016
62031		-5.056715	7.682193	3.503559	1.452686	1.246256	0.405155	-0.760498	-0.491699	0.240723	-0.344459	-0.476198	0.234941	-0.774200
62032		-4.364721	5.502900	4.117547	-0.723259	1.327374	0.175910	-0.767822	-0.482910	0.213135	-0.350322	-0.459751	0.236790	-0.780918
62033		-2.390543	1.625302	-0.481445	-1.756211	0.926833	-0.012565	-0.758545	-0.475342	0.185547	-0.362542	-0.443043	0.249235	-0.781126
62034		-1.579376	-3.020827	-6.317909	-1.791935	0.085926	-0.056630	-0.754150	-0.469727	0.182129	-0.373186	-0.434084	0.265826	-0.775654
62035		2.522794	-3.782411	-5.549499	-1.471496	-1.318922	0.555301	-0.769287	-0.464355	0.192627	-0.371281	-0.437962	0.289063	-0.766017
62036		4.263206	-2.187543	-4.261849	-0.453596	-1.461754	1.044060	-0.772217	-0.443115	0.221680	-0.358397	-0.445911	0.305760	-0.761069
62037		5.564666	0.841723	-2.954662	0.243320	-1.189287	0.915810	-0.769531	-0.422607	0.234863	-0.343735	-0.454688	0.313785	-0.759371
62038		3.391197	2.858912	-2.089662	0.122661	-0.381367	0.668274	-0.764648	-0.403320	0.232178	-0.335203	-0.456151	0.318022	-0.760544
62039		41.726294	-17.084115	-12.677742	2.920558	0.911345	-1.058574	-0.763184	-0.436523	0.210449	-0.331985	-0.463518	0.280134	-0.772309
62040		17.472361	5.229586	21.771316	2.452730	8.962177	-1.207239	-0.735596	-0.466553	0.051758	-0.358534	-0.388387	0.210639	-0.822338
62041		-4.878821	1.100019	13.261032	-0.061875	6.956002	-0.430524	-0.693604	-0.484131	-0.087891	-0.380235	-0.316340	0.177316	-0.850828
62042		7.292789	1.210537	12.196535	-0.071971	4.424863	-0.273142	-0.661133	-0.504883	-0.171875	-0.392670	-0.269047	0.155718	-0.865549
62043		-1.046553	1.836207	17.585502	-0.062286	0.600584	0.022399	-0.656982	-0.500732	-0.173096	-0.393817	-0.262153	0.153509	-0.867536
62044		8.596413	-0.279236	4.559133	-0.468174	-0.590154	0.058999	-0.661133	-0.490723	-0.169678	-0.393561	-0.266066	0.161623	-0.864984
62045		7.235597	-1.511672	6.778577	0.019118	0.794040	-0.023114	-0.656982	-0.497559	-0.185791	-0.395338	-0.257559	0.157385	-0.867526
62046		4.642602	-0.903270	9.176417	-0.038703	0.576986	0.028521	-0.651367	-0.494629	-0.198730	-0.396289	-0.251001	0.155011	-0.869439
62047		3.469191	-1.764437	6.423898	0.069285	-0.060704	0.077216	-0.651367	-0.495850	-0.189209	-0.395123	-0.251805	0.154767	-0.869781
62048		5.549538	-0.020807	7.280018	0.627568	-0.328384	-0.312173	-0.643311	-0.504639	-0.182373	-0.395898	-0.259016	0.148544	-0.868395
62049		6.230767	0.947042	9.000000	0.324412	-0.063823	-0.051444	-0.651123	-0.511719	-0.185791	-0.395293	-0.261359	0.145138	-0.868545
62050		6.039174	-0.401596	8.970493	0.009279	0.006909	0.097185	-0.645508	-0.501953	-0.184570	-0.394226	-0.261103	0.145282	-0.869082
62051		5.126222	-1.219481	7.765294	-0.171832	0.112354	0.153272	-0.654053	-0.499756	-0.187744	-0.393331	-0.258706	0.147057	-0.869906
62052		4.074156	-1.507570	7.089648	0.259356	-0.102707	-0.173401	-0.642090	-0.510010	-0.181152	-0.394193	-0.261365	0.144143	-0.869208
62053		5.351915	-0.116846	9.100601	0.476757	-0.296663	-0.369646	-0.652588	-0.516357	-0.176270	-0.396111	-0.267543	0.139178	-0.867264
62054		6.902113	-0.719499	8.137345	0.161540	-0.133446	-0.205052	-0.644775	-0.522705	-0.169678	-0.397565	-0.270092	0.137362	-0.866097
62055		5.972954	-1.886274	8.138482	0.428346	0.090366	-0.075501	-0.650391	-0.525879	-0.169922	-0.397093	-0.271318	0.131985	-0.866766
62056		4.233818	-0.630401	7.247995	0.843725	0.163136	0.569769	-0.651855	-0.524902	-0.167969	-0.388305	-0.272726	0.123929	-0.871482
62057		4.602585	5.736868	6.820578	0.261516	-0.199771	0.224423	-0.652588	-0.519043	-0.159912	-0.384664	-0.275769	0.122787	-0.872301
62058		6.300434	-0.986052	8.008173	0.001843	-0.011665	0.057844	-0.657715	-0.524902	-0.165283	-0.384010	-0.275763	0.122974	-0.872564
62059		6.138423	-0.171160	7.894677	-0.132249	0.006147	0.200580	-0.653076	-0.520020	-0.162842	-0.382290	-0.274700	0.125036	-0.873362
62060		5.794551	0.164193	8.472660	-0.202257	-0.026813	0.252673	-0.656982	-0.513916	-0.158936	-0.380185	-0.273579	0.128199	-0.874173
62061		5.617024	-0.655172	8.049387	-0.157907	-0.025973	0.178540	-0.658203	-0.509521	-0.164795	-0.378735	-0.272774	0.130616	-0.874696
62062		5.515293	-0.741254	7.923405	-0.077137	0.018461	0.090515	-0.653076	-0.509277	-0.170654	-0.378043	-0.272007	0.131641	-0.875080
62063		5.381944	-0.684252	7.998646	-0.014342	0.066001	0.010153	-0.655518	-0.508057	-0.169678	-0.378095	-0.271150	0.131483	-0.875348
62064		5.545399	0.014303	8.132601	-0.001572	0.063846	-0.015495	-0.652832	-0.505615	-0.168701	-0.378381	-0.270418	0.131110	-0.875507
62065		5.568485	-0.111070	8.141416	-0.030472	-0.010676	0.010710	-0.654053	-0.502930	-0.167480	-0.378355	-0.270322	0.131492	-0.875490
62066		5.589456	-0.225328	7.946072	-0.034542	-0.042023	0.020974	-0.658447	-0.500244	-0.170654	-0.378178	-0.270532	0.132102	-0.875410
62067		5.510907	-0.236468	7.964280	-0.038448	-0.022236	0.011360	-0.656250	-0.512207	-0.173096	-0.378153	-0.270524	0.132628	-0.875344
62068		5.606835	-0.218525	8.043507	-0.038578	-0.031762	0.002252	-0.658936	-0.503662	-0.171387	-0.378211	-0.270634	0.133169	-0.875203
62069		5.617007	-0.293257	7.970783	-0.040854	-0.067009	0.016354	-0.660156	-0.509521	-0.170898	-0.378064	-0.271095	0.133950	-0.875004
62070		5.603973	-0.498796	7.915490	-0.024697	-0.050594	-0.003923	-0.661621	-0.500732	-0.176514	-0.378112	-0.271487	0.134407	-0.874792
62071		5.643837	-0.264811	7.913277	-0.004858	-0.005542	-0.029977	-0.654541	-0.503662	-0.159180	-0.378453	-0.271523	0.134347	-0.874643
62072		5.622818	-0.207108	7.955507	0.010444	-0.002486	-0.025230	-0.660889	-0.511230	-0.174072	-0.378695	-0.271591	0.134122	-0.874551
62073		5.635913	-0.246609	7.950434	0.010737	-0.016212	-0.012587	-0.652832	-0.509766	-0.165039	-0.378775	-0.271789	0.134001	-0.874474
62074		5.632852	-0.287962	7.927947	0.005752	-0.010913	-0.015125	-0.657715	-0.500488	-0.168457	-0.378908	-0.271910	0.133902	-0.874393
62075		5.663446	-0.297702	7.897813	0.007406	0.009145	-0.019397	-0.655518	-0.508789	-0.160156	-0.379117	-0.271826	0.133674	-0.874364
62076		5.622361	-0.235206	7.947457	0.013355	0.025177	-0.022096	-0.655273	-0.509033	-0.162354	-0.379361	-0.271600	0.133297	-0.874386
62077		5.617276	-0.150836	7.959344	0.019005	0.021307	-0.010365	-0.647705	-0.504639	-0.170654	-0.379452	-0.271424	0.132917	-0.874459
62078		5.584524	-0.261630	7.968133	0.019534	0.012549	-0.005709	-0.646973	-0.506104	-0.169189	-0.379475	-0.271338	0.132588	-0.874525
62079		5.596429	-0.216040	7.959436	0.016674	0.011037	-0.006591	-0.649658	-0.507324	-0.162109	-0.379515	-0.271257	0.132294	-0.874578
62080		5.588515	-0.263401	7.969130	0.016474	0.012103	-0.007875	-0.658203	-0.506836	-0.166992	-0.379572	-0.271165	0.131993	-0.874627
62081		5.539937	-0.234755	7.976709	0.013947	0.012088	-0.009515	-0.657715	-0.506836	-0.169922	-0.379655	-0.271063	0.131714	-0.874665
62082		5.580914	-0.193136	7.967117	0.013699	0.011636	-0.005537	-0.655762	-0.505615	-0.169434	-0.379694	-0.270959	0.131454	-0.874719
62083		5.517566	-0.218349	7.992020	0.009889	0.006712	-0.006361	-0.653076	-0.506348	-0.170166	-0.379748	-0.270892	0.131255	-0.874746
62084		5.589056	-0.181742	7.980573	0.003638	0.002604	-0.004084	-0.660400	-0.495850	-0.164307	-0.379790	-0.270837	0.131153	-0.874760
62085		5.558393	-0.239018	7.974294	0.006383	0.006450	-0.002792	-0.654785	-0.506592	-0.165771	-0.379816	-0.270750	0.131006	-0.874798
62086		5.541859	-0.261112	7.986140	0.009469	0.003725	-0.005766	-0.643799	-0.511475	-0.164062	-0.379859	-0.270713	0.130828	-0.874817
62087		5.527833	-0.208889	7.997896	0.009452	-0.000737	-0.007179	-0.646484	-0.506348	-0.171875	-0.379911	-0.270727	0.130667	-0.874815
62088		5.566692	-0.179853	7.980407	0.005334	-0.002036	-0.010416	-0.650391	-0.511230	-0.175293	-0.380010	-0.270740	0.130546	-0.874786
62089		5.566290	-0.211188	7.965661	0.005086	-0.002481	-0.006440	-0.652344	-0.507812	-0.167725	-0.380065	-0.270751	0.130444	-0.874774
62090		5.548031	-0.170812	7.971003	0.009495	0.000115	-0.007859	-0.648193	-0.517090	-0.166992	-0.380125	-0.270757	0.130276	-0.874771
62091		5.567945	-0.179485	8.008262	0.006259	-0.004402	-0.002726	-0.656738	-0.519287	-0.174561	-0.380133	-0.270788	0.130182	-0.874772
62092		5.534762	-0.207819	7.981047	0.006765	0.000290	-0.004683	-0.652588	-0.506836	-0.170410	-0.380168	-0.270774	0.130054	-0.874780
62093		5.544175	-0.182588	7.993118	0.005993	0.000511	-0.008873	-0.645996	-0.512695	-0.163574	-0.380251	-0.270760	0.129919	-0.874768
62094		5.535982	-0.198365	8.002322	0.003380	-0.001213	-0.009153	-0.650391	-0.515869	-0.166260	-0.380344	-0.270753	0.129820	-0.874745
62095		5.540101	-0.167665	8.008377	0.005849	-0.006078	-0.011290	-0.655762	-0.512451	-0.168945	-0.380444	-0.270814	0.129709	-0.874699
62096		5.563865	-0.196688	7.986639	0.004655	-0.009716	-0.008777	-0.647705	-0.503906	-0.176025	-0.380514	-0.270906	0.129637	-0.874650
62097		5.568188	-0.199858	7.977518	0.001197	-0.008248	-0.012000	-0.655518	-0.514893	-0.165283	-0.380634	-0.270970	0.129586	-0.874586
62098		5.560046	-0.171307	7.979253	-0.004143	-0.009798	-0.009104	-0.650146	-0.512939	-0.169678	-0.380738	-0.271021	0.129609	-0.874522
62099		5.571622	-0.170380	7.968130	-0.007073	-0.008991	-0.004163	-0.652588	-0.513184	-0.179443	-0.380799	-0.271041	0.129678	-0.874479
62100		5.569813	-0.198952	7.960537	-0.000873	-0.005954	-0.004233	-0.644531	-0.499268	-0.167480	-0.380844	-0.271058	0.129665	-0.874456
62101		5.564224	-0.121783	7.990908	-0.006945	-0.007302	-0.000101	-0.651123	-0.506104	-0.167480	-0.380863	-0.271054	0.129738	-0.874438
62102		5.549675	-0.229950	7.971823	0.002958	-0.004418	-0.007031	-0.651367	-0.508057	-0.170654	-0.380929	-0.271076	0.129665	-0.874413
62103		5.557666	-0.172608	7.983965	-0.005322	-0.008974	-0.005179	-0.652344	-0.514893	-0.167480	-0.380995	-0.271106	0.129712	-0.874368
62104		5.554818	-0.184453	7.976672	-0.003326	-0.009603	-0.002540	-0.646484	-0.509033	-0.163574	-0.381025	-0.271149	0.129748	-0.874336
62105		5.584058	-0.170930	7.975293	-0.000586	-0.005749	-0.001256	-0.652588	-0.510254	-0.173096	-0.381037	-0.271160	0.129740	-0.874329
62106		5.565382	-0.194760	7.972841	0.003100	0.001521	-0.000037	-0.658447	-0.509521	-0.172119	-0.381036	-0.271107	0.129662	-0.874357
62107		5.547138	-0.184830	7.985112	0.001910	-0.001683	-0.000577	-0.649902	-0.522705	-0.166748	-0.381039	-0.271084	0.129611	-0.874371
62108		5.562109	-0.172275	7.980877	-0.001475	-0.004281	0.002589	-0.648438	-0.512695	-0.167969	-0.381015	-0.271069	0.129618	-0.874384
62109		5.557980	-0.184538	7.974467	-0.003099	-0.001739	0.001564	-0.656006	-0.516846	-0.168945	-0.381012	-0.271019	0.129629	-0.874400
62110		5.566439	-0.167434	7.965058	-0.001749	-0.000456	0.004073	-0.659424	-0.501709	-0.166748	-0.380979	-0.270958	0.129627	-0.874433
62111		5.570425	-0.197447	7.985128	-0.004188	0.000361	0.007174	-0.644775	-0.510010	-0.171143	-0.380920	-0.270872	0.129659	-0.874481
62112		5.550792	-0.172845	7.997909	-0.004031	-0.000906	0.004565	-0.651123	-0.506592	-0.163574	-0.380890	-0.270804	0.129686	-0.874511
62113		5.551520	-0.196386	7.975736	-0.004977	-0.004541	0.006158	-0.657959	-0.510986	-0.166992	-0.380838	-0.270769	0.129746	-0.874536
62114		5.563354	-0.220246	7.993417	-0.004118	-0.002179	0.002876	-0.648682	-0.512207	-0.171631	-0.380822	-0.270718	0.129774	-0.874554
62115		5.559267	-0.192410	7.973384	0.000705	0.002973	0.003908	-0.650879	-0.512207	-0.169434	-0.380789	-0.270631	0.129729	-0.874602
62116		5.548959	-0.193485	7.983642	0.002454	0.003430	-0.000166	-0.655518	-0.504395	-0.168945	-0.380795	-0.270554	0.129648	-0.874635
62117		5.553065	-0.181670	7.990069	0.001680	0.002777	0.001752	-0.653320	-0.510254	-0.167725	-0.380780	-0.270478	0.129586	-0.874675
62118		5.547879	-0.193228	7.984398	0.000618	0.001701	0.002219	-0.651367	-0.510742	-0.172607	-0.380763	-0.270408	0.129542	-0.874710
62119		5.550782	-0.164913	7.991248	0.000905	0.002561	0.000616	-0.653320	-0.513916	-0.171875	-0.380764	-0.270332	0.129486	-0.874741
62120		5.550552	-0.186786	7.969775	0.001882	0.001709	0.003040	-0.655273	-0.514160	-0.172363	-0.380735	-0.270266	0.129431	-0.874783
62121		5.530488	-0.189038	7.989891	0.002097	0.005544	0.002683	-0.657959	-0.513916	-0.177490	-0.380714	-0.270160	0.129355	-0.874836
62122		5.533387	-0.188985	8.003736	0.002125	0.001933	0.000593	-0.649658	-0.510986	-0.167969	-0.380711	-0.270096	0.129289	-0.874867
62123		5.533339	-0.188987	8.003769	-0.000574	-0.001502	0.001679	-0.649170	-0.514404	-0.168213	-0.380698	-0.270056	0.129270	-0.874887
62124		5.537622	-0.182866	7.988024	-0.000833	-0.005973	0.001191	-0.643066	-0.505859	-0.170410	-0.380686	-0.270065	0.129274	-0.874889
62125		5.539942	-0.199997	7.986810	0.000072	-0.003412	0.001807	-0.657471	-0.511963	-0.170898	-0.380668	-0.270049	0.129260	-0.874904
62126		5.536721	-0.178156	7.994823	-0.000416	-0.002987	0.000596	-0.656982	-0.513916	-0.163086	-0.380663	-0.270028	0.129244	-0.874915
62127		5.559220	-0.187802	7.995450	0.000847	-0.002978	0.001416	-0.656738	-0.518311	-0.173584	-0.380644	-0.270013	0.129214	-0.874932
62128		5.535760	-0.195122	7.980030	-0.000991	-0.004270	0.000748	-0.658447	-0.515381	-0.161865	-0.380640	-0.270002	0.129212	-0.874938
62129		5.541172	-0.183828	7.985539	0.000115	-0.002558	0.001126	-0.650146	-0.518311	-0.174316	-0.380628	-0.269980	0.129187	-0.874954
62130		5.548055	-0.189522	7.990424	-0.001277	-0.005130	0.002352	-0.652100	-0.503174	-0.174805	-0.380608	-0.269974	0.129198	-0.874962
62131		5.551506	-0.195210	7.981829	-0.000258	-0.004909	0.002566	-0.649902	-0.514160	-0.167480	-0.380578	-0.269970	0.129199	-0.874977
62132		5.542132	-0.189917	7.962801	0.001308	0.000644	0.001665	-0.660156	-0.511963	-0.166016	-0.380564	-0.269916	0.129150	-0.875007
62133		5.536010	-0.197511	8.014655	0.002369	0.001939	-0.000330	-0.648193	-0.510498	-0.180908	-0.380566	-0.269857	0.129076	-0.875035
62134		5.528285	-0.174978	8.009955	0.001019	0.000221	0.000215	-0.652344	-0.513672	-0.172363	-0.380571	-0.269805	0.129033	-0.875055
62135		5.543304	-0.184346	7.984048	-0.000503	-0.004696	0.001961	-0.645996	-0.509277	-0.177979	-0.380552	-0.269799	0.129031	-0.875066
62136		5.536817	-0.191178	7.985456	-0.000615	-0.002576	0.003889	-0.645264	-0.506348	-0.176514	-0.380516	-0.269765	0.129030	-0.875092
62137		5.534860	-0.186380	7.992995	0.000115	-0.002558	0.001126	-0.646240	-0.515381	-0.171631	-0.380508	-0.269739	0.129011	-0.875106
62138		5.541082	-0.191649	7.998347	0.002614	0.001507	0.001803	-0.647217	-0.514648	-0.169189	-0.380491	-0.269681	0.128945	-0.875141
62139		5.529951	-0.197721	7.987133	0.000576	0.001065	0.001374	-0.650146	-0.507812	-0.172607	-0.380484	-0.269620	0.128900	-0.875169
62140		5.526285	-0.203970	8.002460	0.002527	0.000235	0.000114	-0.648438	-0.504883	-0.176025	-0.380480	-0.269578	0.128836	-0.875194
62141		5.537140	-0.168995	8.006889	0.001334	-0.003186	0.001102	-0.656738	-0.515625	-0.172119	-0.380464	-0.269565	0.128807	-0.875209
62142		5.530763	-0.197185	7.986585	0.000315	-0.003408	0.000888	-0.650635	-0.506592	-0.171387	-0.380454	-0.269552	0.128786	-0.875221
62143		5.539506	-0.207352	7.984005	0.004121	0.001739	0.000175	-0.650391	-0.506592	-0.166504	-0.380445	-0.269501	0.128697	-0.875253
62144		5.519653	-0.180491	7.997029	0.001794	0.000655	-0.000177	-0.660889	-0.511475	-0.168701	-0.380445	-0.269454	0.128636	-0.875276
62145		5.523253	-0.180370	8.010396	0.001264	0.000008	0.000820	-0.645752	-0.514160	-0.173584	-0.380434	-0.269409	0.128587	-0.875302
62146		5.532187	-0.190971	8.007675	0.000316	-0.003626	0.002415	-0.643066	-0.517578	-0.166748	-0.380412	-0.269395	0.128573	-0.875318
62147		5.521841	-0.197225	7.995916	0.001421	-0.001696	0.001265	-0.651367	-0.506592	-0.169922	-0.380403	-0.269370	0.128531	-0.875336
62148		5.529164	-0.190596	7.993920	0.002282	0.000448	-0.000492	-0.655762	-0.509521	-0.165283	-0.380405	-0.269326	0.128466	-0.875358
62149		5.531469	-0.195150	7.986146	0.002813	0.001095	-0.001490	-0.662598	-0.509277	-0.168945	-0.380415	-0.269281	0.128386	-0.875380
62150		5.508240	-0.174555	8.014295	0.003502	-0.000180	-0.000516	-0.655762	-0.511963	-0.169678	-0.380407	-0.269251	0.128310	-0.875403
62151		5.517956	-0.172758	8.004456	0.002482	-0.000402	-0.000730	-0.652344	-0.507812	-0.171631	-0.380410	-0.269218	0.128246	-0.875421
62152		5.526594	-0.182699	8.001956	0.003258	-0.000186	0.000405	-0.653320	-0.509277	-0.166504	-0.380400	-0.269184	0.128178	-0.875447
62153		5.514184	-0.177805	8.019886	0.003430	0.003232	-0.002326	-0.650146	-0.518555	-0.169922	-0.380422	-0.269119	0.128079	-0.875471
62154		5.514896	-0.193506	8.019824	0.006734	0.003464	0.000451	-0.649414	-0.513428	-0.171631	-0.380411	-0.269063	0.127952	-0.875512
62155		5.515447	-0.174137	7.984225	0.004032	0.000466	-0.001513	-0.653076	-0.504395	-0.181396	-0.380425	-0.269029	0.127865	-0.875529
62156		5.520173	-0.168141	8.018870	0.004320	0.001107	-0.001589	-0.645996	-0.509277	-0.168701	-0.380435	-0.268982	0.127780	-0.875551
62157		5.514028	-0.183582	7.991858	0.004807	0.000899	-0.001904	-0.651367	-0.503418	-0.168457	-0.380450	-0.268948	0.127680	-0.875570
62158		5.524826	-0.176241	8.003322	0.005009	-0.000168	-0.000615	-0.646973	-0.522217	-0.179443	-0.380439	-0.268925	0.127588	-0.875595
62159		5.494665	-0.183937	8.011558	0.001507	0.000013	-0.000100	-0.650635	-0.511230	-0.171875	-0.380457	-0.268878	0.127539	-0.875609
62160		5.503342	-0.166046	8.002005	-0.001479	-0.004062	0.001067	-0.649902	-0.504150	-0.171875	-0.380451	-0.268862	0.127543	-0.875616
62161		5.517716	-0.193563	8.011808	0.002065	-0.003389	-0.000131	-0.645020	-0.509277	-0.169434	-0.380442	-0.268857	0.127502	-0.875627
62162		5.518194	-0.165024	8.004455	-0.000747	-0.004482	0.001359	-0.647461	-0.515381	-0.165039	-0.380432	-0.268850	0.127500	-0.875634
62163		5.514128	-0.176603	7.998024	0.001377	-0.002332	0.000422	-0.644775	-0.503174	-0.173584	-0.380429	-0.268836	0.127456	-0.875646
62164		5.517003	-0.181489	7.989852	0.002152	-0.001898	0.000030	-0.641602	-0.517334	-0.169434	-0.380425	-0.268813	0.127410	-0.875662
62165		5.523177	-0.164601	8.016874	0.000488	-0.000208	-0.000315	-0.649658	-0.511719	-0.173828	-0.380446	-0.268769	0.127367	-0.875672
62166		5.486248	-0.179317	8.026742	0.000272	-0.004262	0.001574	-0.645996	-0.514404	-0.172363	-0.380430	-0.268762	0.127356	-0.875683
62167		5.517615	-0.171343	8.017667	-0.002184	-0.007691	0.001744	-0.647217	-0.505615	-0.170654	-0.380420	-0.268782	0.127387	-0.875676
62168		5.520230	-0.188542	8.016271	-0.000017	-0.004686	0.000124	-0.655518	-0.515137	-0.172363	-0.380414	-0.268782	0.127376	-0.875681
62169		5.510954	-0.160879	8.018813	0.002640	-0.002106	-0.000285	-0.652588	-0.510254	-0.174805	-0.380412	-0.268767	0.127320	-0.875694
62170		5.512778	-0.177336	8.017979	0.001377	-0.002332	0.000422	-0.655518	-0.505615	-0.167725	-0.380404	-0.268745	0.127286	-0.875710
62171		5.509502	-0.176874	8.004398	0.001907	-0.001686	-0.000576	-0.646484	-0.508789	-0.162842	-0.380394	-0.268725	0.127233	-0.875728
62172		5.500175	-0.177497	8.014010	0.001663	-0.001473	-0.001182	-0.658203	-0.517822	-0.172852	-0.380403	-0.268706	0.127175	-0.875738
62173		5.494831	-0.178148	8.036729	0.001976	-0.004664	-0.001818	-0.649902	-0.513428	-0.173096	-0.380415	-0.268720	0.127133	-0.875735
62174		5.507512	-0.153507	8.011584	-0.000749	-0.004266	-0.000167	-0.646973	-0.509521	-0.173096	-0.380423	-0.268711	0.127128	-0.875735
62175		5.506039	-0.176742	8.025842	0.001377	-0.002333	0.000422	-0.653564	-0.523193	-0.173340	-0.380420	-0.268689	0.127093	-0.875748
62176		5.505255	-0.159654	8.025972	0.001045	-0.003611	-0.000344	-0.643799	-0.510742	-0.168945	-0.380433	-0.268685	0.127061	-0.875748
62177		5.494082	-0.177228	8.021429	-0.000508	-0.004044	-0.002614	-0.651123	-0.518799	-0.176270	-0.380469	-0.268682	0.127040	-0.875737
62178		5.489809	-0.160177	8.008111	-0.000217	-0.003837	0.000363	-0.657227	-0.513672	-0.171631	-0.380478	-0.268668	0.127030	-0.875738
62179		5.499366	-0.171086	8.004960	-0.002341	-0.005989	0.001302	-0.653076	-0.514160	-0.173584	-0.380463	-0.268670	0.127052	-0.875741
62180		5.510297	-0.176975	8.022914	-0.000791	-0.005121	0.000518	-0.649902	-0.512695	-0.169922	-0.380460	-0.268670	0.127054	-0.875742
62181		5.504041	-0.183552	8.024202	-0.000991	-0.004272	0.000756	-0.643799	-0.507568	-0.175781	-0.380456	-0.268661	0.127050	-0.875747
62182		5.499952	-0.166777	8.010751	-0.001081	-0.005546	-0.000932	-0.652588	-0.511963	-0.169189	-0.380473	-0.268662	0.127057	-0.875739
62183		5.505820	-0.155679	8.015930	-0.003073	-0.005569	0.001012	-0.654785	-0.510254	-0.176514	-0.380465	-0.268658	0.127083	-0.875739
62184		5.514680	-0.178751	8.019863	-0.003445	-0.007921	0.002457	-0.647949	-0.505615	-0.176758	-0.380439	-0.268668	0.127137	-0.875739
62185		5.506186	-0.173873	8.000210	-0.000059	-0.005543	0.000809	-0.650391	-0.512695	-0.174072	-0.380426	-0.268669	0.127140	-0.875744
62186		5.508777	-0.169243	8.020487	-0.004470	-0.007707	-0.000809	-0.646484	-0.506348	-0.168945	-0.380448	-0.268681	0.127191	-0.875724
62187		5.507629	-0.165036	8.027478	-0.004290	-0.005159	0.002566	-0.654785	-0.506104	-0.167725	-0.380428	-0.268663	0.127234	-0.875732
62188		5.497278	-0.184209	8.022339	-0.006392	-0.010928	0.001422	-0.645752	-0.511475	-0.177734	-0.380405	-0.268703	0.127321	-0.875717
62189		5.520311	-0.178500	8.022101	-0.006564	-0.014132	0.002631	-0.650879	-0.510986	-0.171875	-0.380395	-0.268764	0.127443	-0.875685
62190		5.528740	-0.178856	7.997180	-0.006147	-0.011144	0.002031	-0.648682	-0.508789	-0.177490	-0.380382	-0.268802	0.127535	-0.875665
62191		5.534292	-0.180137	8.009187	-0.002916	-0.007278	0.001462	-0.656006	-0.514893	-0.178467	-0.380375	-0.268807	0.127581	-0.875660
62192		5.518046	-0.181333	7.991868	0.000200	-0.000850	-0.000238	-0.649414	-0.514160	-0.170898	-0.380385	-0.268761	0.127554	-0.875674
62193		5.512169	-0.182347	8.015008	0.001794	0.000656	-0.000181	-0.650146	-0.510986	-0.180908	-0.380396	-0.268714	0.127494	-0.875693
62194		5.520940	-0.170613	8.034075	-0.000225	-0.003403	-0.002691	-0.649902	-0.503662	-0.175537	-0.380435	-0.268692	0.127482	-0.875684
62195		5.518100	-0.170695	8.020166	-0.002295	-0.005357	0.002150	-0.643066	-0.510742	-0.159912	-0.380406	-0.268679	0.127511	-0.875696
62196		5.510885	-0.182527	8.000024	-0.000681	-0.007468	0.000122	-0.640869	-0.514648	-0.172852	-0.380404	-0.268722	0.127503	-0.875685
62197		5.507265	-0.194250	7.993273	-0.001238	-0.004062	0.000152	-0.649658	-0.512207	-0.177734	-0.380432	-0.268708	0.127504	-0.875677
62198		5.514006	-0.177785	8.019968	0.000357	-0.002556	0.000208	-0.647705	-0.504883	-0.174805	-0.380440	-0.268680	0.127487	-0.875685
62199		5.502419	-0.167240	8.008690	-0.001771	-0.004491	-0.000376	-0.654053	-0.510498	-0.168945	-0.380442	-0.268665	0.127497	-0.875687
62200		5.516700	-0.166604	8.011477	-0.001279	-0.004918	0.000836	-0.648926	-0.510986	-0.178467	-0.380425	-0.268665	0.127497	-0.875694
62201		5.512184	-0.190465	8.011959	-0.004223	-0.008144	0.001331	-0.647949	-0.511475	-0.177246	-0.380426	-0.268673	0.127562	-0.875682
62202		5.532745	-0.188961	7.991296	-0.001813	-0.005348	0.000309	-0.649414	-0.508301	-0.171387	-0.380437	-0.268664	0.127582	-0.875677
62203		5.493800	-0.170493	8.001961	-0.002341	-0.005996	0.001309	-0.653564	-0.520996	-0.171143	-0.380423	-0.268666	0.127605	-0.875679
62204		5.504839	-0.176516	8.019842	-0.001567	-0.005562	0.000915	-0.653076	-0.511475	-0.170410	-0.380432	-0.268673	0.127612	-0.875672
62205		5.524310	-0.186398	8.006552	-0.002189	-0.007484	0.000228	-0.646973	-0.506348	-0.171875	-0.380425	-0.268697	0.127634	-0.875664
62206		5.502691	-0.189023	8.012061	-0.002587	-0.005784	0.000704	-0.651855	-0.508789	-0.173096	-0.380419	-0.268695	0.127659	-0.875664
62207		5.508591	-0.171495	7.988483	-0.003256	-0.008344	-0.000826	-0.652344	-0.513672	-0.176514	-0.380425	-0.268719	0.127698	-0.875648
62208		5.506753	-0.178698	8.002610	-0.004716	-0.007721	0.000123	-0.655273	-0.506104	-0.175293	-0.380440	-0.268725	0.127759	-0.875631
62209		5.525578	-0.178883	8.018108	-0.003287	-0.009640	0.002914	-0.650879	-0.514160	-0.181396	-0.380391	-0.268754	0.127820	-0.875634
62210		5.524800	-0.196442	8.003120	-0.003901	-0.006430	-0.000954	-0.648438	-0.510010	-0.174316	-0.380427	-0.268744	0.127871	-0.875614
62211		5.508024	-0.187562	8.014566	-0.002436	-0.007274	-0.000376	-0.655029	-0.511230	-0.163818	-0.380439	-0.268759	0.127900	-0.875600
62212		5.527524	-0.169140	7.994213	-0.003046	-0.009636	0.001993	-0.650635	-0.510498	-0.181396	-0.380401	-0.268811	0.127935	-0.875596
62213		5.504181	-0.189070	7.985418	-0.006107	-0.010302	0.001363	-0.649170	-0.504395	-0.161377	-0.380406	-0.268827	0.128037	-0.875574
62214		5.522042	-0.173006	8.001196	-0.007902	-0.010960	0.001548	-0.654297	-0.513184	-0.170166	-0.380380	-0.268872	0.128128	-0.875558
62215		5.498101	-0.205531	7.999423	-0.009779	-0.013332	0.003103	-0.651123	-0.509521	-0.162354	-0.380359	-0.268921	0.128269	-0.875532
62216		5.519268	-0.195059	8.006648	-0.008018	-0.016933	-0.000009	-0.652832	-0.512939	-0.175293	-0.380351	-0.269033	0.128385	-0.875483
62217		5.529778	-0.190651	8.002342	-0.009717	-0.016319	0.001867	-0.647217	-0.503906	-0.174561	-0.380349	-0.269108	0.128546	-0.875438
62218		5.530251	-0.209015	7.986424	-0.005760	-0.012648	0.000049	-0.650879	-0.506836	-0.176514	-0.380350	-0.269160	0.128643	-0.875407
62219		5.529984	-0.204870	7.992857	-0.003492	-0.008579	0.001630	-0.647949	-0.510010	-0.164551	-0.380334	-0.269175	0.128703	-0.875401
62220		5.539905	-0.194082	8.011160	-0.001288	-0.004705	-0.000687	-0.653564	-0.504639	-0.177490	-0.380343	-0.269183	0.128690	-0.875396
62221		5.529660	-0.200358	7.999344	-0.000911	-0.002567	-0.000607	-0.648926	-0.509033	-0.166992	-0.380341	-0.269146	0.128687	-0.875409
62222		5.531361	-0.188807	7.991542	-0.000754	-0.004276	-0.000161	-0.649414	-0.504639	-0.166260	-0.380341	-0.269147	0.128672	-0.875411
62223		5.530160	-0.184080	7.998644	-0.003699	-0.007509	0.000343	-0.653320	-0.510986	-0.172119	-0.380327	-0.269168	0.128707	-0.875406
62224		5.518323	-0.185598	7.994204	-0.001706	-0.007703	-0.000083	-0.656250	-0.511475	-0.158447	-0.380323	-0.269194	0.128727	-0.875396
62225		5.527096	-0.208309	7.998081	-0.002005	-0.004727	0.002081	-0.651855	-0.498535	-0.174316	-0.380276	-0.269209	0.128714	-0.875414
62226		5.513181	-0.192635	7.994752	0.001823	-0.003404	0.000783	-0.651855	-0.512451	-0.166016	-0.380236	-0.269192	0.128689	-0.875440
62227		5.536543	-0.190067	7.987923	0.002430	-0.001038	-0.001587	-0.656494	-0.516357	-0.164795	-0.380246	-0.269179	0.128614	-0.875451
62228		5.517661	-0.191723	8.007586	0.002438	-0.001259	-0.000060	-0.653076	-0.512695	-0.177734	-0.380230	-0.269172	0.128539	-0.875471
62229		5.529779	-0.195495	7.989629	0.000980	-0.000636	0.000893	-0.651855	-0.511475	-0.167969	-0.380232	-0.269121	0.128512	-0.875490
62230		5.530977	-0.183547	7.982181	0.002438	-0.001259	-0.000059	-0.651123	-0.512207	-0.178223	-0.380224	-0.269104	0.128448	-0.875508
62231		5.525298	-0.206162	7.983471	0.003261	-0.000186	0.000387	-0.650146	-0.510742	-0.171875	-0.380230	-0.269059	0.128394	-0.875527
62232		5.528679	-0.177150	7.990085	0.003054	0.000886	-0.000902	-0.652344	-0.509766	-0.169678	-0.380242	-0.269014	0.128320	-0.875546
62233		5.529719	-0.193020	7.989731	0.004889	0.002402	-0.001774	-0.649170	-0.511719	-0.177490	-0.380247	-0.268968	0.128210	-0.875574
62234		5.513759	-0.194369	8.023289	0.004253	0.004098	-0.000375	-0.652344	-0.510254	-0.174072	-0.380269	-0.268882	0.128122	-0.875604
62235		5.516731	-0.186969	8.008339	0.004520	0.000042	-0.000326	-0.650879	-0.510986	-0.169434	-0.380262	-0.268850	0.128041	-0.875629
62236		5.515491	-0.169555	8.008861	0.000932	-0.001273	0.000050	-0.654541	-0.512939	-0.171875	-0.380261	-0.268823	0.127997	-0.875644
62237		5.532820	-0.190275	8.003561	0.002191	-0.001045	-0.000664	-0.652588	-0.514404	-0.172119	-0.380260	-0.268798	0.127939	-0.875660
62238		5.519503	-0.190535	8.000178	0.003540	0.000678	-0.001219	-0.651611	-0.509521	-0.175293	-0.380275	-0.268761	0.127857	-0.875677
62239		5.512399	-0.174419	8.023951	0.001466	-0.000844	0.000576	-0.647217	-0.511963	-0.174805	-0.380269	-0.268719	0.127820	-0.875698
62240		5.516014	-0.189530	7.986707	0.002398	-0.002117	0.000626	-0.649170	-0.512939	-0.174805	-0.380278	-0.268696	0.127780	-0.875707
62241		5.512924	-0.195448	8.001777	0.003212	-0.000824	-0.000455	-0.647217	-0.510010	-0.169434	-0.380294	-0.268666	0.127720	-0.875718
62242		5.516692	-0.166777	8.008091	-0.001159	-0.002354	-0.001210	-0.650146	-0.509277	-0.167480	-0.380320	-0.268643	0.127702	-0.875717
62243		5.501584	-0.184461	7.990384	-0.000268	-0.004485	-0.000475	-0.654785	-0.510498	-0.170898	-0.380316	-0.268651	0.127680	-0.875719
62244		5.525438	-0.179070	8.040494	-0.002074	-0.010063	0.001371	-0.643066	-0.506592	-0.179688	-0.380283	-0.268702	0.127717	-0.875713
62245		5.515926	-0.179295	7.999341	-0.003788	-0.009006	0.000191	-0.657715	-0.503418	-0.168457	-0.380312	-0.268711	0.127791	-0.875686
62246		5.504404	-0.181163	7.994692	-0.003532	-0.009441	0.002324	-0.648926	-0.508545	-0.172607	-0.380236	-0.268749	0.127838	-0.875701
62247		5.520683	-0.197905	7.996365	-0.002094	-0.006223	0.001927	-0.657959	-0.514160	-0.163574	-0.380221	-0.268751	0.127866	-0.875703
62248		5.530298	-0.186938	8.014890	-0.000467	-0.003635	-0.000237	-0.654053	-0.509033	-0.172363	-0.380198	-0.268762	0.127828	-0.875715
62249		5.517600	-0.188172	8.011070	-0.001924	-0.003011	0.000716	-0.642334	-0.505371	-0.169678	-0.380183	-0.268734	0.127832	-0.875729
62250		5.502516	-0.184375	8.015193	-0.001191	-0.003434	0.001003	-0.643311	-0.514404	-0.178223	-0.380191	-0.268714	0.127833	-0.875732
62251		5.512303	-0.195249	8.011744	-0.002044	-0.008988	-0.000839	-0.645752	-0.508545	-0.172607	-0.380252	-0.268739	0.127880	-0.875691
62252		5.526747	-0.187984	7.985491	-0.001370	-0.006425	0.000688	-0.649658	-0.508301	-0.163330	-0.380259	-0.268748	0.127899	-0.875682
62253		5.516084	-0.184271	8.002480	-0.000835	-0.005996	0.001213	-0.650146	-0.510742	-0.171387	-0.380228	-0.268777	0.127887	-0.875689
62254		5.499346	-0.203421	8.021052	0.001287	-0.003836	0.000259	-0.639160	-0.507812	-0.169678	-0.380224	-0.268775	0.127858	-0.875695
62255		5.514565	-0.190859	8.016476	-0.001528	-0.004716	0.000241	-0.656006	-0.507568	-0.170654	-0.380258	-0.268770	0.127867	-0.875681
62256		5.520398	-0.179734	8.021710	-0.001816	-0.005360	0.000322	-0.647461	-0.508789	-0.173340	-0.380226	-0.268772	0.127874	-0.875693
62257		5.508235	-0.181084	8.017532	-0.002153	-0.006642	-0.000441	-0.650879	-0.512207	-0.173340	-0.380244	-0.268779	0.127900	-0.875679
62258		5.515182	-0.180044	7.993475	-0.000845	-0.005776	-0.000314	-0.656494	-0.513672	-0.173828	-0.380256	-0.268787	0.127905	-0.875671
62259		5.511865	-0.198588	8.015355	-0.001220	-0.004515	0.003218	-0.646240	-0.515625	-0.168945	-0.380218	-0.268773	0.127918	-0.875690
62260		5.522460	-0.197905	8.004681	-0.000349	-0.006206	0.000897	-0.653809	-0.510254	-0.179443	-0.380239	-0.268797	0.127915	-0.875674
62261		5.519884	-0.176082	8.012432	-0.000795	-0.005139	0.000530	-0.646240	-0.512695	-0.171143	-0.380234	-0.268781	0.127933	-0.875678
62262		5.525609	-0.186688	7.995851	-0.000795	-0.005140	0.000530	-0.651367	-0.510010	-0.173584	-0.380255	-0.268784	0.127935	-0.875668
62263		5.517019	-0.187921	8.005135	0.000514	-0.004274	0.000657	-0.646484	-0.511719	-0.166748	-0.380245	-0.268778	0.127922	-0.875676
62264		5.524105	-0.193525	8.009840	-0.001766	-0.004724	0.001166	-0.646973	-0.515381	-0.172119	-0.380251	-0.268782	0.127924	-0.875672
62265		5.518554	-0.188286	8.004068	0.001665	-0.001697	0.000336	-0.646240	-0.507324	-0.171631	-0.380282	-0.268759	0.127884	-0.875671
62266		5.495619	-0.183735	7.981825	-0.001687	-0.003007	-0.000204	-0.648193	-0.511963	-0.176758	-0.380294	-0.268732	0.127885	-0.875674
62267		5.523616	-0.188964	8.016481	-0.001219	-0.004516	0.003219	-0.644531	-0.514160	-0.171387	-0.380286	-0.268708	0.127911	-0.875681
62268		5.514472	-0.184114	7.997259	-0.002252	-0.004517	0.001485	-0.658691	-0.514893	-0.169678	-0.380317	-0.268696	0.127931	-0.875668
62269		5.532633	-0.183755	8.013185	-0.001044	-0.004926	-0.000074	-0.654541	-0.512207	-0.169189	-0.380309	-0.268706	0.127922	-0.875670
62270		5.507607	-0.174308	7.998704	-0.001636	-0.002370	0.000639	-0.646729	-0.510010	-0.170898	-0.380300	-0.268682	0.127911	-0.875683
62271		5.500963	-0.181066	8.000330	-0.001924	-0.003014	0.000720	-0.647461	-0.506348	-0.178223	-0.380312	-0.268656	0.127915	-0.875685
62272		5.515930	-0.187345	8.031427	-0.002184	-0.007726	0.001776	-0.650146	-0.510254	-0.174316	-0.380296	-0.268658	0.127966	-0.875684
62273		5.523563	-0.186798	8.006849	-0.002941	-0.012009	0.001622	-0.653809	-0.513428	-0.167969	-0.380281	-0.268716	0.128033	-0.875663
62274		5.512290	-0.188305	8.002075	-0.002049	-0.008995	-0.000832	-0.645264	-0.515137	-0.173584	-0.380287	-0.268770	0.128050	-0.875642
62275		5.507271	-0.183337	7.995937	-0.001140	-0.002800	0.001850	-0.648682	-0.505371	-0.168945	-0.380320	-0.268739	0.128057	-0.875636
62276		5.527396	-0.188050	8.004174	-0.000666	-0.002786	0.000004	-0.658691	-0.511963	-0.172363	-0.380302	-0.268721	0.128037	-0.875652
62277		5.511178	-0.195655	8.015804	-0.000864	-0.001934	0.000242	-0.648193	-0.511230	-0.172607	-0.380284	-0.268689	0.128019	-0.875672
62278		5.506668	-0.178692	8.002674	0.000710	-0.005129	0.000419	-0.653564	-0.515625	-0.173340	-0.380291	-0.268696	0.128007	-0.875669
62279		5.516242	-0.189324	7.999327	-0.000548	-0.005358	0.001137	-0.652100	-0.514648	-0.178223	-0.380296	-0.268700	0.128011	-0.875665
62280		5.523099	-0.166224	7.997219	-0.000572	-0.004914	-0.001919	-0.648926	-0.510254	-0.175781	-0.380343	-0.268690	0.128016	-0.875647
62281		5.512490	-0.190653	8.021237	0.000565	-0.003639	0.001500	-0.652588	-0.513184	-0.172119	-0.380337	-0.268669	0.128010	-0.875656
62282		5.516587	-0.184124	8.005426	0.000749	-0.004270	-0.000266	-0.651123	-0.511963	-0.170166	-0.380345	-0.268671	0.127987	-0.875656
62283		5.511217	-0.178667	7.999542	0.001298	-0.004062	0.001787	-0.647949	-0.512939	-0.173096	-0.380325	-0.268675	0.127960	-0.875667
62284		5.520467	-0.188969	7.996421	0.001810	-0.003189	-0.000746	-0.649414	-0.500244	-0.168945	-0.380355	-0.268668	0.127924	-0.875662
62285		5.518524	-0.183428	8.004106	0.001219	-0.000631	-0.000032	-0.659424	-0.510254	-0.176025	-0.380300	-0.268634	0.127870	-0.875704
62286		5.521188	-0.188326	7.995938	0.002110	-0.002766	0.000702	-0.652832	-0.508057	-0.175293	-0.380256	-0.268613	0.127834	-0.875734
62287		5.519327	-0.182852	8.003566	0.001913	-0.001913	0.000940	-0.649658	-0.513672	-0.160889	-0.380227	-0.268582	0.127798	-0.875762
62288		5.513448	-0.195658	8.033616	0.000959	-0.005345	0.001026	-0.652344	-0.513184	-0.173584	-0.380214	-0.268628	0.127754	-0.875760
62289		5.520014	-0.194388	8.009752	-0.001006	-0.004070	-0.000756	-0.653076	-0.510986	-0.173828	-0.380236	-0.268616	0.127751	-0.875754
62290		5.517012	-0.194206	7.995894	0.001247	-0.004700	0.000945	-0.652588	-0.515869	-0.166504	-0.380216	-0.268618	0.127733	-0.875765
62291		5.509277	-0.183531	7.997985	0.000303	-0.003203	-0.000632	-0.657959	-0.515869	-0.174072	-0.380235	-0.268625	0.127694	-0.875760
62292		5.504477	-0.184849	8.020640	-0.001045	-0.004930	-0.000070	-0.650146	-0.506348	-0.178467	-0.380238	-0.268624	0.127696	-0.875759
62293		5.519988	-0.172449	8.015795	-0.000888	-0.006642	0.000379	-0.654541	-0.513672	-0.166748	-0.380224	-0.268619	0.127723	-0.875763
62294		5.516201	-0.184122	8.009133	0.000028	-0.004070	0.000978	-0.641846	-0.518555	-0.177979	-0.380205	-0.268631	0.127695	-0.875771
62295		5.510874	-0.178754	8.003222	0.000212	-0.004701	-0.000788	-0.646484	-0.512207	-0.168701	-0.380306	-0.268620	0.127704	-0.875730
62296		5.515459	-0.200796	7.994030	-0.000509	-0.004500	0.000455	-0.648193	-0.507324	-0.163086	-0.380324	-0.268626	0.127693	-0.875721
62297		5.502188	-0.191535	8.019301	0.001535	-0.004057	0.000864	-0.649902	-0.505859	-0.173828	-0.380288	-0.268650	0.127642	-0.875737
62298		5.510130	-0.185093	8.016751	0.000801	-0.003634	0.000578	-0.654541	-0.520020	-0.174316	-0.380259	-0.268634	0.127624	-0.875757
62299		5.525693	-0.179121	8.040810	-0.001165	-0.002358	-0.001203	-0.652344	-0.501953	-0.166260	-0.380319	-0.268606	0.127616	-0.875741
62300		5.513905	-0.190245	8.007803	0.001156	-0.006200	0.000790	-0.647217	-0.519775	-0.169922	-0.380236	-0.268641	0.127583	-0.875771
62301		5.502617	-0.179515	7.996418	0.000474	-0.005139	0.001346	-0.649902	-0.513428	-0.173096	-0.380283	-0.268658	0.127572	-0.875747
62302		5.522117	-0.195591	8.011726	0.000801	-0.003634	0.000579	-0.647461	-0.504883	-0.172119	-0.380296	-0.268648	0.127554	-0.875747
62303		5.521790	-0.188639	7.983005	0.003065	0.000666	0.000613	-0.652100	-0.511230	-0.171875	-0.380267	-0.268600	0.127488	-0.875784
62304		5.507354	-0.178666	8.009112	0.004164	0.002607	-0.000555	-0.651611	-0.506592	-0.178955	-0.380266	-0.268543	0.127394	-0.875816
62305		5.506256	-0.189379	8.016560	0.004179	-0.001242	-0.001104	-0.648193	-0.505615	-0.171875	-0.380251	-0.268504	0.127335	-0.875843
62306		5.504154	-0.183429	8.024377	0.002974	-0.000833	0.000458	-0.651123	-0.506836	-0.173340	-0.380222	-0.268473	0.127275	-0.875874
62307		5.518968	-0.170280	8.020005	0.002792	-0.003829	0.000146	-0.648682	-0.513916	-0.170410	-0.380188	-0.268472	0.127232	-0.875895
62308		5.504831	-0.182289	8.023939	0.002855	0.001740	-0.000678	-0.645752	-0.512695	-0.174561	-0.380221	-0.268424	0.127155	-0.875906
62309		5.498273	-0.176197	8.018889	0.004126	0.001747	0.000132	-0.646240	-0.508545	-0.171631	-0.380255	-0.268366	0.127081	-0.875920
62310		5.511629	-0.174767	8.022191	0.001180	-0.001491	0.000654	-0.642334	-0.509277	-0.175049	-0.380253	-0.268336	0.127045	-0.875935
62311		5.500854	-0.180677	8.010777	0.001415	-0.001485	-0.000270	-0.645508	-0.503662	-0.178711	-0.380290	-0.268297	0.127018	-0.875935
62312		5.508365	-0.174172	8.008515	0.001678	-0.001921	0.001864	-0.652344	-0.523193	-0.171387	-0.380256	-0.268246	0.127002	-0.875968
62313		5.502659	-0.197094	8.009870	0.001794	0.000658	-0.000196	-0.643555	-0.511963	-0.171875	-0.380329	-0.268209	0.126946	-0.875956
62314		5.499172	-0.174749	8.018304	0.001376	-0.002345	0.000417	-0.650635	-0.507812	-0.177979	-0.380361	-0.268191	0.126915	-0.875952
62315		5.490833	-0.185518	7.998872	0.003891	-0.001888	-0.001021	-0.650879	-0.515137	-0.167480	-0.380349	-0.268162	0.126859	-0.875974
62316		5.496103	-0.173348	8.004513	0.001363	-0.002124	-0.001111	-0.663330	-0.502930	-0.174805	-0.380378	-0.268162	0.126805	-0.875969
62317		5.500436	-0.173240	8.017470	-0.000144	-0.002137	-0.000997	-0.654053	-0.499512	-0.180420	-0.380280	-0.268128	0.126772	-0.876027
62318		5.500886	-0.173322	8.017159	-0.000365	-0.002364	0.001455	-0.641113	-0.506592	-0.172363	-0.380190	-0.268068	0.126774	-0.876084
62319		5.501720	-0.173786	8.016577	-0.002342	-0.006020	0.001341	-0.648193	-0.504150	-0.176025	-0.380203	-0.268065	0.126807	-0.876075
62320		5.500274	-0.190921	8.001956	-0.000797	-0.005147	0.000540	-0.647217	-0.518799	-0.174072	-0.380174	-0.268051	0.126819	-0.876090
62321		5.501689	-0.169253	8.022944	-0.001138	-0.006431	-0.000219	-0.640625	-0.515869	-0.173096	-0.380248	-0.268066	0.126839	-0.876050
62322		5.500568	-0.164365	8.030070	-0.001819	-0.005369	0.000337	-0.647217	-0.509521	-0.172607	-0.380334	-0.268064	0.126866	-0.876010
62323		5.489731	-0.182647	8.025373	-0.002395	-0.006659	0.000501	-0.645752	-0.517822	-0.177002	-0.380339	-0.268073	0.126894	-0.876001
62324		5.488933	-0.178107	8.032275	-0.002472	-0.008380	0.001875	-0.644531	-0.510254	-0.172363	-0.380398	-0.268088	0.126955	-0.875961
62325		5.500169	-0.177696	8.021064	-0.003312	-0.009235	-0.000094	-0.647949	-0.504150	-0.179688	-0.380425	-0.268123	0.127006	-0.875932
62326		5.516039	-0.165739	8.015913	-0.002342	-0.006022	0.001344	-0.646484	-0.513184	-0.177490	-0.380387	-0.268099	0.127049	-0.875950
62327		5.500340	-0.195618	8.005301	-0.001858	-0.006231	0.001025	-0.649902	-0.506104	-0.175049	-0.380422	-0.268091	0.127088	-0.875931
62328		5.490796	-0.180484	8.015020	-0.002880	-0.006453	0.000822	-0.649658	-0.512451	-0.175293	-0.380389	-0.268087	0.127123	-0.875942
62329		5.488374	-0.181040	8.000733	-0.003260	-0.008598	0.000749	-0.647461	-0.495361	-0.172607	-0.380404	-0.268107	0.127178	-0.875921
62330		5.508618	-0.169578	8.008500	-0.004646	-0.011187	0.002003	-0.649902	-0.510010	-0.174072	-0.380285	-0.268147	0.127245	-0.875950
62331		5.519970	-0.197625	8.004177	-0.000222	-0.003859	0.000377	-0.663330	-0.516357	-0.179443	-0.380283	-0.268133	0.127238	-0.875957
62332		5.491391	-0.194345	8.005310	-0.000592	-0.001069	-0.001364	-0.646240	-0.511230	-0.182373	-0.380288	-0.268080	0.127221	-0.875973
62333		5.487657	-0.162219	8.042642	-0.000994	-0.004296	0.000779	-0.652832	-0.511963	-0.170654	-0.380326	-0.268039	0.127255	-0.875964
62334		5.502660	-0.171837	8.016069	-0.001820	-0.005372	0.000340	-0.647705	-0.515625	-0.176514	-0.380319	-0.268048	0.127259	-0.875964
62335		5.516708	-0.193203	7.996827	-0.001228	-0.004304	0.001704	-0.658691	-0.503662	-0.169434	-0.380360	-0.268028	0.127282	-0.875949
62336		5.497463	-0.178893	8.016750	-0.000852	-0.005790	-0.000299	-0.652344	-0.513672	-0.171875	-0.380264	-0.268049	0.127260	-0.875987
62337		5.513049	-0.166710	8.011780	-0.002630	-0.006671	0.001429	-0.650146	-0.509766	-0.177002	-0.380262	-0.268063	0.127289	-0.875980
62338		5.502452	-0.185211	8.006914	-0.002972	-0.007956	0.000671	-0.648193	-0.509277	-0.177002	-0.380262	-0.268072	0.127340	-0.875970
62339		5.512572	-0.174266	8.025155	0.000224	-0.004930	0.000746	-0.646973	-0.517090	-0.174561	-0.380263	-0.268061	0.127343	-0.875972
62340		5.496220	-0.175240	8.008012	-0.002321	-0.004943	-0.000868	-0.647217	-0.512207	-0.174316	-0.380346	-0.268054	0.127368	-0.875935
62341		5.503350	-0.180837	8.012666	0.000028	-0.004076	0.000983	-0.637695	-0.514893	-0.168213	-0.380366	-0.268043	0.127365	-0.875930
62342		5.490834	-0.181930	8.008837	-0.001299	-0.004722	-0.000665	-0.647949	-0.517090	-0.170410	-0.380465	-0.268053	0.127370	-0.875883
62343		5.497037	-0.170974	8.013824	-0.003745	-0.008395	0.001075	-0.652100	-0.524170	-0.175293	-0.380515	-0.268086	0.127421	-0.875843
62344		5.499889	-0.160414	8.005154	-0.005381	-0.010771	0.001726	-0.651367	-0.508057	-0.172607	-0.380601	-0.268125	0.127521	-0.875780
62345		5.499685	-0.206848	7.996589	-0.004805	-0.009480	0.001561	-0.656494	-0.506836	-0.173340	-0.380564	-0.268154	0.127586	-0.875777
62346		5.511648	-0.185189	8.006861	-0.006747	-0.012280	0.000768	-0.655762	-0.512207	-0.177002	-0.380508	-0.268204	0.127680	-0.875773
62347		5.518301	-0.187052	8.018199	-0.007344	-0.014658	0.003151	-0.649902	-0.510742	-0.171143	-0.380474	-0.268264	0.127815	-0.875750
62348		5.518224	-0.205417	8.002534	-0.006405	-0.010998	0.001529	-0.654541	-0.504150	-0.171631	-0.380470	-0.268307	0.127906	-0.875725
62349		5.538357	-0.193804	8.010350	-0.000947	-0.007295	-0.000451	-0.651611	-0.512939	-0.167725	-0.380405	-0.268335	0.127904	-0.875745
62350		5.517640	-0.184170	8.009040	-0.000045	-0.004494	-0.001387	-0.651855	-0.511475	-0.168457	-0.380425	-0.268354	0.127875	-0.875734
62351		5.497742	-0.191183	8.007454	0.000085	-0.002132	-0.001920	-0.649658	-0.507812	-0.173096	-0.380444	-0.268346	0.127833	-0.875735
62352		5.512029	-0.190219	8.010041	-0.000892	-0.006657	0.000391	-0.650879	-0.512695	-0.172363	-0.380424	-0.268361	0.127843	-0.875738
62353		5.526741	-0.189669	8.012322	-0.001608	-0.006456	0.001636	-0.650879	-0.508301	-0.176270	-0.380421	-0.268374	0.127864	-0.875732
62354		5.503328	-0.196855	7.997191	0.000689	-0.004919	-0.001103	-0.650635	-0.517090	-0.170898	-0.380418	-0.268370	0.127851	-0.875736
62355		5.501877	-0.181392	8.033395	-0.001542	-0.008366	-0.001811	-0.655029	-0.503662	-0.166992	-0.380480	-0.268416	0.127869	-0.875692
62356		5.521437	-0.191097	8.019513	-0.002742	-0.007958	-0.000246	-0.642090	-0.515869	-0.175049	-0.380406	-0.268457	0.127878	-0.875711
62357		5.510546	-0.180967	8.007895	-0.002974	-0.007966	0.000679	-0.653320	-0.506104	-0.170898	-0.380487	-0.268471	0.127937	-0.875663
62358		5.520380	-0.192046	8.004245	-0.002863	-0.005379	-0.001383	-0.653809	-0.512451	-0.172607	-0.380461	-0.268472	0.127946	-0.875672
62359		5.517829	-0.170400	8.012137	-0.001282	-0.004950	0.000867	-0.658203	-0.497803	-0.167236	-0.380452	-0.268471	0.127952	-0.875676
62360		5.512751	-0.193723	8.013044	0.000354	-0.002572	0.000213	-0.651123	-0.505371	-0.169922	-0.380316	-0.268463	0.127897	-0.875745
62361		5.518941	-0.192412	7.989249	-0.000567	-0.005151	-0.000378	-0.649658	-0.513916	-0.180908	-0.380281	-0.268473	0.127883	-0.875759
62362		5.490362	-0.179242	8.019342	-0.001766	-0.004742	0.001188	-0.646973	-0.508057	-0.173828	-0.380318	-0.268440	0.127923	-0.875748
62363		5.518533	-0.177860	8.024746	-0.001505	-0.008816	0.001248	-0.643311	-0.508545	-0.173584	-0.380309	-0.268470	0.127959	-0.875737
62364		5.526775	-0.193882	7.999786	-0.001859	-0.006244	0.001035	-0.651367	-0.506348	-0.172852	-0.380331	-0.268471	0.127990	-0.875723
62365		5.511977	-0.189546	8.004001	0.003114	-0.002328	-0.000633	-0.649658	-0.508545	-0.176514	-0.380301	-0.268460	0.127929	-0.875748
62366		5.512317	-0.189012	8.003780	0.001953	-0.001057	0.000246	-0.654297	-0.508057	-0.174072	-0.380298	-0.268416	0.127892	-0.875768
62367		5.519816	-0.182506	8.001473	0.001144	-0.002358	0.001338	-0.650146	-0.510010	-0.173340	-0.380250	-0.268391	0.127860	-0.875801
62368		5.515297	-0.193996	7.995305	0.001201	-0.001719	0.002179	-0.653809	-0.508545	-0.178223	-0.380229	-0.268360	0.127832	-0.875824
62369		5.513110	-0.188479	8.003246	0.003840	0.001105	0.000194	-0.651855	-0.508545	-0.166992	-0.380204	-0.268298	0.127763	-0.875864
62370		5.531175	-0.175371	8.012499	0.003105	0.001530	-0.000089	-0.646973	-0.513184	-0.162598	-0.380174	-0.268265	0.127669	-0.875901
62371		5.512411	-0.187088	8.003760	0.003682	0.002823	-0.000256	-0.649414	-0.505859	-0.168945	-0.380194	-0.268236	0.127558	-0.875917
62372		5.529128	-0.185264	8.020648	0.007038	0.004136	0.000259	-0.644043	-0.509521	-0.166504	-0.380151	-0.268183	0.127418	-0.875973
62373		5.507490	-0.191081	8.020327	0.007168	0.006499	-0.000275	-0.650391	-0.516846	-0.167236	-0.380167	-0.268113	0.127264	-0.876009
62374		5.490720	-0.167168	7.990127	0.006108	0.005414	0.000214	-0.643066	-0.504883	-0.175049	-0.380188	-0.268055	0.127127	-0.876038
62375		5.481473	-0.173883	8.029173	0.003820	0.001327	-0.001333	-0.646484	-0.509277	-0.170654	-0.380210	-0.267997	0.127054	-0.876057
62376		5.500311	-0.170937	8.009084	0.002687	-0.001482	0.000531	-0.651855	-0.509521	-0.172363	-0.380209	-0.267980	0.126998	-0.876071
62377		5.484972	-0.166316	8.013668	0.001664	-0.001704	0.000331	-0.655762	-0.509521	-0.167969	-0.380187	-0.267958	0.126952	-0.876093
62378		5.492930	-0.188187	8.018038	0.002399	-0.002128	0.000615	-0.645264	-0.514404	-0.176270	-0.380128	-0.267959	0.126884	-0.876129
62379		5.504258	-0.181526	8.029071	0.003551	0.000458	0.000280	-0.654053	-0.506104	-0.174805	-0.380181	-0.267910	0.126829	-0.876128
62380		5.495953	-0.180294	8.002866	0.004397	0.002620	-0.001501	-0.647217	-0.511963	-0.167969	-0.380147	-0.267847	0.126729	-0.876177
62381		5.486023	-0.180251	8.013296	0.005671	0.002626	-0.000696	-0.649658	-0.504639	-0.175781	-0.380162	-0.267813	0.126609	-0.876198
62382		5.500148	-0.166588	8.009287	0.004230	-0.000606	-0.000277	-0.647949	-0.504395	-0.179688	-0.380128	-0.267777	0.126538	-0.876234
62383		5.495184	-0.177266	8.003462	0.003839	0.001104	0.000196	-0.647705	-0.509277	-0.170410	-0.380111	-0.267706	0.126477	-0.876272
62384		5.491252	-0.154342	8.012302	0.005690	0.002403	0.000833	-0.647461	-0.512451	-0.173584	-0.380093	-0.267663	0.126368	-0.876309
62385		5.472078	-0.155998	8.032646	0.000828	0.001077	0.000437	-0.649658	-0.508789	-0.176025	-0.380122	-0.267603	0.126328	-0.876320
62386		5.489653	-0.155412	8.048918	-0.001133	-0.002808	0.001865	-0.645020	-0.511719	-0.171631	-0.380105	-0.267565	0.126335	-0.876338
62387		5.474677	-0.173713	8.031147	-0.003997	-0.008187	0.000487	-0.647217	-0.509033	-0.165527	-0.380141	-0.267589	0.126389	-0.876308
62388		5.466054	-0.159189	8.040350	-0.005995	-0.012935	0.002605	-0.644531	-0.512451	-0.171143	-0.380108	-0.267671	0.126472	-0.876285
62389		5.483103	-0.158321	8.005471	-0.006312	-0.009502	0.001702	-0.655029	-0.506348	-0.174561	-0.380144	-0.267698	0.126562	-0.876248
62390		5.497581	-0.170594	8.014583	-0.006349	-0.010365	0.002391	-0.647705	-0.517334	-0.163818	-0.380075	-0.267722	0.126651	-0.876257
62391		5.496283	-0.178393	8.028589	-0.004230	-0.008197	0.001414	-0.649658	-0.513184	-0.174072	-0.380107	-0.267774	0.126688	-0.876223
62392		5.500009	-0.184291	8.019586	-0.002168	-0.006668	-0.000404	-0.653564	-0.517578	-0.169922	-0.380138	-0.267785	0.126715	-0.876202
62393		5.498633	-0.150847	8.019968	-0.001648	-0.006015	-0.001413	-0.647461	-0.510254	-0.175293	-0.380177	-0.267811	0.126715	-0.876177
62394		5.490052	-0.174164	8.007337	-0.002399	-0.006676	0.000522	-0.645020	-0.512207	-0.177002	-0.380194	-0.267813	0.126752	-0.876164
62395		5.501424	-0.179892	8.025034	0.000742	-0.004285	-0.000258	-0.651123	-0.511719	-0.180908	-0.380244	-0.267799	0.126750	-0.876147
62396		5.493000	-0.180965	8.034435	-0.000317	-0.005370	0.000232	-0.654297	-0.512207	-0.179443	-0.380258	-0.267781	0.126768	-0.876143
62397		5.488663	-0.164241	8.021159	-0.001766	-0.004744	0.001195	-0.645508	-0.517090	-0.177246	-0.380251	-0.267754	0.126795	-0.876151
62398		5.479944	-0.187661	8.008620	-0.002169	-0.006670	-0.000402	-0.647217	-0.509766	-0.168213	-0.380340	-0.267756	0.126839	-0.876105
62399		5.515378	-0.179933	8.011807	-0.001953	-0.007749	0.000891	-0.654053	-0.510254	-0.170654	-0.380332	-0.267795	0.126856	-0.876094
62400		5.486480	-0.160323	8.013103	-0.002940	-0.007109	0.000004	-0.647217	-0.507324	-0.176514	-0.380309	-0.267818	0.126878	-0.876094
62401		5.485539	-0.177682	7.998032	-0.003899	-0.010553	0.000106	-0.650391	-0.512695	-0.172363	-0.380310	-0.267851	0.126949	-0.876073
62402		5.509953	-0.166119	8.018841	-0.002587	-0.009685	0.000221	-0.646729	-0.509033	-0.176758	-0.380321	-0.267897	0.126991	-0.876048
62403		5.492295	-0.190898	8.016060	-0.003365	-0.006262	0.001167	-0.653320	-0.513184	-0.167236	-0.380331	-0.267883	0.127042	-0.876040
62404		5.481108	-0.180716	8.004672	-0.001435	-0.007097	-0.000117	-0.653809	-0.510254	-0.179199	-0.380325	-0.267926	0.127040	-0.876030
62405		5.503955	-0.152256	8.026295	-0.004130	-0.010564	0.001034	-0.645508	-0.507812	-0.168213	-0.380307	-0.267951	0.127119	-0.876019
62406		5.509370	-0.175135	8.016368	-0.002725	-0.008192	0.001300	-0.652588	-0.512695	-0.186279	-0.380294	-0.267989	0.127150	-0.876009
62407		5.489449	-0.194802	8.021602	-0.002919	-0.007336	0.001537	-0.647217	-0.511230	-0.169434	-0.380310	-0.267960	0.127225	-0.876000
62408		5.489070	-0.190525	8.028303	-0.004671	-0.010997	0.000517	-0.656250	-0.509766	-0.173828	-0.380327	-0.268018	0.127292	-0.875965
62409		5.509529	-0.160830	7.999951	-0.004361	-0.010575	0.001962	-0.651855	-0.512939	-0.176270	-0.380273	-0.268059	0.127358	-0.875966
62410		5.503398	-0.180336	8.008037	-0.006968	-0.008677	0.003808	-0.652344	-0.507324	-0.175049	-0.380265	-0.268056	0.127466	-0.875955
62411		5.503274	-0.205337	8.021514	-0.003898	-0.008010	0.004400	-0.643555	-0.513672	-0.170410	-0.380194	-0.268060	0.127529	-0.875975
62412		5.494100	-0.200651	8.002283	-0.001983	-0.003669	-0.000094	-0.644775	-0.509277	-0.168213	-0.380265	-0.268048	0.127540	-0.875946
62413		5.499658	-0.189243	8.007739	0.000329	-0.002352	-0.001314	-0.660645	-0.506836	-0.169678	-0.380298	-0.268041	0.127503	-0.875940
62414		5.496030	-0.178571	8.023180	0.001416	-0.005354	-0.000816	-0.647217	-0.510010	-0.177734	-0.380210	-0.268071	0.127452	-0.875976
62415		5.507717	-0.194024	8.011737	0.000199	-0.004720	-0.000776	-0.656006	-0.512207	-0.173340	-0.380244	-0.268057	0.127455	-0.875965
62416		5.500440	-0.193026	7.984767	0.003476	-0.003820	-0.002641	-0.648682	-0.509766	-0.166504	-0.380245	-0.268071	0.127389	-0.875970
62417		5.504737	-0.153764	8.019792	0.001358	-0.005994	-0.001656	-0.655273	-0.511475	-0.175049	-0.380249	-0.268117	0.127348	-0.875960
62418		5.504077	-0.186788	8.004760	0.001894	-0.001699	-0.000598	-0.652100	-0.512207	-0.170898	-0.380237	-0.268090	0.127301	-0.875980
62419		5.515581	-0.179779	8.015669	0.005423	-0.001016	-0.001859	-0.647949	-0.515869	-0.175537	-0.380244	-0.268089	0.127202	-0.875993
62420		5.509177	-0.173281	8.010572	0.003371	0.002403	-0.001714	-0.648438	-0.510498	-0.178223	-0.380321	-0.268024	0.127130	-0.875989
62421		5.505619	-0.178877	8.026232	0.004418	0.002402	0.000012	-0.644775	-0.510986	-0.177490	-0.380338	-0.267949	0.127055	-0.876016
62422		5.493870	-0.183913	8.015537	0.005418	0.002848	-0.001320	-0.651855	-0.504883	-0.174316	-0.380389	-0.267878	0.126966	-0.876028
62423		5.491124	-0.177482	8.023918	0.005670	0.002631	-0.000716	-0.655762	-0.503418	-0.176270	-0.380336	-0.267821	0.126851	-0.876085
62424		5.484544	-0.170986	8.018936	0.004012	0.000473	-0.001582	-0.646973	-0.511963	-0.164062	-0.380264	-0.267775	0.126761	-0.876144
62425		5.481412	-0.158702	7.998375	0.001264	-0.001081	0.003019	-0.640137	-0.513672	-0.171143	-0.380241	-0.267769	0.126708	-0.876163
62426		5.480976	-0.189173	8.041315	-0.002095	-0.002396	0.002514	-0.645752	-0.509033	-0.176025	-0.380305	-0.267736	0.126729	-0.876142
62427		5.476489	-0.172797	8.028132	-0.002401	-0.006684	0.000532	-0.643311	-0.504883	-0.171387	-0.380323	-0.267734	0.126769	-0.876129
62428		5.493542	-0.177724	8.022258	-0.003713	-0.007555	0.000422	-0.647217	-0.507568	-0.177246	-0.380317	-0.267749	0.126812	-0.876121
62429		5.482836	-0.196097	8.017544	-0.001378	-0.006463	0.000730	-0.645508	-0.514404	-0.170898	-0.380313	-0.267745	0.126840	-0.876120
62430		5.479585	-0.167833	7.996787	-0.001860	-0.006254	0.001052	-0.651611	-0.509766	-0.174316	-0.380358	-0.267761	0.126864	-0.876092
62431		5.504812	-0.173082	8.017277	-0.002725	-0.008198	0.001309	-0.645264	-0.515625	-0.170654	-0.380333	-0.267782	0.126905	-0.876091
62432		5.492100	-0.186391	8.020415	-0.002184	-0.007767	0.001827	-0.650635	-0.512939	-0.172607	-0.380380	-0.267813	0.126944	-0.876055
62433		5.492446	-0.170183	8.019914	-0.003833	-0.008837	-0.001256	-0.647461	-0.509521	-0.166748	-0.380416	-0.267846	0.126991	-0.876023
62434		5.486128	-0.188744	8.028189	-0.001449	-0.008194	0.002110	-0.649658	-0.511963	-0.175781	-0.380386	-0.267896	0.127005	-0.876018
62435		5.505312	-0.198439	8.014347	0.000163	-0.005587	-0.000084	-0.656982	-0.513184	-0.171631	-0.380404	-0.267899	0.127006	-0.876009
62436		5.492256	-0.170631	8.004037	0.000810	-0.002562	-0.001634	-0.645996	-0.515381	-0.170898	-0.380401	-0.267892	0.126962	-0.876019
62437		5.489737	-0.176927	8.018989	0.000605	-0.002795	0.000821	-0.643311	-0.514404	-0.176270	-0.380453	-0.267882	0.126943	-0.876002
62438		5.494580	-0.187224	8.002696	0.000641	-0.001930	0.000131	-0.643555	-0.516846	-0.178955	-0.380530	-0.267843	0.126936	-0.875982
62439		5.482322	-0.166065	8.021059	0.001510	-0.003853	-0.000663	-0.651855	-0.512207	-0.169922	-0.380633	-0.267823	0.126934	-0.875944
62440		5.505736	-0.163796	8.013578	0.000352	-0.002578	0.000217	-0.650635	-0.509033	-0.168701	-0.380631	-0.267815	0.126902	-0.875952
62441		5.484842	-0.182603	8.019589	0.001087	-0.003004	0.000499	-0.645020	-0.513184	-0.169189	-0.380598	-0.267817	0.126859	-0.875971
62442		5.486377	-0.170645	8.011806	0.001256	-0.003636	-0.001267	-0.649170	-0.510254	-0.179932	-0.380652	-0.267827	0.126824	-0.875950
62443		5.477582	-0.171322	8.021565	0.001893	-0.001700	-0.000599	-0.646729	-0.517822	-0.179688	-0.380665	-0.267781	0.126795	-0.875963
62444		5.507970	-0.162665	8.012065	0.001087	-0.003004	0.000499	-0.651123	-0.515869	-0.169678	-0.380749	-0.267747	0.126798	-0.875936
62445		5.500639	-0.180537	8.021064	0.001053	-0.003869	0.001189	-0.651367	-0.508057	-0.173828	-0.380770	-0.267756	0.126773	-0.875928
62446		5.491867	-0.163244	7.994831	0.000799	-0.003652	0.000585	-0.653809	-0.514893	-0.173828	-0.380728	-0.267746	0.126747	-0.875953
62447		5.491606	-0.164806	8.030732	-0.001055	-0.004954	-0.000041	-0.643066	-0.504150	-0.180664	-0.380750	-0.267745	0.126753	-0.875943
62448		5.481388	-0.171228	8.018967	-0.001825	-0.005394	0.000367	-0.651123	-0.512939	-0.178223	-0.380729	-0.267714	0.126784	-0.875957
62449		5.489570	-0.165252	8.016117	-0.000006	-0.004957	0.001684	-0.654297	-0.516602	-0.169922	-0.380730	-0.267699	0.126795	-0.875959
62450		5.491897	-0.182165	8.014769	-0.000345	-0.005156	-0.001289	-0.647461	-0.515137	-0.179443	-0.380772	-0.267721	0.126782	-0.875937
62451		5.487527	-0.183349	8.037503	0.000292	-0.003220	-0.000622	-0.647217	-0.514648	-0.163574	-0.380840	-0.267687	0.126785	-0.875917
62452		5.495366	-0.176937	8.034895	0.000799	-0.003653	0.000586	-0.641602	-0.515869	-0.179199	-0.380871	-0.267714	0.126746	-0.875901
62453		5.494954	-0.170142	8.005937	0.001087	-0.003005	0.000499	-0.647461	-0.510742	-0.174805	-0.380960	-0.267679	0.126750	-0.875872
62454		5.501797	-0.175345	8.010754	0.001630	-0.002573	0.001017	-0.651855	-0.505615	-0.177246	-0.380955	-0.267657	0.126720	-0.875885
62455		5.482329	-0.160615	8.031330	0.001148	-0.002364	0.001339	-0.651855	-0.502930	-0.178467	-0.380877	-0.267622	0.126689	-0.875935
62456		5.486048	-0.182304	8.022539	0.003011	0.000027	-0.000255	-0.656738	-0.509766	-0.159424	-0.380789	-0.267567	0.126619	-0.876000
62457		5.492202	-0.158530	8.020843	0.003075	-0.003201	0.000050	-0.643555	-0.503662	-0.172852	-0.380714	-0.267617	0.126521	-0.876031
62458		5.486601	-0.181005	8.022191	0.003046	0.000891	-0.000945	-0.648682	-0.509033	-0.174072	-0.380687	-0.267570	0.126443	-0.876069
62459		5.495767	-0.179410	8.012178	0.001566	0.000654	0.000712	-0.648926	-0.513428	-0.174072	-0.380670	-0.267515	0.126393	-0.876100
62460		5.483040	-0.157990	8.030897	0.004193	-0.001473	0.000395	-0.641846	-0.510986	-0.175049	-0.380685	-0.267499	0.126329	-0.876107
62461		5.478683	-0.169265	8.024636	-0.000488	-0.004748	0.002008	-0.640137	-0.509766	-0.173340	-0.380711	-0.267486	0.126345	-0.876098
62462		5.493174	-0.168763	8.026957	-0.001318	-0.005828	0.001578	-0.645020	-0.514160	-0.168945	-0.380736	-0.267487	0.126369	-0.876083
62463		5.478296	-0.164760	8.031392	0.000955	-0.001507	0.001575	-0.645752	-0.510010	-0.171143	-0.380770	-0.267471	0.126337	-0.876078
62464		5.487697	-0.163624	8.021202	0.000288	0.000648	-0.000087	-0.648438	-0.512695	-0.167236	-0.380786	-0.267421	0.126295	-0.876092
62465		5.478462	-0.164961	8.031274	-0.000779	-0.001528	0.002629	-0.650391	-0.512207	-0.174072	-0.380779	-0.267402	0.126275	-0.876104
62466		5.475994	-0.171841	8.046211	-0.001249	-0.004099	0.000197	-0.644775	-0.505371	-0.171143	-0.380790	-0.267388	0.126279	-0.876103
62467		5.478836	-0.148783	8.030759	-0.001440	-0.007110	-0.000100	-0.648193	-0.517090	-0.172363	-0.380759	-0.267414	0.126285	-0.876108
62468		5.483903	-0.181415	7.992015	-0.002403	-0.006692	0.000545	-0.649414	-0.513428	-0.170654	-0.380822	-0.267430	0.126321	-0.876070
62469		5.478807	-0.166296	8.015011	-0.001186	-0.007328	0.000504	-0.648193	-0.517334	-0.170898	-0.380837	-0.267464	0.126335	-0.876051
62470		5.479777	-0.166499	8.014344	-0.000130	-0.002371	0.000542	-0.652588	-0.521973	-0.171631	-0.380901	-0.267448	0.126323	-0.876030
62471		5.485385	-0.155118	8.019754	-0.000225	-0.003877	0.000393	-0.648438	-0.514893	-0.172363	-0.380991	-0.267447	0.126324	-0.875991
62472		5.482336	-0.173230	8.041862	0.000737	-0.004296	-0.000252	-0.645996	-0.509521	-0.175293	-0.381035	-0.267452	0.126308	-0.875973
62473		5.482018	-0.166659	8.012808	-0.001985	-0.003674	-0.000082	-0.654053	-0.504150	-0.180908	-0.381043	-0.267425	0.126319	-0.875976
62474		5.481813	-0.178270	8.019706	0.002338	-0.002777	-0.000232	-0.656982	-0.510742	-0.179932	-0.380953	-0.267390	0.126275	-0.876032
62475		5.478945	-0.156086	8.027939	-0.000164	-0.003237	0.001232	-0.649902	-0.515625	-0.169189	-0.380908	-0.267352	0.126272	-0.876064
62476		5.484016	-0.166549	8.011443	0.000510	-0.004304	0.000674	-0.647217	-0.507324	-0.177246	-0.380938	-0.267366	0.126253	-0.876049
62477		5.469295	-0.162298	8.015801	0.000764	-0.004521	0.001278	-0.650635	-0.514893	-0.174805	-0.380898	-0.267353	0.126242	-0.876072
62478		5.478327	-0.162682	8.041636	-0.000191	-0.003012	-0.000297	-0.643066	-0.513428	-0.167236	-0.380937	-0.267332	0.126234	-0.876062
62479		5.478952	-0.162868	8.041207	-0.000391	-0.003245	0.002159	-0.641113	-0.512939	-0.178467	-0.380965	-0.267332	0.126223	-0.876052
62480		5.475609	-0.163042	8.027481	-0.001538	-0.004749	0.000287	-0.648682	-0.512451	-0.168213	-0.381029	-0.267307	0.126255	-0.876027
62481		5.470238	-0.158101	8.021658	-0.000968	-0.004542	0.002333	-0.653320	-0.510986	-0.183105	-0.381019	-0.267316	0.126252	-0.876029
62482		5.483804	-0.169541	8.031344	-0.003814	-0.005202	0.000826	-0.647705	-0.515625	-0.178955	-0.381010	-0.267272	0.126308	-0.876038
62483		5.472463	-0.159635	8.020110	-0.002920	-0.007352	0.001562	-0.647217	-0.515869	-0.169922	-0.381058	-0.267268	0.126370	-0.876010
62484		5.484661	-0.166229	8.037244	-0.005099	-0.010169	0.001718	-0.648438	-0.509033	-0.170166	-0.381104	-0.267315	0.126450	-0.875964
62485		5.484498	-0.172371	8.014799	-0.004233	-0.008224	0.001457	-0.650879	-0.509033	-0.184570	-0.381077	-0.267343	0.126496	-0.875960
62486		5.475006	-0.169514	8.031595	-0.005931	-0.011252	0.001291	-0.651611	-0.510254	-0.171875	-0.381053	-0.267349	0.126607	-0.875953
62487		5.491938	-0.158339	8.025437	-0.006157	-0.015133	0.001686	-0.646973	-0.513428	-0.176514	-0.381019	-0.267438	0.126712	-0.875925
62488		5.482472	-0.177472	8.019903	-0.005196	-0.011681	0.001574	-0.646729	-0.516602	-0.180420	-0.381049	-0.267478	0.126812	-0.875886
62489		5.511078	-0.186413	7.995634	0.000509	-0.004307	0.000674	-0.648193	-0.512207	-0.173584	-0.381118	-0.267453	0.126826	-0.875861
62490		5.500991	-0.170465	8.006132	0.001443	-0.000628	-0.000970	-0.645752	-0.506348	-0.176758	-0.381150	-0.267418	0.126781	-0.875864
62491		5.483500	-0.160759	8.018976	0.001438	-0.001719	0.001251	-0.648193	-0.510742	-0.174316	-0.381105	-0.267380	0.126747	-0.875901
62492		5.480333	-0.178884	8.041200	-0.000034	-0.004739	0.000159	-0.651611	-0.507080	-0.168945	-0.381107	-0.267378	0.126740	-0.875901
62493		5.489418	-0.161103	8.030943	-0.001636	-0.006260	0.000142	-0.650146	-0.511475	-0.176025	-0.381053	-0.267404	0.126734	-0.875918
62494		5.492678	-0.166645	8.022166	-0.001285	-0.004970	0.000893	-0.645752	-0.516602	-0.174561	-0.381052	-0.267393	0.126749	-0.875920
62495		5.485368	-0.184574	8.031210	0.001890	-0.001703	-0.000602	-0.646484	-0.507812	-0.173340	-0.381134	-0.267368	0.126718	-0.875896
62496		5.486461	-0.172474	8.023711	0.001698	-0.000845	-0.000367	-0.644775	-0.517822	-0.171387	-0.381118	-0.267336	0.126665	-0.875920
62497		5.483155	-0.150034	8.032300	0.002241	-0.000413	0.000149	-0.650635	-0.512207	-0.172119	-0.381208	-0.267308	0.126623	-0.875896
62498		5.484113	-0.178515	8.038630	-0.000741	-0.004538	0.001410	-0.646484	-0.521973	-0.172119	-0.381200	-0.267308	0.126622	-0.875899
62499		5.490055	-0.177247	8.014719	0.000225	-0.003865	-0.001458	-0.651611	-0.515381	-0.176758	-0.381346	-0.267309	0.126622	-0.875836
62500		5.464331	-0.157161	8.030275	0.000510	-0.000435	0.001207	-0.644775	-0.511475	-0.171387	-0.381377	-0.267254	0.126604	-0.875841
62501		5.486782	-0.167037	8.030040	-0.001030	-0.005188	0.001498	-0.648682	-0.509033	-0.168945	-0.381384	-0.267261	0.126611	-0.875836
62502		5.486564	-0.150703	8.029960	-0.001799	-0.005628	0.001909	-0.646484	-0.516602	-0.175049	-0.381343	-0.267276	0.126616	-0.875848
62503		5.486064	-0.174619	8.043819	-0.001064	-0.006055	0.002189	-0.651367	-0.508789	-0.177490	-0.381394	-0.267279	0.126648	-0.875820
62504		5.474673	-0.164464	8.032650	-0.002088	-0.006278	0.001998	-0.643066	-0.508545	-0.175293	-0.381343	-0.267272	0.126676	-0.875841
62505		5.486364	-0.180637	8.021024	-0.002114	-0.004960	-0.001753	-0.650391	-0.509033	-0.168213	-0.381365	-0.267262	0.126687	-0.875832
62506		5.495202	-0.162720	8.010922	0.000798	-0.003660	0.000588	-0.654297	-0.512939	-0.176758	-0.381327	-0.267273	0.126647	-0.875851
62507		5.484566	-0.158671	8.028588	-0.000227	-0.003883	0.000396	-0.649170	-0.515869	-0.174316	-0.381326	-0.267255	0.126643	-0.875858
62508		5.481629	-0.176977	8.050677	-0.000516	-0.004532	0.000484	-0.649658	-0.516357	-0.174316	-0.381376	-0.267249	0.126651	-0.875836
62509		5.472819	-0.159945	8.024438	-0.001252	-0.004105	0.000205	-0.654297	-0.509521	-0.177979	-0.381437	-0.267236	0.126665	-0.875812
62510		5.478056	-0.170593	8.007745	-0.001093	-0.005831	0.000661	-0.642334	-0.510498	-0.174561	-0.381394	-0.267230	0.126676	-0.875831
62511		5.482569	-0.182765	8.027444	-0.001349	-0.005614	0.000058	-0.648926	-0.510742	-0.180420	-0.381418	-0.267231	0.126690	-0.875818
62512		5.470892	-0.172268	8.016485	-0.001507	-0.003888	-0.000398	-0.643066	-0.511230	-0.175781	-0.381428	-0.267194	0.126705	-0.875823
62513		5.486037	-0.160149	8.011523	-0.001991	-0.004772	0.002147	-0.651611	-0.514404	-0.173828	-0.381439	-0.267176	0.126734	-0.875820
62514		5.481190	-0.173474	8.041481	0.000156	-0.005601	-0.000074	-0.653076	-0.508789	-0.181396	-0.381465	-0.267189	0.126731	-0.875805
62515		5.474109	-0.173041	8.014271	-0.000485	-0.007542	-0.000736	-0.650391	-0.509277	-0.175049	-0.381430	-0.267195	0.126745	-0.875816
62516		5.476358	-0.161643	8.005960	-0.002407	-0.006705	0.000559	-0.643799	-0.508301	-0.177490	-0.381404	-0.267202	0.126770	-0.875822
62517		5.473683	-0.180078	8.027884	0.000253	-0.004094	0.000073	-0.653076	-0.517578	-0.176270	-0.381397	-0.267185	0.126761	-0.875831
62518		5.493896	-0.156029	8.028717	0.000220	-0.004961	0.000765	-0.649414	-0.515137	-0.179199	-0.381444	-0.267182	0.126768	-0.875810
62519		5.473582	-0.174942	8.034520	-0.000389	-0.006034	-0.000588	-0.655029	-0.506104	-0.175049	-0.381497	-0.267179	0.126787	-0.875785
62520		5.482065	-0.168961	8.031410	-0.002696	-0.007356	0.000649	-0.648193	-0.520264	-0.173096	-0.381412	-0.267193	0.126806	-0.875815
62521		5.490826	-0.163309	8.028100	-0.001737	-0.008868	0.002224	-0.648926	-0.508301	-0.170898	-0.381493	-0.267232	0.126861	-0.875761
62522		5.487481	-0.175455	8.021112	-0.002985	-0.008006	0.000739	-0.652344	-0.510986	-0.170654	-0.381457	-0.267263	0.126888	-0.875763
62523		5.490264	-0.192706	8.019400	-0.000422	-0.006903	0.000104	-0.648438	-0.514160	-0.175537	-0.381437	-0.267298	0.126883	-0.875762
62524		5.493116	-0.159381	8.033079	-0.000805	-0.005185	0.000575	-0.651367	-0.516602	-0.173096	-0.381472	-0.267294	0.126897	-0.875746
62525		5.482731	-0.165586	8.021455	-0.000292	-0.004527	-0.000440	-0.645020	-0.503418	-0.177734	-0.381531	-0.267296	0.126896	-0.875720
62526		5.490137	-0.170823	8.025855	0.001371	-0.006241	-0.000118	-0.649902	-0.509766	-0.181885	-0.381455	-0.267306	0.126872	-0.875753
62527		5.497608	-0.176020	8.030211	0.000700	-0.005173	0.000442	-0.647461	-0.510742	-0.178223	-0.381434	-0.267288	0.126872	-0.875768
62528		5.470493	-0.161192	8.024258	-0.001318	-0.005845	0.001593	-0.656738	-0.513672	-0.169434	-0.381426	-0.267277	0.126898	-0.875771
62529		5.487242	-0.165622	8.018369	0.000891	-0.006032	0.000207	-0.653564	-0.515381	-0.171875	-0.381410	-0.267314	0.126873	-0.875770
62530		5.485678	-0.172451	8.032788	-0.002921	-0.007368	0.001581	-0.645508	-0.519775	-0.173096	-0.381424	-0.267336	0.126913	-0.875751
62531		5.487672	-0.171344	7.995437	0.000219	-0.004964	0.000767	-0.639404	-0.507324	-0.179199	-0.381528	-0.267342	0.126924	-0.875703
62532		5.483598	-0.183102	7.988951	-0.001766	-0.004768	0.001226	-0.651855	-0.516846	-0.176270	-0.381520	-0.267313	0.126949	-0.875711
62533		5.489511	-0.161950	8.023365	-0.001188	-0.003468	0.001048	-0.647705	-0.512695	-0.173096	-0.381570	-0.267286	0.126966	-0.875695
62534		5.487436	-0.168907	8.038136	-0.001766	-0.004769	0.001226	-0.650391	-0.508057	-0.183594	-0.381586	-0.267280	0.126982	-0.875688
62535		5.490350	-0.174447	8.029551	-0.000964	-0.003460	0.000121	-0.653320	-0.512207	-0.165527	-0.381553	-0.267230	0.126990	-0.875716
62536		5.496197	-0.163258	8.034812	-0.000741	-0.004546	0.001416	-0.644775	-0.515137	-0.164795	-0.381531	-0.267253	0.126971	-0.875722
62537		5.494841	-0.168174	8.013110	0.002046	-0.003434	-0.000149	-0.643311	-0.511230	-0.171631	-0.381588	-0.267281	0.126924	-0.875695
62538		5.479823	-0.163724	8.017838	0.000415	-0.001946	0.001060	-0.639404	-0.517334	-0.173340	-0.381603	-0.267259	0.126899	-0.875699
62539		5.488824	-0.174365	8.014549	-0.000228	-0.003888	0.000400	-0.647461	-0.507080	-0.177490	-0.381712	-0.267249	0.126910	-0.875653
62540		5.485341	-0.163907	8.030109	0.001309	-0.003006	-0.000428	-0.646973	-0.518066	-0.171143	-0.381672	-0.267227	0.126874	-0.875682
62541		5.492584	-0.169217	8.034613	-0.000615	-0.006048	0.000343	-0.648193	-0.514893	-0.177979	-0.381757	-0.267248	0.126890	-0.875636
62542		5.496098	-0.174843	8.025610	-0.002731	-0.008230	0.001350	-0.647217	-0.510986	-0.163818	-0.381793	-0.267259	0.126949	-0.875609
62543		5.486117	-0.181531	8.013702	-0.001318	-0.005848	0.001596	-0.653809	-0.505859	-0.174316	-0.381780	-0.267297	0.126943	-0.875604
62544		5.492099	-0.170412	8.018868	-0.000965	-0.003461	0.000122	-0.648193	-0.511230	-0.172119	-0.381702	-0.267279	0.126922	-0.875647
62545		5.479256	-0.171579	8.015521	-0.000899	-0.002819	0.000961	-0.651367	-0.511963	-0.176270	-0.381700	-0.267259	0.126912	-0.875655
62546		5.488975	-0.160394	8.034187	0.000927	-0.001287	0.000043	-0.646484	-0.508545	-0.174561	-0.381703	-0.267219	0.126881	-0.875670
62547		5.482359	-0.166647	8.036042	-0.000229	-0.003889	0.000401	-0.638672	-0.513916	-0.174805	-0.381680	-0.267207	0.126868	-0.875686
62548		5.507321	-0.181610	8.027349	-0.000616	-0.006050	0.000345	-0.649902	-0.507812	-0.179932	-0.381751	-0.267215	0.126888	-0.875650
