// Start Time: Unknown
// Update Rate: 40.0Hz
// Filter Profile: human (46.1)
// Firmware Version: 4.6.0
PacketCounter	SampleTimeFine	Acc_X	Acc_Y	Acc_Z	Gyr_X	Gyr_Y	Gyr_Z	Mag_X	Mag_Y	Mag_Z	Quat_q0	Quat_q1	Quat_q2	Quat_q3
61647		9.420531	1.363786	2.165637	-0.048336	0.046102	0.001136	-0.808594	-0.425049	0.234863	-0.301323	-0.604313	0.155578	-0.720976
61648		9.418734	1.309664	2.248601	-0.067556	0.042559	0.010476	-0.812256	-0.422119	0.227295	-0.301822	-0.603654	0.156105	-0.721205
61649		9.385554	1.317945	2.233266	-0.070421	0.046648	0.018777	-0.808350	-0.422363	0.217285	-0.302276	-0.602922	0.156708	-0.721496
61650		9.377527	1.337159	2.234253	-0.068093	0.038578	0.023392	-0.815186	-0.423340	0.223877	-0.302729	-0.602240	0.157329	-0.721741
61651		9.372721	1.346227	2.258871	-0.072976	0.027027	0.024134	-0.814453	-0.423096	0.212646	-0.303122	-0.601664	0.158064	-0.721896
61652		9.398022	1.339659	2.244048	-0.069773	0.026814	0.025033	-0.807129	-0.425293	0.214844	-0.303551	-0.601070	0.158754	-0.722059
61653		9.443825	1.267537	2.247303	-0.056838	0.031859	0.021143	-0.818604	-0.419434	0.208984	-0.303945	-0.600479	0.159272	-0.722271
61654		9.479996	1.249739	2.221319	-0.057374	0.044234	0.021171	-0.810059	-0.425781	0.211914	-0.304308	-0.599790	0.159772	-0.722580
61655		9.466850	1.222840	2.236384	-0.051499	0.056772	0.021482	-0.809082	-0.422363	0.211426	-0.304690	-0.598993	0.160170	-0.722991
61656		9.393009	1.184306	2.298868	-0.042738	0.064110	0.019252	-0.803223	-0.410889	0.209473	-0.304997	-0.598179	0.160469	-0.723470
61657		9.340706	1.137010	2.275530	-0.045776	0.068676	0.021135	-0.814941	-0.414307	0.196777	-0.305232	-0.597312	0.160834	-0.724006
61658		9.343067	1.145285	2.267769	-0.041187	0.062578	0.018393	-0.810791	-0.421631	0.205811	-0.305486	-0.596500	0.161167	-0.724494
61659		9.391037	1.084699	2.286871	-0.028789	0.055030	0.012799	-0.803223	-0.424561	0.192139	-0.305694	-0.595844	0.161373	-0.724900
61660		9.384346	1.086833	2.361786	-0.017655	0.049079	0.012482	-0.809814	-0.413574	0.201172	-0.305888	-0.595208	0.161524	-0.725306
61661		9.387766	1.125076	2.374889	-0.014715	0.053206	0.012409	-0.814697	-0.418213	0.193848	-0.305915	-0.594600	0.161675	-0.725761
61662		9.317676	1.140161	2.355946	0.002037	0.060165	0.000985	-0.812988	-0.413818	0.197754	-0.305979	-0.593969	0.161579	-0.726272
61663		9.284637	1.069173	2.409931	-0.006477	0.041093	-0.002662	-0.811768	-0.412842	0.184570	-0.306046	-0.593518	0.161607	-0.726606
61664		9.333483	1.127328	2.376409	-0.027226	0.018894	0.001178	-0.815918	-0.415039	0.197510	-0.306238	-0.593093	0.161983	-0.726788
61665		9.358153	1.150484	2.414859	0.006429	-0.003074	-0.008827	-0.812012	-0.419922	0.202637	-0.306155	-0.593104	0.162027	-0.726804
61666		9.406968	1.175509	2.331525	0.027592	0.019600	-0.013262	-0.815918	-0.422607	0.192139	-0.306035	-0.593023	0.161732	-0.726986
61667		9.400589	1.172232	2.327365	0.019938	0.037776	-0.017454	-0.813232	-0.424805	0.196289	-0.306104	-0.592688	0.161462	-0.727290
61668		9.344347	1.133241	2.403213	0.036140	0.031731	-0.023496	-0.817627	-0.406494	0.194824	-0.306104	-0.592526	0.161000	-0.727525
61669		9.290654	1.113633	2.461217	0.045937	0.021587	-0.021845	-0.811279	-0.423584	0.195801	-0.305805	-0.592507	0.160502	-0.727776
61670		9.350892	1.171190	2.461879	0.043152	0.001841	-0.018952	-0.817871	-0.417480	0.201172	-0.305657	-0.592625	0.160122	-0.727826
61671		9.478201	1.185709	2.402050	0.050675	0.003611	-0.016960	-0.805908	-0.420410	0.199219	-0.305301	-0.592782	0.159656	-0.727950
61672		9.474188	1.206098	2.430277	0.045289	0.014389	-0.015289	-0.811768	-0.416504	0.202881	-0.305128	-0.592823	0.159202	-0.728089
61673		9.389315	1.265409	2.347611	0.038225	0.010433	-0.012769	-0.811768	-0.422363	0.200439	-0.304865	-0.592893	0.158833	-0.728222
61674		9.366213	1.274360	2.448114	0.016625	0.006306	-0.012087	-0.818848	-0.420654	0.192871	-0.304831	-0.592897	0.158693	-0.728264
61675		9.346152	1.259544	2.433383	0.027458	-0.013946	-0.018240	-0.816162	-0.415771	0.196533	-0.304725	-0.593062	0.158535	-0.728208
61676		9.381754	1.242217	2.461461	0.028746	-0.019612	-0.018352	-0.810059	-0.414795	0.207275	-0.304548	-0.593327	0.158341	-0.728108
61677		9.422208	1.244211	2.452233	0.012855	-0.016034	-0.015725	-0.808350	-0.426758	0.195801	-0.304426	-0.593601	0.158203	-0.727966
61678		9.377336	1.235979	2.476298	0.002931	-0.021975	-0.011776	-0.819336	-0.417480	0.191650	-0.304587	-0.593752	0.158296	-0.727755
61679		9.413163	1.258728	2.468253	0.005205	-0.021640	-0.009032	-0.816406	-0.415527	0.195801	-0.304541	-0.593840	0.158428	-0.727674
61680		9.404446	1.249293	2.430878	0.001070	-0.013139	-0.011233	-0.816895	-0.411133	0.196533	-0.304531	-0.593887	0.158504	-0.727623
61681		9.331439	1.242191	2.401421	0.004782	-0.005184	-0.011984	-0.816895	-0.415527	0.193848	-0.304448	-0.593888	0.158498	-0.727658
61682		9.331345	1.272576	2.425315	0.002526	-0.000589	-0.015639	-0.814209	-0.419434	0.202393	-0.304515	-0.593808	0.158491	-0.727697
61683		9.369077	1.294140	2.414058	-0.001633	0.002860	-0.019762	-0.807861	-0.420898	0.198486	-0.304641	-0.593789	0.158396	-0.727681
61684		9.388505	1.274868	2.463929	-0.012500	0.005052	-0.019969	-0.818359	-0.424072	0.198486	-0.304978	-0.593687	0.158409	-0.727620
61685		9.391363	1.259882	2.452163	-0.015003	0.015013	-0.017517	-0.816162	-0.423584	0.200684	-0.305266	-0.593440	0.158434	-0.727695
61686		9.394183	1.283128	2.353531	-0.025089	0.021147	-0.015542	-0.818359	-0.413574	0.195801	-0.305602	-0.593137	0.158512	-0.727785
61687		9.361533	1.289416	2.377469	-0.026455	0.015443	-0.016379	-0.816895	-0.420166	0.191650	-0.305811	-0.592843	0.158650	-0.727906
61688		9.373708	1.257669	2.441746	-0.021314	0.013471	-0.015600	-0.812012	-0.421875	0.196777	-0.306133	-0.592541	0.158783	-0.727987
61689		9.380080	1.265173	2.447702	-0.011931	0.020179	-0.008338	-0.811768	-0.422852	0.198975	-0.306329	-0.592294	0.158801	-0.728103
61690		9.354161	1.279664	2.527065	-0.018063	0.024970	-0.005225	-0.813477	-0.420166	0.194824	-0.306532	-0.592010	0.158855	-0.728235
61691		9.309175	1.287933	2.412402	-0.002534	0.013029	-0.009742	-0.810791	-0.424561	0.192627	-0.306620	-0.591849	0.158808	-0.728340
61692		9.363493	1.204326	2.452268	-0.021044	0.000234	-0.005754	-0.810303	-0.425537	0.196533	-0.306911	-0.591709	0.159016	-0.728286
61693		9.357957	1.214363	2.501423	-0.039417	-0.007496	0.002336	-0.815186	-0.421143	0.197998	-0.307210	-0.591614	0.159448	-0.728142
61694		9.314983	1.262800	2.475192	0.005693	-0.029498	-0.005102	-0.813721	-0.421875	0.193115	-0.307044	-0.591913	0.159500	-0.727958
61695		9.384543	1.256338	2.401811	0.014904	-0.015217	-0.005997	-0.814453	-0.419189	0.195801	-0.306949	-0.592040	0.159444	-0.727907
61696		9.427044	1.244710	2.420767	-0.004252	-0.004159	-0.000281	-0.815674	-0.420654	0.197998	-0.306876	-0.592017	0.159549	-0.727933
61697		9.357565	1.258471	2.409633	-0.002809	0.004345	0.000484	-0.813477	-0.421631	0.200928	-0.306791	-0.591951	0.159601	-0.728012
61698		9.306586	1.242096	2.416322	-0.004295	0.003778	0.002234	-0.820557	-0.416504	0.194092	-0.306699	-0.591941	0.159651	-0.728048
61699		9.354219	1.243570	2.480301	0.001373	0.001418	0.000317	-0.808350	-0.428223	0.193604	-0.306516	-0.591837	0.159728	-0.728192
61700		9.406304	1.226744	2.462275	-0.005256	-0.006167	0.007340	-0.809326	-0.425781	0.197266	-0.306656	-0.591812	0.159891	-0.728118
61701		9.424811	1.265976	2.401556	-0.012608	-0.002366	0.005190	-0.822754	-0.424805	0.195068	-0.306768	-0.591784	0.160070	-0.728054
61702		9.365385	1.246711	2.459493	-0.004820	0.004163	0.004919	-0.813232	-0.425293	0.189697	-0.306723	-0.591631	0.160202	-0.728169
61703		9.328485	1.207802	2.412507	-0.009275	0.002239	0.004495	-0.824219	-0.420410	0.195312	-0.306888	-0.591439	0.160387	-0.728214
61704		9.349004	1.237077	2.444273	-0.002589	-0.006241	0.005226	-0.807861	-0.418945	0.196777	-0.306700	-0.591395	0.160550	-0.728293
61705		9.392195	1.246216	2.370860	-0.007618	0.004333	0.007706	-0.808105	-0.425781	0.196045	-0.306657	-0.591337	0.160688	-0.728328
61706		9.361115	1.246730	2.457534	-0.017961	0.006251	0.007664	-0.818604	-0.408203	0.189697	-0.306843	-0.591214	0.160897	-0.728303
61707		9.358870	1.171979	2.425396	-0.013831	0.006326	0.010918	-0.813232	-0.418457	0.186523	-0.306596	-0.590940	0.161212	-0.728560
61708		9.312038	1.150958	2.356184	-0.012275	-0.008644	0.012636	-0.815430	-0.424316	0.198242	-0.306612	-0.590785	0.161559	-0.728602
61709		9.413761	1.196703	2.533045	-0.003701	-0.025205	0.014190	-0.816406	-0.410645	0.197021	-0.306451	-0.591013	0.161809	-0.728429
61710		9.394612	1.206106	2.460930	0.001813	-0.014606	0.014566	-0.817139	-0.420654	0.196045	-0.306002	-0.591125	0.162025	-0.728479
61711		9.399887	1.184693	2.443140	0.007797	-0.010723	0.013196	-0.809814	-0.421875	0.197754	-0.305767	-0.591202	0.162139	-0.728490
61712		9.378730	1.186764	2.473737	0.006485	-0.009985	0.014235	-0.812988	-0.425049	0.196533	-0.305615	-0.591329	0.162231	-0.728430
61713		9.376529	1.198124	2.432896	0.004035	-0.007209	0.015596	-0.809326	-0.420654	0.201660	-0.305539	-0.591376	0.162351	-0.728397
61714		9.376151	1.199923	2.418884	-0.001939	-0.002091	0.010932	-0.817627	-0.418701	0.193359	-0.305439	-0.591469	0.162446	-0.728343
61715		9.375571	1.174627	2.446831	-0.003972	-0.003249	0.008296	-0.810547	-0.420654	0.195557	-0.305386	-0.591374	0.162629	-0.728401
61716		9.421439	1.130275	2.433880	-0.001043	-0.003407	0.007674	-0.809814	-0.415039	0.194824	-0.305393	-0.591373	0.162736	-0.728375
61717		9.377743	1.150352	2.452897	0.000330	0.002184	0.005690	-0.818359	-0.413330	0.196777	-0.305321	-0.591316	0.162822	-0.728432
61718		9.386986	1.187603	2.513122	-0.008747	0.014738	0.003445	-0.811523	-0.412354	0.203613	-0.305231	-0.591106	0.162948	-0.728612
61719		9.342616	1.195579	2.395795	0.011144	0.002418	-0.004897	-0.822021	-0.404785	0.202637	-0.304989	-0.591267	0.162814	-0.728613
61720		9.385693	1.108717	2.374510	-0.022993	-0.002025	-0.000462	-0.816406	-0.416504	0.198730	-0.304734	-0.591246	0.163125	-0.728667
61721		9.365021	1.105965	2.486558	-0.031951	-0.007137	0.001585	-0.810303	-0.419922	0.194336	-0.304858	-0.591203	0.163492	-0.728568
61722		9.362957	1.174924	2.427879	0.014150	-0.025492	-0.005127	-0.809814	-0.417969	0.182129	-0.304847	-0.591471	0.163450	-0.728364
61723		9.443938	1.183411	2.366921	0.014355	-0.010260	-0.012776	-0.821045	-0.420654	0.196533	-0.305093	-0.591380	0.163390	-0.728348
61724		9.404587	1.146154	2.405161	0.001020	-0.001633	-0.009611	-0.813721	-0.416016	0.192627	-0.305162	-0.591365	0.163371	-0.728336
61725		9.332895	1.144712	2.409249	0.007972	-0.000984	-0.007758	-0.821533	-0.414551	0.194092	-0.305183	-0.591330	0.163322	-0.728366
61726		9.323996	1.145980	2.393990	0.007058	-0.004711	-0.006435	-0.821533	-0.417725	0.195801	-0.305075	-0.591310	0.163328	-0.728427
61727		9.398290	1.153213	2.433019	0.005109	-0.003074	-0.009158	-0.810547	-0.415527	0.195312	-0.305055	-0.591305	0.163302	-0.728445
61728		9.390341	1.149260	2.431302	0.001393	0.001946	-0.003965	-0.818604	-0.419922	0.204590	-0.305077	-0.591275	0.163305	-0.728460
61729		9.409380	1.170806	2.379778	-0.002333	0.011031	-0.003912	-0.823486	-0.412598	0.195312	-0.305040	-0.591274	0.163260	-0.728486
61730		9.382730	1.151958	2.466260	0.006227	0.016329	-0.006781	-0.819092	-0.416504	0.192627	-0.304923	-0.591072	0.163204	-0.728711
61731		9.312976	1.097836	2.467462	0.001328	-0.000317	-0.008156	-0.809570	-0.427246	0.204346	-0.304968	-0.590991	0.163223	-0.728755
61732		9.360036	1.157492	2.382733	0.006432	0.009922	-0.004337	-0.819336	-0.418213	0.201660	-0.305076	-0.591090	0.163027	-0.728673
61733		9.435199	1.169509	2.457166	-0.003383	0.011687	-0.001379	-0.816650	-0.412842	0.197510	-0.305023	-0.591023	0.163039	-0.728746
61734		9.413227	1.154555	2.435551	-0.007925	0.024771	-0.000992	-0.823730	-0.413574	0.194824	-0.305004	-0.590758	0.163086	-0.728958
61735		9.361157	1.122779	2.442011	-0.003716	0.031817	-0.000121	-0.814941	-0.409180	0.188477	-0.304957	-0.590374	0.163107	-0.729285
61736		9.343350	1.126966	2.451770	-0.001500	0.025702	0.000725	-0.826660	-0.415039	0.190186	-0.304939	-0.589996	0.163159	-0.729586
61737		9.340937	1.158638	2.469166	-0.000049	0.020583	-0.001522	-0.818359	-0.411621	0.197021	-0.304913	-0.589669	0.163192	-0.729854
61738		9.376971	1.154534	2.490608	0.007175	0.016534	-0.007216	-0.812012	-0.404297	0.194092	-0.304782	-0.589582	0.163074	-0.730005
61739		9.394408	1.154138	2.469909	0.005597	0.017463	-0.004836	-0.813965	-0.416504	0.197754	-0.304598	-0.589452	0.163016	-0.730200
61740		9.368663	1.169276	2.482300	-0.007118	0.025072	-0.000773	-0.828125	-0.416016	0.188477	-0.304638	-0.589267	0.162987	-0.730340
61741		9.372470	1.199879	2.469776	-0.017909	0.020843	-0.000709	-0.822510	-0.421143	0.192871	-0.304767	-0.588862	0.163184	-0.730568
61742		9.342183	1.113534	2.444431	-0.010835	0.016248	-0.004286	-0.819824	-0.416992	0.191650	-0.304924	-0.588656	0.163221	-0.730661
61743		9.399779	1.108313	2.419639	-0.002997	0.015810	0.000008	-0.818115	-0.413330	0.191406	-0.304941	-0.588470	0.163240	-0.730799
61744		9.392845	1.146174	2.497842	0.001517	0.019885	0.001803	-0.817383	-0.412354	0.188477	-0.304869	-0.588267	0.163231	-0.730994
61745		9.382529	1.128874	2.550354	0.003274	0.037964	-0.003365	-0.816406	-0.407715	0.190430	-0.304896	-0.587878	0.163115	-0.731321
61746		9.325453	1.124276	2.426295	0.023774	0.027769	-0.004465	-0.815674	-0.416748	0.190918	-0.304657	-0.587708	0.162845	-0.731618
61747		9.332202	1.086703	2.468162	-0.019968	0.014975	0.003202	-0.821045	-0.420654	0.186523	-0.304792	-0.587501	0.163020	-0.731689
61748		9.310752	1.149226	2.584343	-0.020326	-0.006199	0.002468	-0.812256	-0.409424	0.195068	-0.304975	-0.587404	0.163294	-0.731629
61749		9.381455	1.109254	2.501629	0.019625	-0.021875	-0.002337	-0.824219	-0.419922	0.195068	-0.304635	-0.587780	0.163207	-0.731489
61750		9.431968	1.149711	2.353885	0.019361	0.000203	-0.005360	-0.814941	-0.415527	0.184326	-0.304476	-0.587904	0.163002	-0.731501
61751		9.367929	1.162558	2.510159	0.004631	-0.001933	-0.005057	-0.813965	-0.416748	0.193604	-0.304552	-0.587852	0.163002	-0.731511
61752		9.306485	1.140842	2.535113	0.006847	0.000309	-0.008799	-0.822021	-0.412109	0.179199	-0.304556	-0.587948	0.162881	-0.731459
61753		9.351573	1.116906	2.528156	0.006882	-0.007521	-0.008494	-0.816406	-0.417480	0.191406	-0.304598	-0.587846	0.162928	-0.731513
61754		9.423321	1.122854	2.522553	0.005207	-0.005098	-0.005489	-0.811279	-0.418213	0.195801	-0.304597	-0.587932	0.162886	-0.731454
61755		9.426422	1.136583	2.584508	-0.000470	-0.007781	-0.005524	-0.820068	-0.418701	0.190674	-0.304623	-0.588107	0.162864	-0.731307
61756		9.406864	1.134938	2.573868	0.006547	-0.019575	-0.012395	-0.816895	-0.421875	0.196289	-0.304652	-0.588309	0.162827	-0.731141
61757		9.392537	1.065006	2.794087	0.020569	-0.018345	-0.009302	-0.812988	-0.403809	0.196289	-0.304555	-0.588640	0.162629	-0.730958
61758		9.329740	1.049142	2.688588	0.036030	-0.036281	-0.004367	-0.814697	-0.415039	0.197998	-0.304019	-0.589166	0.162488	-0.730790
61759		9.241128	1.126834	2.615259	0.048059	-0.058184	-0.002326	-0.819580	-0.408447	0.195068	-0.303488	-0.589942	0.162271	-0.730433
61760		9.358226	1.192611	2.605120	0.046444	-0.073132	-0.007103	-0.814209	-0.417725	0.190674	-0.302916	-0.590756	0.162168	-0.730034
61761		9.309976	1.218641	2.524109	0.058268	-0.079258	-0.004992	-0.821777	-0.409912	0.201904	-0.302466	-0.591604	0.161951	-0.729582
61762		9.236881	1.260290	2.450796	0.068711	-0.068714	-0.012474	-0.823975	-0.420410	0.203369	-0.301767	-0.592503	0.161568	-0.729228
61763		9.199031	1.279977	2.477110	0.078476	-0.072463	-0.013850	-0.815918	-0.417480	0.206299	-0.301150	-0.593465	0.161047	-0.728816
61764		9.273984	1.242515	2.455811	0.086435	-0.083646	-0.012525	-0.816895	-0.419678	0.213135	-0.300433	-0.594592	0.160490	-0.728315
61765		9.388517	1.240349	2.339982	0.087341	-0.075463	-0.010438	-0.808350	-0.415527	0.213135	-0.299687	-0.595698	0.159881	-0.727853
61766		9.464047	1.239541	2.362793	0.073518	-0.069972	-0.003716	-0.818604	-0.414551	0.208496	-0.299008	-0.596681	0.159432	-0.727425
61767		9.457533	1.208763	2.341152	0.061675	-0.060546	0.003324	-0.809082	-0.414551	0.212646	-0.298383	-0.597376	0.159179	-0.727167
61768		9.444582	1.149219	2.328102	0.054243	-0.051214	0.012242	-0.819824	-0.404541	0.215576	-0.297778	-0.598014	0.158980	-0.726934
61769		9.396783	1.139335	2.222169	0.051235	-0.035302	0.014901	-0.812500	-0.418945	0.211182	-0.297013	-0.598450	0.158857	-0.726915
61770		9.435748	1.165678	2.240986	0.049491	-0.030865	0.014225	-0.817627	-0.415771	0.221924	-0.296568	-0.598814	0.158639	-0.726844
61771		9.455823	1.168448	2.260972	0.061294	-0.027403	0.008730	-0.811768	-0.404053	0.221924	-0.295938	-0.599307	0.158258	-0.726778
61772		9.481069	1.155845	2.248220	0.065471	-0.001456	0.004221	-0.813721	-0.406250	0.225830	-0.295262	-0.599583	0.157754	-0.726934
61773		9.495939	1.142884	2.226343	0.071583	0.016593	0.003486	-0.814453	-0.408447	0.221436	-0.294581	-0.599755	0.157103	-0.727210
61774		9.508409	1.117777	2.275789	0.065264	0.014906	0.002616	-0.815186	-0.396729	0.226562	-0.294033	-0.599857	0.156513	-0.727475
61775		9.470774	1.091413	2.251320	0.019132	0.023232	0.010960	-0.817627	-0.405518	0.210938	-0.293584	-0.599742	0.156421	-0.727771
61776		9.434446	1.114021	2.220627	0.047585	0.002903	0.002809	-0.813721	-0.408936	0.221924	-0.293217	-0.599733	0.156102	-0.727995
61777		9.458856	1.167017	2.060307	0.059818	0.016154	-0.000996	-0.816895	-0.407227	0.214111	-0.292778	-0.599816	0.155517	-0.728228
61778		9.417743	1.125527	2.140631	0.047953	0.031285	-0.006496	-0.818848	-0.404053	0.217285	-0.292556	-0.599612	0.154993	-0.728597
61779		9.338982	1.106511	2.277893	0.046902	0.031829	-0.006793	-0.814697	-0.403076	0.226318	-0.292267	-0.599435	0.154481	-0.728967
61780		9.350220	1.130365	2.260370	0.042235	0.031037	-0.001616	-0.811523	-0.411621	0.212891	-0.291886	-0.599372	0.154007	-0.729272
61781		9.416344	1.160164	2.173544	0.042876	0.025148	0.000344	-0.818604	-0.400635	0.215332	-0.291726	-0.599215	0.153567	-0.729558
61782		9.461847	1.142696	2.204704	0.035831	0.030382	0.002371	-0.820068	-0.410889	0.216064	-0.291416	-0.598976	0.153242	-0.729946
61783		9.489667	1.161838	2.252630	0.037955	0.048962	-0.000973	-0.824219	-0.401855	0.213379	-0.291279	-0.598602	0.152763	-0.730408
61784		9.349759	1.175671	2.147982	0.041392	0.052691	-0.003769	-0.826660	-0.407959	0.219482	-0.291036	-0.598165	0.152267	-0.730967
61785		9.353883	1.186033	2.312456	0.027529	0.034392	-0.003654	-0.807617	-0.397949	0.205811	-0.290875	-0.597927	0.151925	-0.731296
61786		9.373020	1.206811	2.177402	0.031830	0.030771	-0.002938	-0.811035	-0.407959	0.218750	-0.290739	-0.597642	0.151591	-0.731653
61787		9.408608	1.204353	2.201349	0.014426	0.033398	-0.004384	-0.815918	-0.411621	0.217773	-0.290756	-0.597432	0.151328	-0.731872
61788		9.408605	1.204633	2.354689	0.004759	0.035830	-0.000826	-0.813232	-0.407715	0.211426	-0.290849	-0.597136	0.151175	-0.732107
61789		9.437749	1.165005	2.433095	0.010054	0.025035	-0.004374	-0.821533	-0.400391	0.213379	-0.290921	-0.596906	0.151007	-0.732301
61790		9.443403	1.142816	2.350162	0.011300	0.026577	-0.003402	-0.810547	-0.403076	0.202637	-0.290825	-0.596656	0.150860	-0.732573
61791		9.409795	1.163675	2.314273	0.008028	0.028726	-0.007997	-0.815918	-0.409424	0.219727	-0.290968	-0.596307	0.150697	-0.732834
61792		9.409852	1.184371	2.304135	0.009559	0.026032	-0.015927	-0.817627	-0.398682	0.214600	-0.291091	-0.596196	0.150426	-0.732931
61793		9.471332	1.213140	2.261857	0.002398	0.027352	-0.020857	-0.814941	-0.402588	0.209961	-0.291194	-0.595987	0.150215	-0.733104
61794		9.407852	1.231100	2.206827	-0.010608	0.044038	-0.021950	-0.820068	-0.405273	0.208252	-0.291529	-0.595545	0.150052	-0.733363
61795		9.319130	1.227131	2.251777	-0.019248	0.050069	-0.020461	-0.819336	-0.406982	0.211670	-0.291939	-0.594990	0.149964	-0.733669
61796		9.313288	1.256874	2.308398	-0.033951	0.039239	-0.021123	-0.826172	-0.402588	0.210449	-0.292431	-0.594540	0.150031	-0.733824
61797		9.425097	1.248071	2.348402	-0.030135	0.032205	-0.022461	-0.824219	-0.406738	0.216309	-0.292799	-0.594143	0.150100	-0.733984
61798		9.446425	1.225156	2.332056	-0.025907	0.035791	-0.020742	-0.819580	-0.404541	0.212158	-0.293136	-0.593813	0.150105	-0.734116
61799		9.432683	1.237750	2.366847	-0.019905	0.035409	-0.022557	-0.808594	-0.404541	0.198975	-0.293454	-0.593489	0.150046	-0.734263
61800		9.409541	1.249352	2.389258	-0.019942	0.053858	-0.023577	-0.816650	-0.404297	0.190430	-0.293950	-0.592896	0.149921	-0.734569
61801		9.277107	1.249692	2.314272	0.007382	0.046326	-0.031001	-0.820801	-0.402344	0.208984	-0.294305	-0.592380	0.149550	-0.734918
61802		9.379459	1.177822	2.406027	-0.029238	0.025484	-0.020384	-0.817139	-0.403076	0.199219	-0.294598	-0.592106	0.149633	-0.735005
61803		9.395083	1.207282	2.544786	-0.041746	0.023159	-0.013153	-0.811768	-0.401367	0.197754	-0.295003	-0.591706	0.149910	-0.735108
61804		9.420207	1.253645	2.422423	0.000341	0.002981	-0.020667	-0.825439	-0.401855	0.202393	-0.295128	-0.591672	0.149813	-0.735106
61805		9.425567	1.269886	2.268316	-0.005578	0.022486	-0.019129	-0.812256	-0.410156	0.196533	-0.295226	-0.591441	0.149719	-0.735271
61806		9.298242	1.238222	2.432695	-0.026037	0.026085	-0.018048	-0.813232	-0.402588	0.198730	-0.295680	-0.591090	0.149794	-0.735356
61807		9.241843	1.201873	2.494697	-0.013345	0.015895	-0.018852	-0.809570	-0.405518	0.204102	-0.295893	-0.590907	0.149783	-0.735419
61808		9.275084	1.225311	2.495158	-0.016717	0.010025	-0.015243	-0.815674	-0.417236	0.198242	-0.296091	-0.590835	0.149825	-0.735388
61809		9.394323	1.268373	2.481984	-0.014939	0.018562	-0.010911	-0.815674	-0.408691	0.202148	-0.296420	-0.590609	0.149869	-0.735429
61810		9.415155	1.249449	2.516421	-0.023027	0.031249	-0.011739	-0.818604	-0.413818	0.192627	-0.296689	-0.590281	0.149928	-0.735571
61811		9.408055	1.258130	2.520213	-0.018300	0.033798	-0.011216	-0.815186	-0.411621	0.189453	-0.297042	-0.589846	0.149962	-0.735771
61812		9.319552	1.238394	2.542894	-0.022935	0.036389	-0.007691	-0.818848	-0.407471	0.186035	-0.297399	-0.589351	0.150059	-0.736004
61813		9.283633	1.217148	2.487319	-0.020270	0.025062	-0.007772	-0.821045	-0.403564	0.193848	-0.297659	-0.588933	0.150184	-0.736208
61814		9.321361	1.242990	2.513220	-0.009043	0.019869	-0.009260	-0.821289	-0.410889	0.185791	-0.297712	-0.588692	0.150194	-0.736377
61815		9.387964	1.223842	2.500476	-0.020723	0.028908	-0.006660	-0.812256	-0.413574	0.190186	-0.298000	-0.588243	0.150318	-0.736594
61816		9.365859	1.242857	2.538559	-0.023180	0.037242	-0.007762	-0.819092	-0.405273	0.190918	-0.298367	-0.587795	0.150399	-0.736786
61817		9.309736	1.225521	2.574447	-0.023777	0.033937	-0.009183	-0.821045	-0.419678	0.196533	-0.298584	-0.587374	0.150489	-0.737016
61818		9.296051	1.234697	2.608013	-0.025908	0.027896	-0.010208	-0.817383	-0.408203	0.183838	-0.298953	-0.587071	0.150599	-0.737086
61819		9.305650	1.238426	2.607336	-0.019284	0.020979	-0.008676	-0.811523	-0.398926	0.189453	-0.299189	-0.586736	0.150711	-0.737233
61820		9.331683	1.238083	2.603098	-0.018761	0.019943	-0.009892	-0.816406	-0.407715	0.194336	-0.299283	-0.586495	0.150787	-0.737371
61821		9.334792	1.231868	2.612705	-0.021454	0.018471	-0.010595	-0.815430	-0.414062	0.179932	-0.299457	-0.586304	0.150879	-0.737434
61822		9.300236	1.245918	2.609077	-0.026381	0.012454	-0.011735	-0.823975	-0.407471	0.186768	-0.299861	-0.586013	0.151074	-0.737461
61823		9.299106	1.235519	2.593899	-0.025503	0.009855	-0.012067	-0.822510	-0.413574	0.187500	-0.300068	-0.585803	0.151253	-0.737507
61824		9.333405	1.240993	2.589199	-0.026551	0.011934	-0.009616	-0.816650	-0.415283	0.186035	-0.300341	-0.585583	0.151447	-0.737531
61825		9.336175	1.227025	2.565688	-0.029906	0.011601	-0.008431	-0.822510	-0.418945	0.187744	-0.300679	-0.585358	0.151678	-0.737524
61826		9.349225	1.205321	2.582652	-0.027247	0.010908	-0.009048	-0.821289	-0.412109	0.184082	-0.301004	-0.585159	0.151882	-0.737508
61827		9.310005	1.176152	2.578160	-0.021048	0.009996	-0.005084	-0.819824	-0.414795	0.181396	-0.301180	-0.584954	0.152070	-0.737560
61828		9.312176	1.200547	2.596832	-0.011709	0.011656	-0.002460	-0.817139	-0.414307	0.187988	-0.301323	-0.584747	0.152189	-0.737640
61829		9.311805	1.207457	2.632739	-0.007987	0.022477	-0.003270	-0.820557	-0.409912	0.183594	-0.301423	-0.584532	0.152205	-0.737767
61830		9.283550	1.237450	2.602963	0.027938	0.003576	-0.009134	-0.816650	-0.412354	0.187012	-0.301235	-0.584590	0.151932	-0.737854
61831		9.337964	1.175683	2.571430	-0.007262	0.010237	0.001724	-0.817139	-0.412354	0.187256	-0.301243	-0.584476	0.152025	-0.737922
61832		9.325673	1.167461	2.659082	-0.011262	-0.000382	0.003866	-0.817383	-0.413818	0.179199	-0.301237	-0.584444	0.152209	-0.737912
61833		9.332641	1.232494	2.627642	0.027701	-0.015976	-0.004096	-0.814941	-0.414795	0.182617	-0.301064	-0.584641	0.152057	-0.737858
61834		9.358474	1.224269	2.538589	0.014704	-0.006352	-0.003290	-0.825928	-0.404541	0.185059	-0.301000	-0.584733	0.151982	-0.737826
61835		9.320167	1.219284	2.567273	0.004752	0.001637	-0.003671	-0.818604	-0.402832	0.178955	-0.300842	-0.584705	0.151979	-0.737913
61836		9.297648	1.209816	2.595007	0.006177	0.005881	-0.003443	-0.820312	-0.412842	0.184082	-0.300732	-0.584604	0.151956	-0.738043
61837		9.317301	1.227339	2.621555	0.006610	-0.000904	-0.007284	-0.818359	-0.411621	0.177490	-0.300727	-0.584623	0.151911	-0.738040
61838		9.349462	1.209022	2.598054	-0.002282	0.002385	-0.005026	-0.832275	-0.409668	0.179688	-0.300810	-0.584516	0.151971	-0.738078
61839		9.336648	1.211591	2.593197	-0.005232	0.006680	-0.006775	-0.817627	-0.416016	0.181885	-0.300844	-0.584350	0.152040	-0.738182
61840		9.334977	1.217049	2.582736	-0.006438	0.013793	-0.004590	-0.812744	-0.412598	0.183838	-0.300999	-0.584171	0.152082	-0.738252
61841		9.269228	1.234649	2.595953	0.001400	0.013350	-0.003012	-0.815918	-0.416016	0.184082	-0.301041	-0.584055	0.152052	-0.738332
61842		9.326169	1.192539	2.659554	-0.006678	-0.001591	-0.001864	-0.822510	-0.412109	0.184082	-0.301130	-0.584043	0.152163	-0.738282
61843		9.337122	1.215912	2.579595	0.008201	0.007729	-0.002220	-0.819580	-0.408691	0.183838	-0.301057	-0.583985	0.152108	-0.738369
61844		9.333998	1.229693	2.542735	0.000773	0.012495	0.002527	-0.812988	-0.408936	0.184082	-0.300975	-0.583852	0.152135	-0.738503
61845		9.310719	1.229973	2.592266	-0.002222	0.021099	0.001291	-0.812012	-0.415771	0.178223	-0.300971	-0.583651	0.152138	-0.738663
61846		9.308932	1.191483	2.620609	-0.000227	0.020771	0.001176	-0.812744	-0.413086	0.181396	-0.301078	-0.583415	0.152136	-0.738805
61847		9.307858	1.190913	2.624678	-0.000807	0.014064	0.003428	-0.815186	-0.407715	0.184814	-0.301097	-0.583266	0.152172	-0.738908
61848		9.309875	1.214664	2.643832	-0.001300	0.015733	0.003215	-0.814697	-0.409424	0.182617	-0.301027	-0.583128	0.152198	-0.739040
61849		9.343940	1.219494	2.640542	-0.002218	0.022960	-0.005173	-0.820068	-0.417480	0.180664	-0.301093	-0.582920	0.152149	-0.739188
61850		9.323818	1.195451	2.646452	-0.008911	0.027855	-0.005191	-0.819092	-0.401855	0.182373	-0.301305	-0.582617	0.152153	-0.739339
61851		9.309344	1.220506	2.683972	-0.012956	0.024168	-0.007630	-0.817139	-0.419922	0.181396	-0.301360	-0.582359	0.152186	-0.739513
61852		9.269901	1.230375	2.658204	-0.015424	0.019684	-0.009579	-0.817383	-0.411865	0.177246	-0.301668	-0.582141	0.152237	-0.739549
61853		9.289253	1.231524	2.683118	-0.017570	0.012229	-0.010604	-0.828857	-0.409180	0.183350	-0.301910	-0.581952	0.152340	-0.739577
61854		9.310694	1.200674	2.695991	-0.021591	0.011486	-0.010321	-0.817627	-0.415039	0.182373	-0.302064	-0.581785	0.152490	-0.739615
61855		9.300547	1.193363	2.653268	-0.025686	0.012880	-0.010856	-0.821533	-0.416504	0.176514	-0.302363	-0.581613	0.152647	-0.739596
61856		9.290896	1.204387	2.660630	-0.025741	0.009307	-0.012144	-0.827148	-0.413574	0.177979	-0.302700	-0.581420	0.152828	-0.739572
61857		9.275724	1.177728	2.654256	-0.023844	0.005540	-0.010725	-0.817871	-0.409424	0.178223	-0.302935	-0.581271	0.153023	-0.739553
61858		9.309634	1.179357	2.726871	-0.018542	-0.001425	-0.009612	-0.819580	-0.412109	0.169434	-0.303087	-0.581228	0.153190	-0.739489
61859		9.350436	1.199915	2.696849	-0.023564	0.013999	-0.008833	-0.823486	-0.410889	0.168457	-0.303372	-0.580946	0.153373	-0.739556
61860		9.285496	1.222328	2.630592	-0.000775	0.011332	-0.011321	-0.821045	-0.414551	0.169189	-0.303482	-0.580769	0.153346	-0.739656
61861		9.338390	1.190654	2.735379	-0.010713	0.006786	-0.004806	-0.828613	-0.417480	0.174805	-0.303637	-0.580599	0.153467	-0.739701
61862		9.263977	1.166410	2.756430	-0.037267	0.011578	0.002192	-0.820068	-0.412598	0.169678	-0.303902	-0.580305	0.153862	-0.739741
61863		9.282966	1.155693	2.701016	-0.010568	-0.015903	-0.001767	-0.820801	-0.415039	0.177734	-0.303955	-0.580355	0.154084	-0.739633
61864		9.353203	1.163437	2.638277	0.004651	-0.008138	-0.001179	-0.818115	-0.406494	0.177002	-0.303888	-0.580454	0.154121	-0.739575
61865		9.322448	1.173269	2.686788	-0.018887	-0.002199	0.002400	-0.811523	-0.411377	0.173584	-0.303890	-0.580399	0.154383	-0.739563
61866		9.267249	1.151604	2.668765	-0.010540	0.004683	-0.001822	-0.821533	-0.412354	0.174805	-0.303980	-0.580308	0.154503	-0.739573
61867		9.272477	1.139387	2.687074	-0.007449	0.000280	-0.000757	-0.822021	-0.414307	0.170654	-0.303999	-0.580258	0.154634	-0.739577
61868		9.303107	1.162454	2.693402	-0.000764	-0.003080	0.002024	-0.821045	-0.413818	0.178223	-0.303983	-0.580225	0.154746	-0.739586
61869		9.330154	1.165400	2.671229	-0.014207	0.002366	-0.000669	-0.818848	-0.412354	0.176270	-0.304055	-0.580160	0.154921	-0.739570
61870		9.337956	1.178003	2.705867	-0.009236	0.005968	-0.006460	-0.821777	-0.411621	0.175049	-0.304153	-0.580082	0.154997	-0.739576
61871		9.294135	1.128271	2.626479	0.002427	0.013326	-0.009022	-0.826172	-0.416504	0.173584	-0.304194	-0.579970	0.154927	-0.739661
61872		9.257742	1.116194	2.727785	-0.004028	-0.001033	-0.007527	-0.816406	-0.414062	0.173828	-0.304284	-0.579946	0.154989	-0.739629
61873		9.263452	1.175677	2.667108	0.002611	-0.000849	-0.005602	-0.813232	-0.411133	0.176025	-0.304309	-0.579964	0.154986	-0.739606
61874		9.342339	1.127363	2.652377	0.001896	0.003060	-0.005954	-0.819092	-0.417969	0.173096	-0.304317	-0.579967	0.154964	-0.739605
61875		9.356761	1.151548	2.675989	-0.001048	0.011066	-0.003554	-0.821289	-0.403320	0.169189	-0.304409	-0.579846	0.154967	-0.739662
61876		9.300193	1.154098	2.697867	-0.002544	0.016842	-0.002780	-0.814209	-0.423584	0.181396	-0.304377	-0.579630	0.155000	-0.739837
61877		9.283826	1.154389	2.715999	0.003133	0.006770	-0.003597	-0.827637	-0.408447	0.174561	-0.304455	-0.579646	0.154940	-0.739805
61878		9.293007	1.129586	2.707186	0.008498	0.002608	-0.002591	-0.822021	-0.412354	0.168457	-0.304321	-0.579636	0.154922	-0.739872
61879		9.324753	1.115792	2.670910	0.011927	0.001582	-0.001553	-0.821777	-0.413818	0.175781	-0.304239	-0.579612	0.154880	-0.739933
61880		9.357599	1.164914	2.694049	0.014030	0.007638	-0.000451	-0.823730	-0.414307	0.169678	-0.304123	-0.579594	0.154783	-0.740015
61881		9.315092	1.188796	2.691877	0.009744	0.012672	-0.001176	-0.815430	-0.413330	0.175293	-0.304087	-0.579465	0.154719	-0.740144
61882		9.265865	1.191463	2.682413	0.007345	0.007292	-0.007359	-0.827637	-0.405762	0.178955	-0.304099	-0.579450	0.154622	-0.740171
61883		9.287148	1.166304	2.680002	0.007287	0.004484	-0.007271	-0.827881	-0.410400	0.171631	-0.303979	-0.579463	0.154569	-0.740221
61884		9.309814	1.174490	2.667002	0.005358	0.003438	-0.004954	-0.820801	-0.419678	0.178223	-0.303934	-0.579419	0.154565	-0.740275
61885		9.319229	1.168051	2.708445	0.000182	0.003954	-0.005776	-0.826660	-0.414795	0.173584	-0.304008	-0.579418	0.154549	-0.740249
61886		9.315984	1.144753	2.694081	-0.002673	0.008287	-0.005350	-0.819336	-0.412842	0.173096	-0.304068	-0.579318	0.154582	-0.740296
61887		9.303953	1.131493	2.684336	-0.001307	0.008964	-0.006396	-0.814209	-0.408203	0.172363	-0.304132	-0.579231	0.154579	-0.740338
61888		9.282168	1.155772	2.702294	0.001520	0.003226	-0.006777	-0.825439	-0.417969	0.171875	-0.304139	-0.579213	0.154567	-0.740352
61889		9.289667	1.163302	2.703627	-0.000254	-0.005807	-0.006963	-0.822510	-0.402100	0.166748	-0.304208	-0.579250	0.154613	-0.740285
61890		9.318300	1.159717	2.706194	0.001150	-0.004493	-0.009441	-0.824707	-0.415039	0.174072	-0.304179	-0.579249	0.154663	-0.740287
61891		9.322294	1.165986	2.729777	-0.000068	0.008206	-0.009554	-0.822998	-0.412842	0.171143	-0.304261	-0.579178	0.154636	-0.740314
61892		9.264316	1.205752	2.635532	0.030184	-0.005517	-0.015817	-0.823975	-0.410400	0.176514	-0.304153	-0.579344	0.154343	-0.740290
61893		9.321265	1.167237	2.696660	-0.003051	-0.002374	-0.010745	-0.829590	-0.413818	0.174561	-0.304195	-0.579379	0.154379	-0.740238
61894		9.281591	1.116852	2.717422	-0.021961	0.000339	-0.009277	-0.822998	-0.405273	0.181641	-0.304392	-0.579289	0.154602	-0.740181
61895		9.314146	1.154293	2.673828	0.019441	-0.023375	-0.015461	-0.820312	-0.407959	0.168701	-0.304203	-0.579652	0.154474	-0.740002
61896		9.386926	1.191066	2.625707	0.016357	-0.006747	-0.012004	-0.823730	-0.408936	0.175049	-0.304136	-0.579748	0.154358	-0.739978
61897		9.296241	1.197131	2.683027	-0.011388	0.003425	-0.008424	-0.820557	-0.410400	0.171143	-0.304225	-0.579675	0.154477	-0.739973
61898		9.244846	1.181911	2.689449	-0.006779	0.012314	-0.010953	-0.822266	-0.410645	0.182373	-0.304360	-0.579523	0.154500	-0.740032
61899		9.268569	1.181050	2.703879	-0.005621	0.004696	-0.008913	-0.822266	-0.412109	0.181641	-0.304389	-0.579521	0.154526	-0.740016
61900		9.334464	1.206552	2.717382	-0.003239	0.007145	-0.005467	-0.823242	-0.415527	0.175293	-0.304388	-0.579495	0.154543	-0.740034
61901		9.345894	1.205690	2.726265	-0.015006	0.013961	-0.004188	-0.825684	-0.408203	0.174316	-0.304533	-0.579312	0.154663	-0.740092
61902		9.298157	1.157134	2.657453	-0.012028	0.020840	-0.007112	-0.827148	-0.407959	0.174805	-0.304637	-0.579073	0.154739	-0.740220
61903		9.255736	1.133393	2.707658	-0.006932	0.022477	-0.007094	-0.824707	-0.410156	0.170166	-0.304697	-0.578843	0.154765	-0.740371
61904		9.270417	1.153344	2.745096	-0.001239	-0.002465	-0.007372	-0.825928	-0.412842	0.176758	-0.304716	-0.578841	0.154829	-0.740351
61905		9.301740	1.182812	2.673324	-0.002266	0.008761	-0.005944	-0.829102	-0.409912	0.164307	-0.304732	-0.578775	0.154844	-0.740393
61906		9.335786	1.200227	2.687488	-0.012133	0.015224	-0.006934	-0.826904	-0.414062	0.176025	-0.304882	-0.578519	0.154979	-0.740503
61907		9.309380	1.165084	2.703291	-0.011899	0.024449	-0.003640	-0.822754	-0.419189	0.162598	-0.304984	-0.578265	0.155037	-0.740647
61908		9.264045	1.176906	2.751855	-0.009966	0.019149	-0.005012	-0.817871	-0.420166	0.173096	-0.305192	-0.577989	0.155102	-0.740763
61909		9.250208	1.189917	2.768171	-0.010789	0.011083	-0.004261	-0.824707	-0.419434	0.170410	-0.305339	-0.577870	0.155155	-0.740785
61910		9.302932	1.153175	2.717785	-0.007463	0.007868	-0.006721	-0.820801	-0.412598	0.158691	-0.305471	-0.577769	0.155203	-0.740799
61911		9.327407	1.146903	2.745367	-0.001856	0.010006	-0.005147	-0.816650	-0.411865	0.164307	-0.305569	-0.577592	0.155250	-0.740886
61912		9.288181	1.178995	2.753903	-0.001715	0.012844	-0.003073	-0.824707	-0.408203	0.166260	-0.305623	-0.577434	0.155272	-0.740982
61913		9.261584	1.198439	2.750050	-0.004758	0.010761	-0.006024	-0.822998	-0.403320	0.161621	-0.305669	-0.577291	0.155338	-0.741062
61914		9.295592	1.159886	2.736000	-0.002296	0.005194	-0.007240	-0.826172	-0.406982	0.168945	-0.305686	-0.577183	0.155416	-0.741122
61915		9.303945	1.157716	2.765309	-0.001121	0.008267	-0.003449	-0.816406	-0.413330	0.166748	-0.305648	-0.577090	0.155473	-0.741198
61916		9.300183	1.194678	2.766242	-0.004514	0.012861	-0.003182	-0.820557	-0.417480	0.167480	-0.305720	-0.576947	0.155501	-0.741274
61917		9.272398	1.180325	2.772897	-0.006560	0.013797	-0.006653	-0.816162	-0.416260	0.162109	-0.305857	-0.576795	0.155516	-0.741333
61918		9.277561	1.146967	2.756214	-0.005259	0.012434	-0.006223	-0.821777	-0.413818	0.163818	-0.306004	-0.576633	0.155534	-0.741394
61919		9.279338	1.154351	2.724285	-0.006570	0.008203	-0.004338	-0.824463	-0.406250	0.165039	-0.306094	-0.576505	0.155613	-0.741440
61920		9.279045	1.161615	2.757504	-0.008899	0.002973	-0.005560	-0.821045	-0.415283	0.167480	-0.306132	-0.576424	0.155751	-0.741458
61921		9.278118	1.167062	2.744980	-0.009207	-0.001172	-0.006932	-0.816406	-0.414062	0.166504	-0.306238	-0.576408	0.155851	-0.741406
61922		9.304820	1.140224	2.778362	-0.006183	0.005103	-0.006247	-0.824707	-0.409180	0.168213	-0.306331	-0.576345	0.155897	-0.741407
61923		9.252779	1.178768	2.766762	0.000852	0.009973	-0.007172	-0.819336	-0.413574	0.172363	-0.306331	-0.576263	0.155888	-0.741472
61924		9.271943	1.198555	2.792361	0.029464	-0.015012	-0.017791	-0.827637	-0.416016	0.172852	-0.306192	-0.576582	0.155586	-0.741345
61925		9.324118	1.135337	2.734977	-0.020915	0.001312	-0.006204	-0.820312	-0.417480	0.173828	-0.306345	-0.576519	0.155791	-0.741288
61926		9.270847	1.130006	2.823179	-0.003520	-0.009708	-0.004976	-0.822266	-0.406250	0.174805	-0.306354	-0.576643	0.155854	-0.741175
61927		9.297343	1.195209	2.766820	0.027978	-0.021036	-0.008809	-0.822266	-0.413574	0.169189	-0.306066	-0.576997	0.155687	-0.741053
61928		9.291856	1.158739	2.705225	0.005413	-0.007350	-0.009514	-0.824951	-0.408691	0.171631	-0.306057	-0.577100	0.155665	-0.740981
61929		9.262638	1.138946	2.742069	-0.000962	-0.001122	-0.005920	-0.821533	-0.412842	0.170410	-0.306025	-0.577122	0.155725	-0.740964
61930		9.253366	1.161708	2.764445	0.006905	-0.000895	-0.005742	-0.817871	-0.412354	0.172363	-0.305974	-0.577171	0.155688	-0.740956
61931		9.256989	1.172426	2.773514	0.003142	-0.007600	-0.009462	-0.820312	-0.415527	0.163574	-0.305963	-0.577292	0.155668	-0.740870
61932		9.306049	1.162718	2.764889	-0.000853	-0.006963	-0.009238	-0.825439	-0.410645	0.164795	-0.306045	-0.577330	0.155711	-0.740797
61933		9.332118	1.166462	2.697600	-0.009109	0.001503	-0.009819	-0.825684	-0.412598	0.166748	-0.306164	-0.577256	0.155830	-0.740781
61934		9.286343	1.163540	2.803081	-0.000462	0.013503	-0.006257	-0.822754	-0.413330	0.166504	-0.306210	-0.577112	0.155834	-0.740873
61935		9.251779	1.182313	2.782951	-0.001873	-0.002859	-0.008257	-0.824951	-0.421387	0.176025	-0.306262	-0.577123	0.155885	-0.740832
61936		9.288554	1.162496	2.751173	-0.002673	0.002431	-0.010793	-0.818848	-0.416992	0.166016	-0.306349	-0.577146	0.155844	-0.740787
61937		9.284476	1.155481	2.742122	-0.003665	0.006680	-0.004843	-0.817383	-0.408936	0.171875	-0.306429	-0.577060	0.155873	-0.740815
61938		9.284583	1.151738	2.756790	-0.004991	0.006637	-0.005231	-0.817139	-0.413574	0.173096	-0.306444	-0.577007	0.155921	-0.740840
61939		9.275297	1.162442	2.762310	-0.003833	0.005372	-0.004139	-0.823975	-0.418701	0.176025	-0.306459	-0.576979	0.155944	-0.740850
61940		9.271485	1.161418	2.785093	-0.000744	0.005169	-0.005351	-0.828857	-0.420654	0.169189	-0.306468	-0.576977	0.155921	-0.740853
61941		9.282729	1.165575	2.779008	0.003111	0.001203	-0.001251	-0.822021	-0.418457	0.170898	-0.306443	-0.576969	0.155939	-0.740866
61942		9.302855	1.159890	2.768426	0.008365	0.001994	-0.003275	-0.820557	-0.418457	0.174561	-0.306388	-0.576998	0.155870	-0.740881
61943		9.285596	1.169721	2.758087	0.007442	0.003189	-0.002877	-0.820557	-0.413086	0.164307	-0.306322	-0.577036	0.155790	-0.740895
61944		9.272506	1.183396	2.771210	0.007044	0.004120	-0.002315	-0.821045	-0.408936	0.167236	-0.306279	-0.576997	0.155776	-0.740946
61945		9.265854	1.162488	2.764446	0.006350	0.003075	-0.001776	-0.822021	-0.412598	0.172852	-0.306196	-0.576980	0.155787	-0.740991
61946		9.283537	1.188650	2.765368	0.005820	0.001169	-0.003287	-0.814453	-0.410889	0.170654	-0.306119	-0.577016	0.155765	-0.741000
61947		9.290037	1.162225	2.777061	0.006617	-0.000693	-0.004409	-0.819824	-0.400391	0.167969	-0.306053	-0.577072	0.155721	-0.740993
61948		9.274353	1.162813	2.792159	0.003275	0.000344	-0.003300	-0.824951	-0.418945	0.163818	-0.305957	-0.577073	0.155795	-0.741016
61949		9.295048	1.145668	2.762774	0.000985	0.000853	-0.001865	-0.820068	-0.410645	0.169189	-0.305979	-0.577033	0.155838	-0.741029
61950		9.286094	1.155932	2.767307	-0.001915	0.003769	-0.001398	-0.822510	-0.411865	0.157227	-0.305957	-0.576990	0.155904	-0.741057
61951		9.289909	1.153618	2.759368	-0.002466	0.000457	-0.002869	-0.816895	-0.417480	0.164551	-0.306012	-0.576904	0.156023	-0.741077
61952		9.275584	1.137721	2.768523	-0.001985	-0.004787	-0.003972	-0.824463	-0.411621	0.167969	-0.306062	-0.576927	0.156074	-0.741028
61953		9.274551	1.154635	2.773195	-0.002599	-0.004550	-0.006288	-0.827881	-0.412109	0.162109	-0.306081	-0.576956	0.156157	-0.740980
61954		9.281841	1.161928	2.775178	0.001547	0.006829	-0.005440	-0.826416	-0.415771	0.169922	-0.306113	-0.576854	0.156196	-0.741038
61955		9.256503	1.172377	2.748687	0.029715	-0.012079	-0.013529	-0.827148	-0.412109	0.173828	-0.305962	-0.577101	0.155936	-0.740963
61956		9.337116	1.133803	2.762787	0.002911	-0.012358	-0.007237	-0.823975	-0.405762	0.172119	-0.305908	-0.577254	0.155979	-0.740857
61957		9.282795	1.113218	2.742048	-0.024198	-0.003426	-0.005593	-0.823730	-0.413086	0.166748	-0.306032	-0.577207	0.156277	-0.740779
61958		9.264529	1.161963	2.770412	0.020450	-0.031339	-0.010661	-0.822510	-0.407471	0.162354	-0.305890	-0.577571	0.156215	-0.740567
61959		9.299479	1.167099	2.666774	0.017540	-0.022826	-0.012501	-0.823975	-0.419434	0.166992	-0.305801	-0.577818	0.156177	-0.740419
61960		9.318953	1.159368	2.731272	-0.004023	-0.008963	-0.011506	-0.825195	-0.410645	0.171143	-0.305925	-0.577878	0.156226	-0.740311
61961		9.260282	1.142882	2.719604	-0.000489	-0.000773	-0.009326	-0.819092	-0.414551	0.166504	-0.305952	-0.577890	0.156259	-0.740283
61962		9.282405	1.156174	2.692821	0.001491	-0.000322	-0.008051	-0.821777	-0.411621	0.167725	-0.306003	-0.577887	0.156259	-0.740265
61963		9.345018	1.180999	2.726939	0.002077	0.003631	-0.008012	-0.826416	-0.405762	0.173340	-0.306032	-0.577851	0.156257	-0.740282
61964		9.456358	1.214620	2.682015	0.000359	0.011516	-0.010197	-0.821045	-0.408203	0.169434	-0.306046	-0.577763	0.156248	-0.740346
61965		9.467044	1.196657	2.643875	-0.009960	0.038244	-0.003493	-0.827148	-0.421631	0.168457	-0.306162	-0.577364	0.156264	-0.740607
61966		9.489325	1.210896	2.487691	-0.016938	0.091744	0.006882	-0.827393	-0.413086	0.163818	-0.306398	-0.576417	0.156173	-0.741265
61967		9.466795	1.303436	2.415170	-0.036360	0.171282	0.010744	-0.825928	-0.422119	0.164062	-0.306865	-0.574633	0.156035	-0.742485
61968		9.165558	1.318507	2.389538	-0.046683	0.172723	-0.002099	-0.822021	-0.419678	0.156250	-0.307555	-0.572849	0.155827	-0.743621
61969		8.878143	1.230076	2.550479	-0.054277	0.101144	-0.013491	-0.823975	-0.416016	0.161377	-0.308274	-0.571706	0.155893	-0.744188
61970		8.888886	1.170957	2.749760	-0.060357	0.023208	-0.019479	-0.817383	-0.411865	0.154541	-0.308881	-0.571317	0.156271	-0.744157
61971		8.967307	1.162920	2.821475	-0.051636	-0.062112	-0.018790	-0.822510	-0.415527	0.159424	-0.309263	-0.571727	0.156920	-0.743546
61972		8.826173	1.051587	2.941268	-0.035853	-0.152421	-0.019375	-0.817871	-0.419189	0.164062	-0.309350	-0.573054	0.157757	-0.742310
61973		8.697476	1.028743	3.049754	-0.005408	-0.251386	-0.017312	-0.823242	-0.416992	0.164062	-0.309012	-0.575426	0.158670	-0.740419
61974		8.912433	0.990618	3.057277	0.036295	-0.316890	0.009349	-0.818115	-0.410645	0.175537	-0.308000	-0.578465	0.159694	-0.738249
61975		8.258604	0.848910	3.026069	0.088739	-0.427012	0.016118	-0.822754	-0.412109	0.182617	-0.306273	-0.582724	0.160700	-0.735394
61976		8.216844	0.903475	2.729154	0.110122	-0.534260	0.043012	-0.818604	-0.409668	0.187744	-0.303934	-0.587950	0.162130	-0.731883
61977		8.151308	0.982190	2.342518	0.085591	-0.584274	0.076222	-0.812012	-0.406738	0.211182	-0.301383	-0.593408	0.164230	-0.728055
61978		8.158626	1.069498	2.151168	0.051064	-0.639867	0.082369	-0.813721	-0.398438	0.226562	-0.298848	-0.599258	0.166835	-0.723703
61979		8.079959	1.122005	2.180607	-0.004178	-0.664914	0.076777	-0.812744	-0.404053	0.223877	-0.296661	-0.605099	0.170013	-0.718988
61980		7.904935	0.958509	1.795836	-0.077955	-0.575169	0.049419	-0.811035	-0.409424	0.244629	-0.295562	-0.609791	0.173337	-0.714670
61981		7.268962	0.978737	1.331105	-0.104066	-0.471901	0.015157	-0.812256	-0.405518	0.257812	-0.295159	-0.613565	0.176183	-0.710900
61982		6.486959	0.949490	1.136348	-0.133163	-0.417916	-0.006175	-0.807861	-0.406494	0.265137	-0.295231	-0.616795	0.178929	-0.707380
61983		6.843911	0.933224	1.175777	-0.150700	-0.350812	-0.022224	-0.811523	-0.403564	0.266846	-0.295723	-0.619391	0.181445	-0.704259
61984		8.739013	0.724306	1.519344	-0.088131	-0.194370	-0.024379	-0.791260	-0.403320	0.277344	-0.296092	-0.620800	0.182857	-0.702495
61985		11.206749	0.659840	1.795108	-0.068167	-0.048335	0.018347	-0.802979	-0.405518	0.281494	-0.296231	-0.620981	0.183795	-0.702032
61986		13.419764	1.249784	2.289450	-0.147362	0.078361	0.058995	-0.797363	-0.402832	0.270508	-0.296904	-0.619658	0.185289	-0.702524
61987		15.912328	2.253312	3.208520	-0.157060	0.303576	0.014566	-0.806396	-0.403076	0.268799	-0.298592	-0.616387	0.185703	-0.704574
61988		19.836573	2.174942	3.570954	0.131143	0.513477	-0.045509	-0.806396	-0.400391	0.247314	-0.299025	-0.612480	0.182314	-0.708670
61989		23.684011	1.963114	4.552503	0.227809	0.690557	0.015301	-0.816895	-0.395264	0.241211	-0.298619	-0.607124	0.177910	-0.714545
61990		23.751334	2.400363	4.742969	0.171661	0.964538	0.015155	-0.821045	-0.402100	0.214355	-0.299163	-0.599058	0.172961	-0.722299
61991		20.094309	2.196028	4.735366	0.208519	1.015596	-0.052087	-0.825439	-0.401611	0.203125	-0.300202	-0.590675	0.166986	-0.730135
61992		14.246345	1.889386	3.607500	0.232908	0.793919	-0.083397	-0.822754	-0.408203	0.181396	-0.300805	-0.584433	0.161335	-0.736156
61993		7.275717	1.614330	1.974967	0.352384	0.456414	-0.169828	-0.819092	-0.403320	0.170654	-0.300717	-0.581841	0.155228	-0.739550
61994		1.163180	0.166796	0.662294	0.514823	0.257984	-0.204579	-0.824219	-0.410889	0.177246	-0.299356	-0.581705	0.148121	-0.741664
61995		-1.671260	-0.048687	0.088039	0.353066	0.086320	-0.010953	-0.812500	-0.415283	0.184570	-0.297027	-0.582207	0.144523	-0.742915
61996		-0.888465	-0.322317	-0.167022	0.121582	-0.040231	0.104690	-0.820557	-0.404785	0.191162	-0.295093	-0.582864	0.144326	-0.743209
61997		-0.374936	0.117895	-0.390406	0.048952	-0.182900	0.075246	-0.822510	-0.411621	0.184326	-0.293622	-0.584638	0.145114	-0.742244
61998		-0.484748	0.625014	-0.911970	0.015237	-0.245686	-0.030418	-0.816406	-0.405029	0.185303	-0.293368	-0.586996	0.145717	-0.740363
61999		-0.109129	0.406136	-0.858907	-0.006051	-0.260605	-0.076553	-0.819092	-0.409668	0.199219	-0.293654	-0.589474	0.146248	-0.738173
62000		0.183973	0.059484	-0.387315	0.051406	-0.240215	-0.061766	-0.807861	-0.395752	0.199951	-0.293384	-0.591983	0.146253	-0.736269
62001		-0.004968	-0.142174	0.036261	0.100346	-0.260213	-0.002186	-0.817871	-0.413818	0.205322	-0.292112	-0.594724	0.146335	-0.734548
62002		-0.235521	-0.169778	0.281195	0.125920	-0.330582	0.064340	-0.811768	-0.401611	0.220947	-0.290015	-0.598056	0.146951	-0.732548
62003		2.271268	0.102695	1.159061	0.105610	-0.467972	0.148836	-0.816162	-0.398193	0.230469	-0.286951	-0.602443	0.148851	-0.729771
62004		10.152931	1.598443	4.293356	-0.174416	-0.585716	0.211772	-0.823975	-0.390137	0.247314	-0.285196	-0.606732	0.154214	-0.725780
62005		29.380126	4.623347	4.935750	-0.526034	-0.563299	0.028258	-0.805420	-0.394043	0.246094	-0.287718	-0.609887	0.161258	-0.720592
62006		39.985418	2.500362	2.897959	0.096402	-0.698281	-0.075636	-0.812500	-0.398926	0.264160	-0.286173	-0.616648	0.162360	-0.715184
62007		39.817388	3.687808	6.581327	0.399106	-0.076509	-0.020563	-0.814697	-0.395996	0.272461	-0.283053	-0.618787	0.158982	-0.715338
62008		28.416396	3.538233	6.496998	0.283468	0.500343	0.059990	-0.809570	-0.391357	0.260254	-0.281228	-0.615182	0.155217	-0.719979
62009		15.370869	3.192921	4.280804	0.326495	0.760746	0.035554	-0.813721	-0.393066	0.250000	-0.279813	-0.609371	0.149964	-0.726555
62010		3.069345	0.417829	0.549337	0.444341	0.461260	-0.077665	-0.818848	-0.400146	0.240234	-0.277972	-0.606866	0.143809	-0.730592
62011		-5.781428	-1.406919	-1.914500	0.369037	-0.090815	0.011157	-0.818115	-0.388916	0.249268	-0.274950	-0.608930	0.140952	-0.730575
62012		-1.535037	-1.481177	-1.851004	0.272642	-0.397659	0.108185	-0.815430	-0.384033	0.257812	-0.271142	-0.613294	0.140732	-0.728387
62013		2.288232	0.163642	-1.072048	0.126762	-0.292386	0.136952	-0.817627	-0.385010	0.265625	-0.268375	-0.616128	0.141716	-0.726828
62014		1.545652	1.168592	-0.961736	0.011753	-0.020925	0.011619	-0.805664	-0.387207	0.261719	-0.268139	-0.616326	0.141883	-0.726714
62015		0.486076	0.209389	-0.508733	-0.022135	0.225306	-0.072887	-0.814453	-0.387939	0.260742	-0.269422	-0.614324	0.140902	-0.728124
62016		-0.002726	-0.369125	-0.347224	-0.007730	0.385596	-0.020721	-0.804443	-0.384766	0.252686	-0.270366	-0.610814	0.139636	-0.730965
62017		-0.299082	-0.339928	0.058116	-0.017213	0.373592	0.029409	-0.805664	-0.387695	0.241211	-0.270896	-0.607302	0.138875	-0.733834
62018		-1.186195	0.101739	0.552637	-0.027184	0.234581	0.019896	-0.821045	-0.388916	0.238525	-0.271390	-0.605023	0.138627	-0.735579
62019		-1.717915	-0.079978	1.348859	-0.021749	-0.031106	0.021163	-0.819824	-0.385986	0.238525	-0.271350	-0.605187	0.139233	-0.735345
62020		-0.505651	0.423757	1.855166	-0.084084	-0.262004	0.015889	-0.816895	-0.387939	0.246582	-0.271418	-0.607262	0.141149	-0.733240
62021		4.133374	1.160625	2.100996	-0.056891	-0.413046	-0.016452	-0.819580	-0.381348	0.258301	-0.271313	-0.610879	0.143082	-0.729893
62022		14.372449	0.865569	6.294590	-0.126070	-0.345639	-0.056631	-0.818359	-0.382568	0.258789	-0.272135	-0.613708	0.145059	-0.726817
62023		38.679310	4.235777	4.478991	-0.602616	-0.283781	-0.057620	-0.820068	-0.384277	0.262207	-0.276726	-0.614296	0.151136	-0.723341
62024		41.687371	5.462541	6.151663	-0.142839	-0.247219	-0.098645	-0.811768	-0.388428	0.260254	-0.278156	-0.616209	0.152580	-0.720857
62025		39.444738	3.813470	7.102288	-0.002443	0.169554	-0.060454	-0.818604	-0.392578	0.262695	-0.278994	-0.614761	0.151628	-0.721969
62026		28.784916	3.187792	6.668165	0.079383	1.053085	-0.048710	-0.814697	-0.393555	0.239990	-0.280746	-0.605567	0.146945	-0.729985
62027		15.111426	4.079850	3.908760	0.166254	1.246668	-0.228704	-0.820801	-0.401611	0.205078	-0.283829	-0.595118	0.139431	-0.738806
62028		1.780898	0.421581	1.943465	0.273460	0.666977	-0.366616	-0.826660	-0.400635	0.201416	-0.286389	-0.590483	0.131949	-0.742900
62029		-4.647928	-1.381198	0.923952	0.031831	0.072237	-0.223377	-0.810059	-0.410400	0.205811	-0.288310	-0.590261	0.129831	-0.742707
62030		-2.435194	-0.495035	0.311503	-0.191557	-0.375721	-0.132828	-0.810059	-0.413330	0.210938	-0.290357	-0.593292	0.132100	-0.739085
62031		0.450020	0.015260	-0.751073	-0.227915	-0.511091	-0.054975	-0.806885	-0.421631	0.219238	-0.291702	-0.597280	0.135753	-0.734669
62032		1.628739	-0.053204	-1.669639	-0.141666	-0.281275	-0.083755	-0.811279	-0.421875	0.222900	-0.293094	-0.599505	0.137590	-0.731956
62033		1.468945	-0.280155	-0.847523	-0.147416	0.050355	-0.070695	-0.802734	-0.419922	0.219482	-0.294945	-0.598631	0.138347	-0.731785
62034		0.660173	0.011759	-0.165029	-0.115603	0.271003	-0.047956	-0.802979	-0.419189	0.214844	-0.296723	-0.595819	0.138168	-0.733393
62035		-0.059655	-0.091070	-0.187774	-0.086704	0.225610	-0.027129	-0.814209	-0.425537	0.205322	-0.297993	-0.593498	0.138035	-0.734784
62036		-0.433062	-0.202158	-0.393295	-0.065892	0.173694	-0.037305	-0.812256	-0.432373	0.205811	-0.299137	-0.591710	0.137841	-0.735797
62037		0.024300	-0.068841	0.194362	-0.130039	0.145236	-0.134611	-0.812500	-0.432617	0.194580	-0.301641	-0.590138	0.137655	-0.736071
62038		0.126212	0.507557	-0.023313	-0.047979	0.182262	-0.257707	-0.809814	-0.432861	0.186279	-0.304726	-0.588702	0.135653	-0.736323
62039		0.957354	0.280813	0.222838	0.075344	0.014059	-0.230524	-0.813965	-0.448730	0.187012	-0.306341	-0.589208	0.133338	-0.735670
62040		8.213899	1.523430	2.307335	-0.128635	-0.358912	-0.036133	-0.803711	-0.436523	0.205566	-0.307119	-0.592027	0.135805	-0.732625
62041		17.072580	3.203030	4.586905	-0.414184	-0.356035	0.040260	-0.803223	-0.439941	0.199463	-0.309194	-0.593638	0.141375	-0.729387
62042		24.616331	5.076949	2.719624	-0.206735	-0.108748	0.111525	-0.810303	-0.445312	0.201904	-0.309536	-0.593612	0.144632	-0.728625
62043		27.831753	5.114915	5.953281	-0.158793	-0.272751	0.076068	-0.814453	-0.442383	0.210205	-0.309566	-0.595330	0.147843	-0.726563
62044		20.500251	2.388867	5.176733	-0.118604	-0.323862	0.057585	-0.809082	-0.437744	0.212402	-0.309324	-0.597704	0.150722	-0.724121
62045		18.460348	1.001759	4.727074	0.033667	0.237980	0.058254	-0.816650	-0.445557	0.208740	-0.308981	-0.595561	0.150048	-0.726170
62046		14.616236	1.899304	5.803971	-0.009390	0.745959	0.175510	-0.818848	-0.435303	0.187256	-0.308889	-0.588391	0.148713	-0.732304
62047		8.242562	2.082809	4.493915	0.115188	0.716933	0.073128	-0.819336	-0.436523	0.179199	-0.308707	-0.582079	0.145555	-0.738036
62048		4.698291	-0.014904	3.062477	0.217210	0.343678	-0.116922	-0.814697	-0.432373	0.172852	-0.308860	-0.579950	0.141509	-0.740431
62049		4.148860	-1.513864	2.902341	0.195892	-0.121731	-0.071572	-0.816650	-0.443115	0.171143	-0.307892	-0.581951	0.139763	-0.739595
62050		5.216238	-0.460086	2.964063	0.209045	-0.355828	-0.012434	-0.811768	-0.428467	0.185547	-0.305945	-0.586025	0.139277	-0.737275
62051		6.455987	1.657015	2.777250	0.201743	-0.399944	-0.053555	-0.817139	-0.434082	0.193604	-0.304242	-0.590550	0.138660	-0.734480
62052		8.307839	2.080791	2.439319	0.148112	-0.396016	-0.121131	-0.804932	-0.439941	0.206055	-0.303575	-0.594916	0.138028	-0.731346
62053		8.904787	2.230584	2.570776	-0.019170	-0.479642	-0.136825	-0.809570	-0.439697	0.210693	-0.304186	-0.599446	0.139148	-0.727168
62054		9.709410	3.141488	2.879552	-0.142121	-0.480286	-0.141814	-0.802490	-0.443115	0.225586	-0.305712	-0.603462	0.141319	-0.722774
62055		10.514775	3.867751	2.666710	-0.168261	-0.369697	-0.141001	-0.803223	-0.442139	0.228027	-0.307604	-0.606390	0.143293	-0.719123
62056		10.050991	3.885283	2.277577	-0.127203	-0.265217	-0.137795	-0.799805	-0.451904	0.234375	-0.309293	-0.608496	0.144480	-0.716377
62057		9.596282	3.200956	2.540026	-0.152665	-0.178001	-0.049287	-0.800049	-0.449463	0.238525	-0.310577	-0.609568	0.146249	-0.714549
62058		8.998337	2.678733	2.411831	-0.201298	-0.056886	0.024848	-0.802246	-0.450928	0.234131	-0.311746	-0.609234	0.148509	-0.713858
62059		8.578885	2.340904	2.297770	-0.193253	0.018072	0.055709	-0.799072	-0.455078	0.234619	-0.312721	-0.608184	0.150639	-0.713880
62060		8.836569	2.037575	2.239316	-0.191488	0.027763	0.095417	-0.800293	-0.452148	0.235596	-0.313376	-0.606997	0.153035	-0.714094
62061		9.287510	1.790496	2.435997	-0.183844	0.012764	0.113681	-0.804932	-0.449463	0.229736	-0.313756	-0.605948	0.155537	-0.714277
62062		9.452806	1.461007	2.213162	-0.166447	-0.008380	0.115316	-0.796875	-0.447266	0.225586	-0.313936	-0.605128	0.157970	-0.714360
62063		9.536505	1.096240	2.116988	-0.138555	0.005807	0.119344	-0.802734	-0.445557	0.225830	-0.313915	-0.604284	0.160143	-0.714600
62064		9.405167	0.927263	2.050102	-0.108637	0.006344	0.136280	-0.799561	-0.441650	0.225342	-0.313503	-0.603516	0.162166	-0.714974
62065		9.535381	0.715641	1.870899	-0.043835	-0.002033	0.141729	-0.804932	-0.436279	0.228516	-0.312533	-0.603073	0.163681	-0.715427
62066		9.644458	0.452959	1.996515	0.026022	0.044626	0.159966	-0.810547	-0.428467	0.225586	-0.310935	-0.602452	0.164502	-0.716457
62067		9.711348	0.442108	2.157646	0.033990	0.127745	0.171111	-0.812256	-0.438965	0.218994	-0.309315	-0.601075	0.164994	-0.718199
62068		9.477300	0.662087	2.186481	0.012113	0.164676	0.163359	-0.815674	-0.426025	0.218018	-0.308113	-0.599284	0.165576	-0.720077
62069		9.409197	0.666626	2.165477	0.015488	0.163085	0.145074	-0.819092	-0.427979	0.214355	-0.306975	-0.597555	0.165939	-0.721913
62070		9.431178	0.637493	2.104861	0.021144	0.160226	0.123897	-0.817871	-0.419189	0.204102	-0.306013	-0.595913	0.166135	-0.723631
62071		9.389021	0.740385	2.107899	-0.000820	0.139282	0.099524	-0.817383	-0.418457	0.218994	-0.305371	-0.594398	0.166419	-0.725082
62072		9.359989	0.824666	2.008415	-0.037184	0.118013	0.065521	-0.823242	-0.425537	0.202881	-0.305241	-0.593079	0.166830	-0.726122
62073		9.387324	0.758177	1.888496	-0.039890	0.104709	0.033175	-0.818848	-0.418701	0.207520	-0.305471	-0.591882	0.167152	-0.726927
62074		9.267854	0.721648	2.122129	-0.018451	0.062360	-0.004094	-0.822998	-0.413330	0.199219	-0.305747	-0.591262	0.167123	-0.727323
62075		9.619603	0.871833	2.239823	-0.043422	0.095972	-0.018571	-0.822021	-0.420898	0.207031	-0.306380	-0.590234	0.167071	-0.727903
62076		9.564853	0.982455	2.128743	-0.042163	0.149061	-0.029342	-0.821777	-0.421387	0.200439	-0.307242	-0.588795	0.166741	-0.728780
62077		9.365497	0.922102	2.363798	-0.084349	0.127766	-0.034423	-0.814209	-0.415527	0.190430	-0.308422	-0.587385	0.166848	-0.729395
62078		9.418618	0.948461	2.445686	-0.054573	0.098064	-0.040424	-0.813232	-0.420166	0.194336	-0.309356	-0.586353	0.166743	-0.729853
62079		9.526918	0.937180	2.418047	0.005167	0.115738	-0.034143	-0.815674	-0.420654	0.191650	-0.309845	-0.585406	0.166076	-0.730558
62080		9.532457	0.970304	2.456076	-0.024584	0.127053	-0.013242	-0.825439	-0.421631	0.189209	-0.310380	-0.584190	0.165788	-0.731369
62081		9.438600	0.992922	2.508842	-0.026111	0.129830	-0.017873	-0.824951	-0.416992	0.178955	-0.310962	-0.582940	0.165464	-0.732192
62082		9.306826	1.035367	2.483932	-0.015015	0.139886	-0.017040	-0.827148	-0.417969	0.179443	-0.311461	-0.581607	0.165002	-0.733144
62083		9.287001	1.075455	2.544205	-0.023099	0.127623	-0.022373	-0.821777	-0.417969	0.174805	-0.312038	-0.580376	0.164617	-0.733960
62084		9.292536	1.120216	2.645784	-0.031891	0.115800	-0.024445	-0.827148	-0.412842	0.176758	-0.312681	-0.579223	0.164351	-0.734656
62085		9.221385	1.128306	2.706113	-0.017020	0.091761	-0.017303	-0.825195	-0.423096	0.173828	-0.313052	-0.578341	0.164056	-0.735259
62086		9.289424	1.134410	2.671189	-0.003290	0.081604	-0.011602	-0.815430	-0.424561	0.173096	-0.313314	-0.577599	0.163761	-0.735796
62087		9.319142	1.170475	2.640082	0.006640	0.073237	-0.009165	-0.819092	-0.417969	0.165283	-0.313483	-0.576987	0.163431	-0.736277
62088		9.243357	1.172475	2.687956	0.023161	0.054435	-0.010879	-0.822021	-0.422852	0.161377	-0.313482	-0.576581	0.163001	-0.736691
62089		9.224922	1.222218	2.765165	0.028523	0.025052	-0.009234	-0.823975	-0.420654	0.169922	-0.313397	-0.576452	0.162672	-0.736901
62090		9.236029	1.235159	2.684182	0.026731	0.025155	-0.012569	-0.818848	-0.430176	0.166748	-0.313322	-0.576351	0.162304	-0.737093
62091		9.288589	1.257254	2.722720	0.010086	0.032710	-0.012704	-0.827637	-0.433838	0.162598	-0.313449	-0.576117	0.162100	-0.737267
62092		9.198936	1.237682	2.851494	0.004101	0.028612	-0.013640	-0.821533	-0.417969	0.161377	-0.313633	-0.575877	0.161976	-0.737403
62093		9.268763	1.243550	2.869188	-0.004015	0.025013	-0.008878	-0.818115	-0.422363	0.167236	-0.313746	-0.575623	0.161926	-0.737564
62094		9.308298	1.241390	2.716204	0.006552	0.021142	-0.010599	-0.820557	-0.427979	0.168213	-0.313806	-0.575481	0.161779	-0.737682
62095		9.285280	1.228554	2.759264	0.021266	0.013787	-0.013119	-0.826172	-0.426514	0.161133	-0.313791	-0.575476	0.161519	-0.737749
62096		9.264172	1.248094	2.847844	0.021348	0.004485	-0.017076	-0.820312	-0.415771	0.156250	-0.313793	-0.575530	0.161278	-0.737760
62097		9.278930	1.207841	2.780425	0.021510	0.011432	-0.017910	-0.823975	-0.428467	0.166016	-0.313774	-0.575503	0.160984	-0.737853
62098		9.239950	1.206589	2.689005	0.010291	0.025622	-0.011020	-0.820801	-0.423584	0.164551	-0.313842	-0.575328	0.160797	-0.738001
62099		9.233838	1.253262	2.723663	0.021652	0.017857	-0.012385	-0.821777	-0.424805	0.153320	-0.313806	-0.575268	0.160515	-0.738124
62100		9.272666	1.222801	2.733768	0.034167	0.012536	-0.006421	-0.817383	-0.414062	0.167725	-0.313640	-0.575254	0.160211	-0.738272
62101		9.333222	1.241710	2.694132	0.047421	0.018909	0.002281	-0.822754	-0.416260	0.165039	-0.313234	-0.575266	0.159760	-0.738533
62102		9.327920	1.329456	2.793838	0.051294	0.024196	0.007533	-0.822510	-0.414307	0.161621	-0.312776	-0.575218	0.159305	-0.738862
62103		9.250217	1.358213	2.753224	0.059309	0.031374	0.001990	-0.821533	-0.426514	0.161377	-0.312326	-0.575134	0.158714	-0.739245
62104		9.232189	1.268877	2.821139	0.021758	0.009971	0.009735	-0.818604	-0.418701	0.169678	-0.312095	-0.575094	0.158636	-0.739391
62105		9.161606	1.258564	2.820986	-0.006933	-0.019419	0.014699	-0.824707	-0.417480	0.160645	-0.311915	-0.575233	0.158933	-0.739294
62106		9.250882	1.265967	2.797846	0.030860	-0.036204	0.006722	-0.831543	-0.417725	0.159912	-0.311514	-0.575648	0.158916	-0.739144
62107		9.321110	1.283294	2.660524	0.023289	-0.021900	0.006173	-0.818115	-0.429443	0.167969	-0.311201	-0.575888	0.158917	-0.739089
62108		9.322956	1.319382	2.690578	0.005952	-0.011358	0.001405	-0.818115	-0.422363	0.167725	-0.311131	-0.576024	0.158998	-0.738995
62109		9.243558	1.264077	2.789932	0.011608	-0.010146	-0.006109	-0.825195	-0.420898	0.163330	-0.311060	-0.576179	0.158957	-0.738913
62110		9.217013	1.221186	2.787902	0.002341	-0.010584	-0.008853	-0.829102	-0.411865	0.166992	-0.311077	-0.576280	0.158997	-0.738818
62111		9.246421	1.251787	2.778769	-0.010548	-0.016098	-0.005473	-0.814209	-0.416260	0.165039	-0.311093	-0.576378	0.159180	-0.738696
62112		9.311430	1.246421	2.741077	-0.031518	-0.014859	-0.003987	-0.823242	-0.417236	0.169189	-0.311286	-0.576392	0.159566	-0.738520
62113		9.373488	1.233695	2.739391	-0.036155	-0.006250	-0.004906	-0.827148	-0.417236	0.170654	-0.311525	-0.576315	0.159950	-0.738396
62114		9.324957	1.231440	2.728748	-0.041463	0.008336	-0.005487	-0.820312	-0.420898	0.161133	-0.311829	-0.576085	0.160320	-0.738367
62115		9.263423	1.243743	2.776634	-0.035986	0.006331	-0.005910	-0.817627	-0.423340	0.162842	-0.312135	-0.575875	0.160669	-0.738326
62116		9.236984	1.153348	2.769861	-0.030120	-0.003768	-0.011631	-0.826416	-0.417969	0.166748	-0.312437	-0.575805	0.160955	-0.738191
62117		9.300537	1.216396	2.716389	-0.032934	0.009627	-0.010715	-0.823242	-0.418945	0.167480	-0.312737	-0.575598	0.161211	-0.738169
62118		9.319530	1.182633	2.752608	-0.046890	0.023677	-0.006760	-0.821289	-0.416992	0.160156	-0.313133	-0.575208	0.161563	-0.738228
62119		9.271472	1.193668	2.745836	-0.052933	0.033628	-0.010199	-0.822266	-0.425049	0.161377	-0.313630	-0.574688	0.161922	-0.738344
62120		9.255360	1.144029	2.819433	-0.048211	0.034778	-0.012330	-0.826660	-0.424805	0.155762	-0.314141	-0.574192	0.162218	-0.738447
62121		9.238017	1.097517	2.834703	-0.035739	0.031504	-0.009945	-0.826416	-0.425781	0.154785	-0.314539	-0.573749	0.162446	-0.738572
62122		9.247944	1.164690	2.828340	-0.013333	0.025367	-0.010194	-0.823975	-0.423828	0.161377	-0.314769	-0.573453	0.162488	-0.738695
62123		9.285219	1.176943	2.850030	-0.012319	0.018455	-0.013247	-0.820801	-0.424561	0.159668	-0.314981	-0.573258	0.162501	-0.738753
62124		9.326515	1.160083	2.904208	-0.015570	0.018583	-0.016324	-0.816406	-0.420898	0.154053	-0.315252	-0.573054	0.162522	-0.738790
62125		9.253695	1.146694	2.878879	-0.025656	0.023050	-0.008142	-0.832275	-0.424561	0.157471	-0.315527	-0.572738	0.162684	-0.738882
62126		9.213217	1.198952	2.862217	-0.024522	0.026775	-0.005767	-0.828125	-0.425049	0.164062	-0.315775	-0.572386	0.162846	-0.739014
62127		9.243892	1.159200	2.874606	-0.008874	0.027363	-0.012395	-0.826904	-0.429932	0.152344	-0.315960	-0.572134	0.162785	-0.739144
62128		9.246613	1.153139	2.839277	0.004770	0.014260	-0.013685	-0.828857	-0.426514	0.166748	-0.316076	-0.572025	0.162674	-0.739203
62129		9.272173	1.204008	2.887625	0.010401	0.017799	-0.014900	-0.821045	-0.430908	0.152832	-0.316123	-0.571954	0.162446	-0.739287
62130		9.198615	1.234438	2.883554	0.026571	0.030926	-0.016697	-0.824219	-0.417480	0.152100	-0.316146	-0.571795	0.162034	-0.739491
62131		9.220239	1.138424	2.873093	0.005638	0.014591	-0.011313	-0.825928	-0.427246	0.156738	-0.316187	-0.571678	0.161923	-0.739588
62132		9.179219	1.111508	2.872380	-0.013697	-0.015203	-0.005172	-0.830078	-0.424561	0.161621	-0.316271	-0.571770	0.162139	-0.739434
62133		9.278117	1.171423	2.853228	0.021955	-0.032082	-0.006140	-0.821533	-0.427246	0.149658	-0.316054	-0.572169	0.162079	-0.739231
62134		9.314005	1.142121	2.716284	0.031839	-0.011623	-0.007859	-0.824219	-0.426025	0.153320	-0.315864	-0.572390	0.161859	-0.739190
62135		9.289824	1.124709	2.832822	0.033449	0.003760	-0.009123	-0.819336	-0.423828	0.152832	-0.315694	-0.572484	0.161551	-0.739257
62136		9.198627	1.117733	2.870447	0.043308	0.008073	-0.009086	-0.817139	-0.420654	0.155029	-0.315458	-0.572578	0.161130	-0.739376
62137		9.206167	1.184844	2.833875	0.033258	0.004615	-0.007069	-0.818359	-0.426514	0.157715	-0.315254	-0.572668	0.160822	-0.739461
62138		9.239088	1.177208	2.843278	0.031211	0.008476	-0.005652	-0.822021	-0.430420	0.160156	-0.315074	-0.572722	0.160521	-0.739562
62139		9.294922	1.175634	2.840493	0.021145	0.012177	0.001111	-0.823486	-0.422363	0.152832	-0.314917	-0.572694	0.160343	-0.739688
62140		9.303591	1.230066	2.832021	0.017022	0.014894	0.000519	-0.819580	-0.419434	0.152832	-0.314791	-0.572595	0.160216	-0.739846
62141		9.262038	1.231983	2.838193	0.011917	0.022243	-0.003300	-0.828369	-0.427002	0.157227	-0.314743	-0.572419	0.160075	-0.740034
62142		9.206072	1.156610	2.906026	0.015024	0.017876	-0.004371	-0.822998	-0.418213	0.157227	-0.314686	-0.572308	0.159909	-0.740179
62143		9.215571	1.103835	2.895768	0.018815	0.004831	-0.000799	-0.823730	-0.421143	0.157471	-0.314515	-0.572328	0.159782	-0.740264
62144		9.229531	1.182944	2.834760	0.019570	0.003093	0.000882	-0.833984	-0.421143	0.158447	-0.314330	-0.572364	0.159665	-0.740340
62145		9.268285	1.160240	2.862412	0.004135	0.009337	0.003833	-0.818604	-0.428955	0.153076	-0.314236	-0.572268	0.159703	-0.740446
62146		9.287549	1.123938	2.852340	-0.002123	0.018838	0.007352	-0.818115	-0.430420	0.163086	-0.314214	-0.572057	0.159768	-0.740604
62147		9.269449	1.131224	2.890824	-0.004489	0.021600	0.015030	-0.823975	-0.419189	0.156006	-0.314125	-0.571833	0.159864	-0.740794
62148		9.245306	1.189202	2.933390	-0.008953	0.019623	0.017259	-0.826904	-0.417725	0.159668	-0.314024	-0.571569	0.160067	-0.740997
62149		9.223136	1.193893	2.889942	-0.001558	0.012317	0.011214	-0.834717	-0.415527	0.159912	-0.313898	-0.571425	0.160179	-0.741137
62150		9.287055	1.191184	2.948703	-0.006386	0.016015	0.007553	-0.826416	-0.419678	0.157227	-0.313841	-0.571227	0.160311	-0.741286
62151		9.255496	1.172748	2.919796	-0.025278	0.018230	0.006022	-0.826416	-0.420166	0.150391	-0.313956	-0.570941	0.160583	-0.741398
62152		9.215702	1.151889	2.877369	-0.038315	0.023921	0.004775	-0.827148	-0.420654	0.157959	-0.314203	-0.570534	0.160962	-0.741524
62153		9.200366	1.130925	2.892496	-0.038465	0.016970	0.005607	-0.827637	-0.427246	0.154053	-0.314411	-0.570217	0.161349	-0.741595
62154		9.246448	1.105839	2.937947	-0.028402	0.009154	0.003899	-0.824463	-0.421875	0.151611	-0.314574	-0.570009	0.161663	-0.741618
62155		9.251492	1.087904	2.868391	-0.016182	0.005190	0.001339	-0.830566	-0.416016	0.144043	-0.314655	-0.569885	0.161868	-0.741635
62156		9.263140	1.123458	2.956335	-0.012287	0.009594	0.000306	-0.821533	-0.418457	0.155273	-0.314728	-0.569702	0.162056	-0.741703
62157		9.209070	1.163358	2.932437	-0.001348	0.018910	-0.004343	-0.825195	-0.411621	0.153564	-0.314765	-0.569536	0.162014	-0.741824
62158		9.223141	1.101358	2.928203	-0.029656	0.009633	-0.002835	-0.820068	-0.430176	0.143311	-0.314955	-0.569328	0.162305	-0.741840
62159		9.170797	1.066900	2.934437	-0.041978	-0.012446	-0.000447	-0.824951	-0.416992	0.150146	-0.315238	-0.569257	0.162801	-0.741665
62160		9.261624	1.124049	2.947750	-0.013419	-0.024512	-0.004959	-0.828857	-0.417480	0.150879	-0.315284	-0.569429	0.163060	-0.741457
62161		9.310745	1.120276	2.823041	-0.004269	-0.006525	-0.008206	-0.823486	-0.418457	0.150879	-0.315331	-0.569474	0.163147	-0.741383
62162		9.275249	1.084984	2.929000	-0.010438	0.004291	-0.007468	-0.820068	-0.421631	0.157715	-0.315440	-0.569399	0.163240	-0.741374
62163		9.221441	1.027973	3.023154	-0.000493	0.013604	-0.001835	-0.821777	-0.414307	0.151855	-0.315436	-0.569294	0.163210	-0.741463
62164		9.201866	1.083391	2.965580	-0.007158	0.005700	0.002660	-0.821289	-0.430176	0.152832	-0.315417	-0.569202	0.163340	-0.741513
62165		9.268538	1.090452	2.930876	-0.013192	0.008077	0.007844	-0.826172	-0.421387	0.151611	-0.315434	-0.569068	0.163516	-0.741570
62166		9.265070	1.079906	2.967849	-0.020173	0.010225	0.013454	-0.824951	-0.423828	0.147949	-0.315435	-0.568861	0.163819	-0.741661
62167		9.257780	1.098488	2.972498	-0.017334	0.015147	0.012102	-0.823242	-0.414307	0.149658	-0.315452	-0.568616	0.164068	-0.741787
62168		9.209061	1.121396	2.923499	-0.018787	0.027765	0.007192	-0.829590	-0.422607	0.148926	-0.315524	-0.568261	0.164254	-0.741987
62169		9.133493	1.101123	3.021588	-0.008633	0.019841	0.002657	-0.829102	-0.418945	0.146973	-0.315569	-0.568028	0.164341	-0.742127
62170		9.170904	1.050685	2.988942	-0.006802	-0.007922	0.000208	-0.827881	-0.412354	0.152832	-0.315563	-0.568058	0.164513	-0.742069
62171		9.234508	1.094521	2.904370	0.007422	-0.009361	-0.002518	-0.823242	-0.416016	0.155273	-0.315449	-0.568179	0.164534	-0.742020
62172		9.309009	1.046008	2.977553	-0.004799	-0.002566	0.000009	-0.832031	-0.425781	0.149414	-0.315414	-0.568198	0.164632	-0.741998
62173		9.256987	1.075825	2.977395	-0.006939	0.011268	0.004040	-0.826416	-0.418213	0.148438	-0.315423	-0.568050	0.164740	-0.742084
62174		9.189735	1.058768	2.985219	-0.007248	0.014268	0.005303	-0.825684	-0.413330	0.146973	-0.315414	-0.567869	0.164854	-0.742201
62175		9.172586	1.061080	2.989715	0.000064	0.007062	0.002005	-0.830322	-0.426514	0.147461	-0.315361	-0.567785	0.164918	-0.742274
62176		9.196909	1.091449	2.948657	0.016355	-0.000301	0.001428	-0.822754	-0.414551	0.151855	-0.315209	-0.567841	0.164830	-0.742315
62177		9.241348	1.091761	2.982103	0.014207	-0.003615	-0.006215	-0.829834	-0.422852	0.145020	-0.315100	-0.567948	0.164720	-0.742303
62178		9.277835	1.090882	3.000798	0.001394	-0.000801	-0.005913	-0.832031	-0.418945	0.150391	-0.315121	-0.567954	0.164737	-0.742286
62179		9.240749	1.128852	2.973063	-0.012120	0.012881	-0.008852	-0.829834	-0.421875	0.150146	-0.315274	-0.567797	0.164805	-0.742326
62180		9.179849	1.090155	2.935351	-0.018365	0.014470	-0.013592	-0.828613	-0.418945	0.147461	-0.315522	-0.567616	0.164876	-0.742343
62181		9.196938	1.041453	2.984384	-0.008096	0.001569	-0.017297	-0.819824	-0.413086	0.142334	-0.315704	-0.567595	0.164889	-0.742280
62182		9.223717	1.054226	2.949374	-0.000263	-0.007847	-0.011930	-0.829590	-0.418213	0.148926	-0.315759	-0.567669	0.164915	-0.742193
62183		9.242614	1.103028	2.978013	0.009271	-0.005537	-0.014022	-0.830811	-0.421875	0.144775	-0.315767	-0.567778	0.164820	-0.742128
62184		9.257197	1.115026	2.995035	0.006446	0.009189	-0.017965	-0.826172	-0.411133	0.142822	-0.315880	-0.567734	0.164672	-0.742146
62185		9.196209	1.082777	3.045058	0.001275	0.008199	-0.018805	-0.828369	-0.417725	0.146729	-0.316018	-0.567673	0.164595	-0.742152
62186		9.146630	1.095572	2.902997	-0.011163	-0.015875	-0.012261	-0.821777	-0.418945	0.147705	-0.316136	-0.567787	0.164749	-0.741980
62187		9.206571	1.082040	2.976456	-0.000490	-0.040216	-0.014933	-0.830811	-0.416260	0.152100	-0.316151	-0.568184	0.164859	-0.741645
62188		9.309529	1.116746	2.885412	0.030235	-0.034933	-0.017015	-0.819824	-0.421631	0.142334	-0.315966	-0.568657	0.164671	-0.741403
62189		9.327972	1.111564	2.845687	0.011937	-0.011690	-0.009570	-0.830811	-0.419434	0.151611	-0.315924	-0.568808	0.164601	-0.741321
62190		9.240221	1.114057	2.935428	0.022110	-0.000600	-0.015869	-0.827637	-0.417725	0.143066	-0.315867	-0.568924	0.164359	-0.741309
62191		9.138956	1.091875	2.958661	0.021347	-0.004386	-0.012499	-0.833252	-0.418701	0.141113	-0.315795	-0.569039	0.164187	-0.741290
62192		9.183321	1.061850	2.897995	0.022660	-0.011265	-0.007034	-0.822998	-0.422363	0.153076	-0.315658	-0.569200	0.164089	-0.741246
62193		9.250053	1.084111	2.876255	0.015565	-0.018151	0.002942	-0.827637	-0.419434	0.141602	-0.315439	-0.569426	0.164079	-0.741169
62194		9.310264	1.131429	2.944599	0.010762	-0.016497	0.002872	-0.825439	-0.413330	0.147705	-0.315285	-0.569573	0.164165	-0.741102
62195		9.337094	1.114528	2.949695	0.011113	0.001557	-0.001612	-0.824463	-0.418701	0.163330	-0.315181	-0.569580	0.164138	-0.741147
62196		9.233541	1.100984	2.892153	0.012599	0.014879	-0.003547	-0.817139	-0.421631	0.149170	-0.315082	-0.569527	0.163964	-0.741268
62197		9.146376	1.087779	2.922189	0.007523	0.002608	-0.002010	-0.826660	-0.419434	0.144775	-0.315018	-0.569529	0.163909	-0.741305
62198		9.159277	1.115849	2.885655	0.018717	-0.010689	-0.004697	-0.823730	-0.412354	0.151123	-0.314883	-0.569680	0.163831	-0.741264
62199		9.279494	1.095765	2.949694	0.007496	-0.012913	-0.003809	-0.827881	-0.415771	0.153320	-0.314787	-0.569822	0.163867	-0.741188
62200		9.294492	1.142272	2.941510	-0.010535	-0.003982	0.000427	-0.826416	-0.419434	0.144287	-0.314801	-0.569806	0.164060	-0.741152
62201		9.259291	1.134594	2.948273	-0.013499	0.001707	0.000824	-0.825928	-0.417969	0.152588	-0.314873	-0.569700	0.164273	-0.741156
62202		9.209051	1.085633	2.948112	-0.011764	-0.005556	-0.002728	-0.823975	-0.414551	0.152588	-0.314926	-0.569702	0.164448	-0.741093
62203		9.195155	1.071768	2.897347	0.004178	-0.015515	-0.004057	-0.827393	-0.426270	0.154785	-0.314851	-0.569862	0.164511	-0.740988
62204		9.285638	1.096155	2.875480	0.007570	-0.015719	-0.001620	-0.826904	-0.418213	0.153076	-0.314745	-0.570041	0.164527	-0.740892
62205		9.316279	1.117228	2.892844	0.005660	-0.009133	-0.000923	-0.823730	-0.412109	0.152344	-0.314651	-0.570139	0.164571	-0.740846
62206		9.259982	1.088060	2.906022	0.006728	0.002288	-0.002248	-0.831055	-0.416992	0.152344	-0.314577	-0.570135	0.164564	-0.740882
62207		9.234263	1.095039	2.882130	0.000111	0.015419	-0.000994	-0.826904	-0.421387	0.152344	-0.314577	-0.569976	0.164580	-0.741001
62208		9.195705	1.073093	2.849608	-0.003765	0.008187	0.000104	-0.832275	-0.415283	0.148926	-0.314585	-0.569874	0.164640	-0.741062
62209		9.223137	1.048007	2.928010	0.007517	-0.002918	0.003030	-0.828369	-0.420898	0.145752	-0.314463	-0.569895	0.164705	-0.741084
62210		9.256348	1.075436	2.912479	0.018228	-0.007483	0.002129	-0.827148	-0.414307	0.152832	-0.314279	-0.570000	0.164663	-0.741090
62211		9.298798	1.094109	2.892552	0.025179	-0.005270	0.001362	-0.830322	-0.416016	0.159180	-0.314030	-0.570131	0.164537	-0.741123
62212		9.282581	1.128626	2.897514	0.023414	0.010982	-0.003742	-0.823486	-0.416260	0.145264	-0.313862	-0.570132	0.164312	-0.741243
62213		9.263511	1.118200	2.961967	0.014718	0.011039	-0.002842	-0.822266	-0.413086	0.165283	-0.313782	-0.570060	0.164196	-0.741358
62214		9.202719	1.085673	2.849925	0.005364	-0.013182	0.000500	-0.826904	-0.421875	0.156006	-0.313630	-0.570231	0.164228	-0.741284
62215		9.275632	1.063707	2.899085	0.014873	-0.029191	-0.003317	-0.830322	-0.415527	0.161865	-0.313454	-0.570567	0.164222	-0.741102
62216		9.319637	1.075993	2.798406	0.044868	-0.018640	-0.008583	-0.826660	-0.416260	0.151855	-0.313113	-0.570940	0.163874	-0.741035
62217		9.328252	1.081282	2.809606	0.024999	-0.004523	-0.001510	-0.824951	-0.407959	0.154297	-0.312906	-0.571062	0.163727	-0.741061
62218		9.243455	1.087613	2.821702	0.029940	0.004899	-0.007277	-0.827148	-0.412842	0.151367	-0.312717	-0.571130	0.163472	-0.741145
62219		9.164986	1.078161	2.863993	0.028949	-0.007908	-0.003746	-0.823242	-0.417480	0.163330	-0.312494	-0.571297	0.163300	-0.741148
62220		9.237117	1.116446	2.818861	0.025697	-0.009086	-0.001878	-0.827637	-0.413330	0.153076	-0.312248	-0.571501	0.163113	-0.741135
62221		9.317415	1.088611	2.809608	0.019181	-0.003118	-0.003284	-0.826172	-0.410645	0.158936	-0.312100	-0.571587	0.163014	-0.741154
62222		9.341352	1.095641	2.853069	0.012639	-0.002029	-0.003173	-0.823730	-0.410889	0.163574	-0.311979	-0.571654	0.162957	-0.741165
62223		9.289150	1.127284	2.852007	0.004179	0.007050	-0.002433	-0.829346	-0.416992	0.154297	-0.311918	-0.571619	0.162927	-0.741224
62224		9.214258	1.111510	2.843785	0.014850	0.007359	-0.006959	-0.830566	-0.416260	0.171875	-0.311860	-0.571602	0.162788	-0.741292
62225		9.219383	1.037658	2.823553	0.014837	-0.009573	-0.008650	-0.826416	-0.403809	0.154541	-0.311735	-0.571798	0.162653	-0.741224
62226		9.241105	1.127412	2.805946	0.024360	-0.007232	-0.010755	-0.826660	-0.414307	0.162598	-0.311595	-0.571955	0.162493	-0.741197
62227		9.312900	1.137114	2.862453	0.004196	0.005510	-0.007318	-0.831787	-0.421875	0.161865	-0.311587	-0.571938	0.162435	-0.741226
62228		9.297577	1.093188	2.871541	-0.001724	0.015331	-0.011469	-0.827148	-0.419922	0.151123	-0.311694	-0.571813	0.162355	-0.741294
62229		9.240338	1.060602	2.903074	0.000471	0.019347	-0.005273	-0.827148	-0.415527	0.159424	-0.311760	-0.571618	0.162312	-0.741426
62230		9.228986	1.109275	2.887198	-0.000909	0.012342	-0.002697	-0.827881	-0.419678	0.150391	-0.311768	-0.571502	0.162313	-0.741513
62231		9.214822	1.120257	2.856321	0.005116	0.002277	-0.006250	-0.824951	-0.414307	0.155518	-0.311776	-0.571484	0.162289	-0.741528
62232		9.271172	1.121039	2.897225	0.004410	0.001841	-0.009268	-0.830322	-0.416016	0.156494	-0.311792	-0.571490	0.162244	-0.741527
62233		9.240154	1.143357	2.898755	0.000555	0.002301	-0.009743	-0.822998	-0.415527	0.151123	-0.311844	-0.571475	0.162236	-0.741518
62234		9.253141	1.134016	2.887044	-0.002484	0.001542	-0.014868	-0.828613	-0.412842	0.152588	-0.311973	-0.571457	0.162221	-0.741481
62235		9.299327	1.113676	2.885715	-0.010962	0.012022	-0.014178	-0.824219	-0.413818	0.159180	-0.312172	-0.571305	0.162270	-0.741504
62236		9.225644	1.115508	2.863222	-0.022381	0.010617	-0.011268	-0.829102	-0.421631	0.155029	-0.312403	-0.571141	0.162413	-0.741502
62237		9.213711	1.078958	2.881935	-0.020108	0.000405	-0.009623	-0.827393	-0.417236	0.154297	-0.312605	-0.571065	0.162587	-0.741436
62238		9.243030	1.071788	2.898936	-0.010908	-0.008355	-0.012252	-0.827637	-0.416748	0.153564	-0.312742	-0.571110	0.162703	-0.741319
62239		9.302275	1.086119	2.935123	0.000115	-0.006652	-0.011064	-0.825684	-0.417480	0.151367	-0.312794	-0.571176	0.162725	-0.741241
62240		9.250305	1.149909	2.981135	-0.009437	0.005740	-0.010732	-0.824951	-0.416748	0.155029	-0.312943	-0.571085	0.162790	-0.741234
62241		9.230335	1.144798	2.928738	-0.004003	-0.002668	-0.016625	-0.822998	-0.416016	0.156494	-0.313078	-0.571116	0.162783	-0.741155
62242		9.208293	1.063016	2.781413	-0.019211	-0.019011	-0.008881	-0.830078	-0.417725	0.159180	-0.313210	-0.571230	0.163029	-0.740957
62243		9.260431	1.058049	2.961112	-0.016767	-0.038419	-0.006273	-0.828613	-0.417725	0.155029	-0.313260	-0.571528	0.163355	-0.740634
62244		9.282864	1.117583	2.831747	0.025660	-0.039437	-0.011019	-0.820557	-0.415039	0.151123	-0.313061	-0.571999	0.163270	-0.740374
62245		9.322281	1.141904	2.814211	0.013478	-0.023723	-0.012946	-0.834717	-0.410400	0.163330	-0.313005	-0.572271	0.163225	-0.740197
62246		9.263993	1.136272	2.817369	0.013307	-0.006828	-0.015511	-0.825684	-0.413818	0.155029	-0.312977	-0.572409	0.163115	-0.740126
62247		9.216365	1.107316	2.858275	0.014743	-0.002492	-0.010964	-0.833008	-0.422363	0.166260	-0.312929	-0.572489	0.162999	-0.740110
62248		9.230632	1.150306	2.819688	0.008738	0.003199	-0.012207	-0.828125	-0.413818	0.158936	-0.312932	-0.572526	0.162865	-0.740110
62249		9.288785	1.136810	2.855298	0.006607	0.005620	-0.012906	-0.817627	-0.412354	0.160156	-0.312968	-0.572511	0.162774	-0.740126
62250		9.293347	1.072460	2.913258	0.001392	0.005348	-0.012361	-0.819580	-0.421143	0.154541	-0.313025	-0.572490	0.162708	-0.740133
62251		9.284723	1.128959	2.861796	-0.006662	0.015660	-0.008713	-0.821289	-0.417969	0.157227	-0.313155	-0.572322	0.162699	-0.740210
62252		9.223562	1.128249	2.904787	0.007670	0.021290	-0.012257	-0.822510	-0.416260	0.166260	-0.313214	-0.572170	0.162515	-0.740343
62253		9.224614	1.052908	2.909227	0.010972	0.002865	-0.010812	-0.827148	-0.417236	0.159424	-0.313171	-0.572225	0.162361	-0.740353
62254		9.220941	1.136764	2.850398	0.019575	0.007970	-0.005527	-0.819092	-0.417725	0.159424	-0.313050	-0.572230	0.162178	-0.740440
62255		9.292192	1.143258	2.864103	0.003477	0.006002	-0.001907	-0.830078	-0.416260	0.159912	-0.313004	-0.572192	0.162153	-0.740494
62256		9.293912	1.123729	2.874506	0.000886	0.019859	-0.003730	-0.824463	-0.418213	0.154785	-0.313023	-0.572008	0.162118	-0.740635
62257		9.263317	1.101509	2.917298	0.003816	0.026244	-0.000888	-0.822754	-0.417236	0.154785	-0.313021	-0.571764	0.162044	-0.740841
62258		9.225732	1.162051	2.907927	0.003562	0.013090	0.002168	-0.833252	-0.419922	0.152588	-0.312963	-0.571638	0.162042	-0.740963
62259		9.242751	1.145958	2.844944	0.011142	0.008561	-0.004562	-0.822021	-0.422363	0.156982	-0.312918	-0.571582	0.161965	-0.741042
62260		9.261875	1.120020	2.865146	0.017149	0.009167	-0.004862	-0.826904	-0.415527	0.146973	-0.312819	-0.571571	0.161774	-0.741134
62261		9.277747	1.150153	2.912523	0.010774	0.010914	-0.001917	-0.818115	-0.417480	0.156738	-0.312764	-0.571474	0.161724	-0.741243
62262		9.248942	1.177562	2.881873	-0.001933	0.014146	-0.005852	-0.824463	-0.415039	0.155273	-0.312813	-0.571345	0.161688	-0.741330
62263		9.269374	1.134604	2.899344	-0.008428	0.022922	-0.005224	-0.821045	-0.418457	0.157227	-0.312923	-0.571097	0.161711	-0.741470
62264		9.210991	1.135371	2.864304	-0.016684	0.022788	-0.001400	-0.822998	-0.421875	0.153076	-0.313052	-0.570822	0.161810	-0.741605
62265		9.235237	1.124674	2.908047	-0.016595	0.014200	-0.006086	-0.824219	-0.416016	0.155518	-0.313222	-0.570627	0.161914	-0.741661
62266		9.249671	1.097751	2.893873	-0.006746	0.013584	-0.009399	-0.825684	-0.418701	0.149170	-0.313335	-0.570487	0.161917	-0.741720
62267		9.239708	1.106797	2.958526	0.004876	0.013678	-0.005862	-0.822754	-0.419189	0.155029	-0.313354	-0.570367	0.161854	-0.741818
62268		9.258423	1.167771	2.989991	-0.000709	0.026924	-0.005758	-0.832031	-0.421143	0.151855	-0.313421	-0.570123	0.161761	-0.741997
62269		9.199893	1.112307	2.948032	0.005563	0.011150	-0.009807	-0.832520	-0.419678	0.155273	-0.313463	-0.570043	0.161670	-0.742062
62270		9.206186	1.061008	2.842586	-0.021052	-0.007474	-0.002736	-0.824463	-0.413574	0.152100	-0.313579	-0.570026	0.161943	-0.741966
62271		9.238905	1.128340	2.948786	-0.014202	-0.026953	-0.003013	-0.822754	-0.416504	0.148438	-0.313606	-0.570212	0.162236	-0.741748
62272		9.309311	1.154995	2.845613	0.020089	-0.024639	-0.008083	-0.827637	-0.418213	0.150635	-0.313455	-0.570512	0.162164	-0.741596
62273		9.308304	1.108467	2.810899	0.006384	0.000955	-0.007919	-0.827637	-0.421387	0.158447	-0.313453	-0.570522	0.162124	-0.741598
62274		9.203392	1.083231	2.902033	0.013906	0.004389	-0.006411	-0.822510	-0.423340	0.152100	-0.313373	-0.570551	0.161977	-0.741642
62275		9.172276	1.107159	2.947726	0.010496	-0.001602	-0.002389	-0.821289	-0.411133	0.152588	-0.313285	-0.570601	0.161915	-0.741654
62276		9.232701	1.167802	2.868598	0.003320	-0.009449	-0.005093	-0.834473	-0.420166	0.153809	-0.313241	-0.570697	0.161964	-0.741588
62277		9.306691	1.099896	2.868530	0.004294	-0.004962	-0.003496	-0.822266	-0.417969	0.152100	-0.313199	-0.570747	0.162000	-0.741560
62278		9.292900	1.085592	2.922228	0.001412	0.002155	0.001082	-0.830322	-0.423828	0.153564	-0.313146	-0.570715	0.162050	-0.741595
62279		9.257376	1.136051	2.832583	-0.001111	0.003452	0.004500	-0.829590	-0.423096	0.145508	-0.313090	-0.570655	0.162140	-0.741645
62280		9.195867	1.116501	2.932262	-0.003649	0.001781	0.000956	-0.824219	-0.414551	0.150879	-0.313103	-0.570585	0.162259	-0.741668
62281		9.255750	1.090683	2.890090	0.001765	-0.010736	-0.002022	-0.830322	-0.418701	0.156006	-0.313050	-0.570675	0.162350	-0.741601
62282		9.239619	1.094240	2.890685	0.008077	0.000364	0.001746	-0.827637	-0.419189	0.155762	-0.312934	-0.570690	0.162354	-0.741638
62283		9.271985	1.123204	2.921533	-0.009227	0.002437	0.004162	-0.824951	-0.421387	0.153809	-0.312925	-0.570615	0.162519	-0.741664
62284		9.273887	1.105568	2.917241	-0.013262	0.005791	0.004262	-0.825684	-0.405029	0.156738	-0.312957	-0.570491	0.162701	-0.741705
62285		9.228047	1.081887	2.914058	-0.008300	0.010378	0.002152	-0.835205	-0.414551	0.150146	-0.312951	-0.570348	0.162842	-0.741786
62286		9.219627	1.081201	2.945701	-0.003647	0.003970	0.004420	-0.831543	-0.412109	0.153076	-0.312913	-0.570256	0.162997	-0.741839
62287		9.225806	1.093458	2.876536	0.007021	-0.005427	0.002966	-0.825928	-0.418213	0.164795	-0.312780	-0.570308	0.163066	-0.741840
62288		9.288407	1.079491	2.889176	0.014767	-0.001559	-0.002496	-0.825684	-0.417969	0.150391	-0.312624	-0.570407	0.162940	-0.741857
62289		9.264324	1.078011	2.889847	0.012035	0.009574	-0.003587	-0.830811	-0.413574	0.154053	-0.312562	-0.570353	0.162834	-0.741949
62290		9.221126	1.095159	2.899803	0.000143	0.012493	-0.003763	-0.827881	-0.420166	0.157715	-0.312577	-0.570229	0.162840	-0.742036
62291		9.229790	1.112506	2.857034	-0.009852	0.011785	0.000236	-0.834229	-0.421143	0.153320	-0.312622	-0.570082	0.162930	-0.742111
62292		9.245649	1.109364	2.857198	-0.010877	0.003680	-0.006916	-0.831787	-0.407959	0.149658	-0.312739	-0.570004	0.163035	-0.742098
62293		9.284854	1.054691	2.895770	-0.005476	0.005935	-0.009537	-0.831787	-0.417725	0.159912	-0.312838	-0.569916	0.163107	-0.742108
62294		9.251583	1.087782	2.917888	-0.000071	0.015263	-0.010209	-0.820801	-0.420654	0.151611	-0.312907	-0.569800	0.163026	-0.742186
62295		9.245625	1.124078	2.977754	-0.002903	0.019435	-0.010463	-0.824219	-0.415283	0.156006	-0.313028	-0.569624	0.162943	-0.742288
62296		9.242709	1.133842	2.911608	0.007769	0.021222	-0.014972	-0.824951	-0.413818	0.156494	-0.313100	-0.569489	0.162731	-0.742408
62297		9.217161	1.048320	2.951168	-0.007995	0.005042	-0.009585	-0.829834	-0.411377	0.149658	-0.313197	-0.569432	0.162771	-0.742402
62298		9.173576	1.072957	2.932577	-0.025396	-0.008850	0.000167	-0.831543	-0.424561	0.149414	-0.313316	-0.569391	0.163136	-0.742303
62299		9.266241	1.079042	2.964056	0.003564	-0.018001	-0.005541	-0.828369	-0.410889	0.158203	-0.313282	-0.569566	0.163194	-0.742170
62300		9.284218	1.130155	2.830435	0.028382	-0.005441	-0.009485	-0.825439	-0.425049	0.150879	-0.313091	-0.569748	0.162950	-0.742164
62301		9.247531	1.104876	2.866018	0.023684	0.012271	-0.009908	-0.825928	-0.417725	0.149902	-0.313011	-0.569738	0.162654	-0.742271
62302		9.199827	1.122922	2.898560	0.024825	0.025030	-0.011950	-0.827393	-0.412354	0.155029	-0.312963	-0.569610	0.162309	-0.742466
62303		9.184213	1.109534	2.912399	0.015036	0.018577	-0.008468	-0.827393	-0.415283	0.153076	-0.312917	-0.569507	0.162106	-0.742608
62304		9.249611	1.123040	2.982496	0.014058	0.020383	-0.011616	-0.832275	-0.413086	0.143066	-0.312919	-0.569387	0.161880	-0.742748
62305		9.287734	1.126402	2.985907	0.008561	0.028000	-0.009254	-0.826172	-0.414062	0.156738	-0.312981	-0.569136	0.161741	-0.742945
62306		9.285052	1.101366	2.932070	-0.004050	0.029182	-0.007527	-0.829346	-0.411133	0.148193	-0.313076	-0.568868	0.161663	-0.743127
62307		9.232828	1.113022	2.945067	0.010113	0.036375	-0.010355	-0.825928	-0.415283	0.150391	-0.313132	-0.568567	0.161446	-0.743381
62308		9.180597	1.067945	2.951868	0.019972	0.025238	-0.014088	-0.821045	-0.420898	0.145020	-0.313126	-0.568429	0.161126	-0.743558
62309		9.169977	1.080868	3.015716	0.036125	0.002713	-0.014918	-0.823486	-0.412842	0.151855	-0.312987	-0.568559	0.160727	-0.743604
62310		9.235542	1.130284	2.969917	0.039923	0.013602	-0.012578	-0.819824	-0.415527	0.148682	-0.312792	-0.568609	0.160274	-0.743745
62311		9.238894	1.159504	3.023824	0.007485	0.008819	-0.010540	-0.823242	-0.409912	0.143799	-0.312811	-0.568568	0.160151	-0.743795
62312		9.226150	1.216410	3.038106	-0.013975	0.012735	-0.012346	-0.829834	-0.427490	0.151367	-0.313015	-0.568390	0.160238	-0.743826
62313		9.213339	1.214306	3.047707	-0.021855	0.009430	-0.014704	-0.818848	-0.416748	0.151611	-0.313293	-0.568244	0.160336	-0.743800
62314		9.227186	1.139626	3.001100	-0.015855	0.005025	-0.020474	-0.828125	-0.415771	0.142334	-0.313552	-0.568179	0.160357	-0.743736
62315		9.212603	1.098878	2.951209	-0.006536	0.002007	-0.018927	-0.825684	-0.419922	0.152100	-0.313752	-0.568140	0.160368	-0.743679
62316		9.193919	1.116642	2.971841	-0.006021	-0.000935	-0.013784	-0.838135	-0.408203	0.145752	-0.313870	-0.568153	0.160376	-0.743618
62317		9.234500	1.173260	2.987778	-0.014067	-0.007629	-0.014015	-0.834229	-0.407959	0.141357	-0.314041	-0.568161	0.160564	-0.743498
62318		9.243882	1.107499	2.978617	-0.020030	0.001531	-0.014648	-0.820312	-0.412598	0.149414	-0.314290	-0.568053	0.160773	-0.743431
62319		9.218012	1.089696	2.937822	-0.020624	0.003322	-0.009950	-0.822998	-0.407471	0.142334	-0.314478	-0.567954	0.160942	-0.743390
62320		9.214547	1.112861	2.975218	-0.012973	-0.005135	-0.004598	-0.826904	-0.427246	0.142578	-0.314560	-0.567929	0.161154	-0.743329
62321		9.196005	1.132162	2.981578	-0.005218	-0.005337	-0.005009	-0.819092	-0.421387	0.148193	-0.314617	-0.567946	0.161247	-0.743272
62322		9.209389	1.153501	3.015775	0.002842	-0.005082	-0.010253	-0.825439	-0.414551	0.147705	-0.314639	-0.568022	0.161207	-0.743213
62323		9.237735	1.153897	3.064202	-0.009604	-0.004661	-0.005673	-0.826416	-0.423340	0.143799	-0.314702	-0.568024	0.161348	-0.743154
62324		9.243382	1.176775	2.967479	0.002077	-0.010934	-0.005451	-0.823730	-0.420166	0.150391	-0.314691	-0.568123	0.161398	-0.743072
62325		9.226464	1.106110	2.918549	-0.012882	-0.020559	-0.001432	-0.823730	-0.411621	0.141602	-0.314706	-0.568263	0.161636	-0.742907
62326		9.212719	1.097402	3.000061	-0.014119	-0.018557	-0.001149	-0.823975	-0.420898	0.142090	-0.314746	-0.568349	0.161931	-0.742761
62327		9.210295	1.098863	2.958427	0.028842	-0.025821	-0.006038	-0.828857	-0.415039	0.144043	-0.314523	-0.568686	0.161796	-0.742626
62328		9.285974	1.118231	2.918293	0.022317	-0.017703	-0.001891	-0.825928	-0.421875	0.147461	-0.314315	-0.568910	0.161741	-0.742555
62329		9.253784	1.126531	2.918269	0.015401	-0.009570	-0.005590	-0.822998	-0.402100	0.149414	-0.314207	-0.569053	0.161659	-0.742508
62330		9.226281	1.098330	2.921883	0.016882	-0.004546	-0.000331	-0.828369	-0.416992	0.148438	-0.314016	-0.569141	0.161618	-0.742530
62331		9.197612	1.134123	2.962716	0.013138	-0.007557	0.004903	-0.840576	-0.422119	0.142822	-0.313824	-0.569232	0.161640	-0.742537
62332		9.240510	1.148288	2.956115	0.006192	-0.006524	-0.002866	-0.823242	-0.416992	0.142578	-0.313784	-0.569277	0.161698	-0.742507
62333		9.276876	1.122403	2.958567	-0.004574	-0.005552	-0.000578	-0.831543	-0.416748	0.154297	-0.313790	-0.569278	0.161844	-0.742472
62334		9.244897	1.121269	2.930331	0.000712	0.002503	0.001566	-0.826660	-0.421387	0.151123	-0.313723	-0.569246	0.161906	-0.742511
62335		9.187542	1.156129	2.981582	0.007578	0.000525	-0.003299	-0.834473	-0.415771	0.157471	-0.313664	-0.569267	0.161865	-0.742529
62336		9.210175	1.114045	2.993340	-0.003659	-0.013184	-0.008546	-0.829834	-0.422852	0.149658	-0.313681	-0.569390	0.161955	-0.742408
62337		9.210627	1.117862	2.932479	0.001418	-0.014194	-0.008367	-0.825928	-0.412109	0.146729	-0.313690	-0.569527	0.162002	-0.742289
62338		9.276637	1.113928	2.953684	-0.008873	-0.012714	-0.004538	-0.824463	-0.416016	0.149414	-0.313732	-0.569590	0.162192	-0.742181
62339		9.260535	1.146210	2.956344	-0.011699	-0.005715	-0.002754	-0.827148	-0.421631	0.148926	-0.313790	-0.569585	0.162374	-0.742121
62340		9.206371	1.103953	2.951295	-0.012171	-0.002752	-0.005769	-0.822021	-0.416504	0.147949	-0.313896	-0.569555	0.162522	-0.742067
62341		9.225891	1.109919	2.958939	-0.014593	-0.006460	-0.003621	-0.815674	-0.420410	0.158936	-0.313984	-0.569546	0.162725	-0.741992
62342		9.259359	1.104150	2.953888	-0.005462	-0.007330	-0.005016	-0.825439	-0.423584	0.155029	-0.313993	-0.569620	0.162782	-0.741919
62343		9.264926	1.096119	2.912530	0.002194	-0.004719	-0.007642	-0.829346	-0.426514	0.146729	-0.313994	-0.569688	0.162765	-0.741870
62344		9.251609	1.107352	2.981686	-0.001323	-0.000859	-0.003892	-0.824219	-0.414795	0.153320	-0.314024	-0.569674	0.162820	-0.741856
62345		9.261444	1.120454	2.949992	-0.010449	0.007734	-0.001960	-0.834717	-0.413330	0.154297	-0.314080	-0.569556	0.162934	-0.741898
62346		9.257693	1.113142	2.884093	-0.011019	0.007332	-0.000722	-0.832764	-0.420654	0.147949	-0.314125	-0.569431	0.163086	-0.741941
62347		9.245564	1.083531	2.875656	-0.004644	-0.002608	0.004248	-0.824707	-0.414551	0.150391	-0.314086	-0.569403	0.163250	-0.741943
62348		9.227517	1.100456	2.881354	0.001792	-0.012531	0.011339	-0.828369	-0.408447	0.154053	-0.313898	-0.569488	0.163433	-0.741918
62349		9.240163	1.105041	2.915708	0.015150	-0.018233	0.009234	-0.828857	-0.418213	0.155762	-0.313605	-0.569685	0.163508	-0.741873
62350		9.278974	1.122913	2.960835	0.012284	-0.005717	0.005982	-0.829102	-0.414307	0.159912	-0.313400	-0.569770	0.163513	-0.741894
62351		9.277521	1.133143	2.876232	0.008552	0.001690	0.006783	-0.825928	-0.413818	0.150635	-0.313213	-0.569778	0.163526	-0.741964
62352		9.241558	1.135305	2.899630	-0.002956	-0.016573	0.011393	-0.823242	-0.414795	0.151855	-0.313053	-0.569879	0.163772	-0.741900
62353		9.183431	1.074998	2.914081	-0.012843	-0.033009	0.006645	-0.828613	-0.411133	0.151611	-0.312972	-0.570108	0.164128	-0.741678
62354		9.260524	1.062842	2.867049	0.033866	-0.047781	-0.004023	-0.826416	-0.422852	0.156006	-0.312626	-0.570671	0.164054	-0.741408
62355		9.308270	1.145096	2.822615	0.043686	-0.032130	-0.004885	-0.831787	-0.410400	0.161377	-0.312257	-0.571144	0.163782	-0.741259
62356		9.324058	1.135691	2.861678	0.032413	-0.014963	-0.010114	-0.819824	-0.417480	0.156494	-0.312025	-0.571425	0.163535	-0.741195
62357		9.253930	1.069689	2.808370	0.036032	-0.010431	-0.012620	-0.829102	-0.410156	0.156006	-0.311821	-0.571683	0.163197	-0.741157
62358		9.226240	1.075825	2.858682	0.033187	-0.006768	-0.004456	-0.832520	-0.414062	0.155518	-0.311565	-0.571864	0.162967	-0.741175
62359		9.264549	1.094721	2.859951	0.026747	-0.004297	-0.000163	-0.834961	-0.401123	0.162354	-0.311330	-0.571984	0.162819	-0.741214
62360		9.316992	1.125410	2.865638	0.018680	-0.000458	0.000090	-0.829346	-0.408447	0.158447	-0.311121	-0.572046	0.162742	-0.741270
62361		9.314806	1.078773	2.777318	0.018651	0.010083	0.000512	-0.827148	-0.412109	0.147949	-0.310951	-0.572007	0.162614	-0.741400
62362		9.242073	1.109025	2.858402	0.033364	0.011573	0.002858	-0.823730	-0.410645	0.158203	-0.310692	-0.571984	0.162379	-0.741578
62363		9.246339	1.110334	2.894252	0.026468	-0.008195	0.006190	-0.819092	-0.410889	0.156738	-0.310379	-0.572139	0.162274	-0.741613
62364		9.229941	1.170049	2.854953	0.024511	0.001696	0.000424	-0.827637	-0.410156	0.157959	-0.310159	-0.572205	0.162102	-0.741691
62365		9.257287	1.094351	2.915513	0.010184	0.004304	0.000889	-0.825928	-0.411865	0.156250	-0.310041	-0.572186	0.162070	-0.741762
62366		9.273447	1.088647	2.870293	0.005647	0.009316	0.002874	-0.831055	-0.411865	0.156250	-0.309955	-0.572097	0.162073	-0.741866
62367		9.259012	1.126294	2.842577	0.002294	0.013096	0.005953	-0.828613	-0.412598	0.158447	-0.309872	-0.571950	0.162123	-0.742003
62368		9.236726	1.109365	2.884589	0.003988	0.010033	0.000245	-0.831543	-0.410156	0.150879	-0.309818	-0.571859	0.162115	-0.742098
62369		9.252402	1.106735	2.885269	0.007948	0.013755	-0.000046	-0.831055	-0.411133	0.162842	-0.309764	-0.571726	0.162084	-0.742229
62370		9.252655	1.125326	2.872543	0.013008	0.017628	-0.001405	-0.825684	-0.413330	0.167725	-0.309661	-0.571613	0.161941	-0.742391
62371		9.268372	1.148481	2.890080	0.003906	0.018349	-0.004913	-0.826904	-0.404541	0.159424	-0.309646	-0.571483	0.161827	-0.742522
62372		9.247617	1.114515	2.883963	-0.010053	0.020008	-0.007133	-0.822754	-0.410156	0.163330	-0.309763	-0.571262	0.161861	-0.742635
62373		9.225566	1.088495	2.851747	-0.017809	0.016730	-0.005214	-0.832031	-0.416504	0.161133	-0.309907	-0.571056	0.161962	-0.742712
62374		9.265404	1.084336	2.866347	-0.013382	0.009781	-0.002966	-0.822266	-0.404541	0.154541	-0.310000	-0.570917	0.162076	-0.742755
62375		9.261074	1.082562	2.889882	-0.012700	0.005185	-0.005439	-0.823242	-0.410156	0.158691	-0.310100	-0.570815	0.162206	-0.742763
62376		9.238076	1.100959	2.919772	0.003180	0.003867	-0.008943	-0.830566	-0.411133	0.156494	-0.310112	-0.570807	0.162147	-0.742777
62377		9.264421	1.109598	3.003679	0.001559	0.022883	-0.008533	-0.833008	-0.413086	0.160400	-0.310180	-0.570605	0.162051	-0.742925
62378		9.194413	1.084705	2.898523	0.012157	-0.000370	-0.008175	-0.826416	-0.417725	0.154541	-0.310112	-0.570669	0.161936	-0.742930
62379		9.178529	1.058693	2.896332	-0.037607	-0.016557	-0.001309	-0.832520	-0.404297	0.154053	-0.310325	-0.570668	0.162393	-0.742741
62380		9.177808	1.079938	2.984892	-0.009501	-0.042789	-0.012329	-0.826904	-0.415527	0.161133	-0.310370	-0.571029	0.162648	-0.742389
62381		9.292385	1.059293	2.880748	0.022407	-0.042506	-0.013062	-0.828857	-0.405762	0.154541	-0.310191	-0.571539	0.162553	-0.742092
62382		9.269077	1.124151	2.806912	0.007274	-0.023383	-0.011877	-0.826660	-0.408447	0.155029	-0.310156	-0.571784	0.162576	-0.741913
62383		9.214405	1.105241	2.949234	-0.000950	-0.030170	-0.018410	-0.824463	-0.410889	0.161377	-0.310230	-0.572076	0.162648	-0.741641
62384		9.184936	1.074592	2.924783	-0.002897	-0.034142	-0.018190	-0.826172	-0.414551	0.157715	-0.310295	-0.572414	0.162729	-0.741336
62385		9.224973	1.118023	2.832750	-0.009538	-0.040739	-0.015824	-0.829834	-0.411377	0.158936	-0.310389	-0.572771	0.162926	-0.740977
62386		9.309034	1.142219	2.848240	-0.014794	-0.038236	-0.015376	-0.823730	-0.415283	0.165039	-0.310515	-0.573080	0.163175	-0.740630
62387		9.328784	1.133652	2.865727	-0.023187	-0.023971	-0.023194	-0.825928	-0.410645	0.167969	-0.310793	-0.573261	0.163358	-0.740334
62388		9.287705	1.062698	2.817347	-0.013098	-0.014010	-0.022494	-0.818848	-0.416260	0.165527	-0.310997	-0.573389	0.163420	-0.740135
62389		9.218291	1.053893	2.872328	-0.016540	-0.019903	-0.015677	-0.831787	-0.411865	0.163574	-0.311165	-0.573545	0.163572	-0.739910
62390		9.203125	1.108165	2.797718	-0.005733	-0.029173	-0.014962	-0.828125	-0.416992	0.170898	-0.311231	-0.573810	0.163702	-0.739648
62391		9.267812	1.093569	2.818863	-0.002123	-0.018331	-0.016949	-0.827881	-0.415283	0.161621	-0.311299	-0.574014	0.163709	-0.739459
62392		9.307583	1.049450	2.827662	-0.019939	-0.004827	-0.008681	-0.829346	-0.421143	0.164307	-0.311471	-0.573983	0.163918	-0.739365
62393		9.261024	1.088965	2.815330	-0.024568	0.004524	-0.001922	-0.824219	-0.413818	0.159424	-0.311633	-0.573841	0.164167	-0.739351
62394		9.256850	1.115608	2.840865	-0.006164	0.004950	-0.001983	-0.820557	-0.417480	0.158691	-0.311666	-0.573756	0.164261	-0.739382
62395		9.246916	1.074412	2.872289	0.006577	0.005183	-0.004445	-0.830322	-0.414307	0.154297	-0.311637	-0.573728	0.164208	-0.739428
62396		9.238502	1.074332	2.858304	0.008313	0.003574	-0.008077	-0.830566	-0.417725	0.153809	-0.311636	-0.573708	0.164153	-0.739457
62397		9.255137	1.098259	2.872435	0.007033	0.002858	-0.004947	-0.820312	-0.421631	0.158936	-0.311619	-0.573684	0.164131	-0.739487
62398		9.317119	1.134305	2.816284	-0.003741	0.011498	-0.002121	-0.823242	-0.415039	0.166016	-0.311660	-0.573555	0.164157	-0.739564
62399		9.305592	1.122944	2.794130	-0.016684	0.009922	-0.001088	-0.830322	-0.415771	0.164551	-0.311753	-0.573401	0.164311	-0.739610
62400		9.276299	1.125271	2.791872	-0.018065	0.004289	-0.000661	-0.827393	-0.408447	0.157715	-0.311845	-0.573285	0.164516	-0.739616
62401		9.264218	1.098173	2.828868	-0.013771	0.002967	-0.000730	-0.826660	-0.418701	0.160889	-0.311911	-0.573181	0.164710	-0.739626
62402		9.295634	1.106053	2.889043	-0.006241	0.002872	-0.002652	-0.826904	-0.411621	0.158691	-0.311946	-0.573124	0.164795	-0.739636
62403		9.310679	1.110020	2.921223	-0.012377	0.016967	-0.002051	-0.830566	-0.417969	0.167969	-0.312044	-0.572904	0.164902	-0.739741
62404		9.257239	1.156627	2.804005	0.005135	0.005840	-0.005587	-0.832520	-0.414062	0.151611	-0.312009	-0.572886	0.164834	-0.739785
62405		9.302138	1.042026	2.770580	-0.039654	-0.004431	-0.000664	-0.826416	-0.414307	0.165039	-0.312268	-0.572735	0.165310	-0.739686
62406		9.278044	1.046006	2.847160	-0.025769	-0.002605	-0.002110	-0.828857	-0.417236	0.150391	-0.312406	-0.572663	0.165591	-0.739621
62407		9.257205	1.049882	2.812178	0.026275	-0.003436	-0.006687	-0.824951	-0.413818	0.163818	-0.312256	-0.572775	0.165403	-0.739639
62408		9.285660	1.101203	2.790145	0.026284	0.009178	-0.005583	-0.832520	-0.414062	0.158447	-0.312080	-0.572802	0.165135	-0.739753
62409		9.319722	1.114897	2.830117	0.018227	0.014923	-0.011645	-0.829590	-0.416504	0.156738	-0.312047	-0.572738	0.164901	-0.739868
62410		9.285539	1.095427	2.834712	0.019623	0.017092	-0.010572	-0.829834	-0.411865	0.160400	-0.312006	-0.572657	0.164651	-0.740005
62411		9.226201	1.082984	2.858237	0.019574	0.016573	-0.004276	-0.821045	-0.419678	0.165039	-0.311888	-0.572574	0.164444	-0.740164
62412		9.247685	1.122271	2.849965	0.021084	0.009638	-0.001547	-0.820557	-0.409912	0.161621	-0.311718	-0.572577	0.164233	-0.740280
62413		9.318689	1.075531	2.846111	0.009981	0.010084	0.003474	-0.835449	-0.412842	0.162842	-0.311576	-0.572511	0.164180	-0.740403
62414		9.317891	1.073500	2.803857	0.025294	0.014738	0.001708	-0.827881	-0.415527	0.157715	-0.311354	-0.572458	0.163968	-0.740584
62415		9.262404	1.038798	2.833365	0.030631	0.006753	0.006332	-0.830811	-0.413086	0.158936	-0.311052	-0.572485	0.163771	-0.740734
62416		9.258935	1.040268	2.898875	0.029628	-0.005347	0.007040	-0.826416	-0.414307	0.165527	-0.310720	-0.572618	0.163639	-0.740800
62417		9.245253	1.076320	2.822578	0.035091	-0.000174	0.008573	-0.830566	-0.412842	0.160156	-0.310330	-0.572740	0.163421	-0.740917
62418		9.258150	1.100695	2.843719	0.013415	-0.001224	0.006911	-0.829834	-0.410400	0.162842	-0.310123	-0.572774	0.163419	-0.740978
62419		9.278249	1.101640	2.865246	0.004532	0.005711	0.005425	-0.824463	-0.413574	0.161377	-0.309998	-0.572717	0.163456	-0.741065
62420		9.260227	1.086420	2.884211	0.005488	0.003760	0.001570	-0.828125	-0.413574	0.155518	-0.309906	-0.572693	0.163456	-0.741123
62421		9.256255	1.111461	2.863558	0.000956	-0.001951	-0.003855	-0.824707	-0.408691	0.154297	-0.309901	-0.572699	0.163503	-0.741110
62422		9.264880	1.108026	2.846337	-0.000719	-0.002026	-0.009960	-0.829346	-0.404053	0.161377	-0.309961	-0.572709	0.163526	-0.741072
62423		9.268028	1.115273	2.869783	-0.005220	0.003472	-0.014274	-0.834473	-0.406982	0.158203	-0.310079	-0.572670	0.163532	-0.741052
62424		9.266470	1.122075	2.858282	-0.012038	0.008128	-0.012272	-0.824707	-0.410889	0.170654	-0.310249	-0.572548	0.163608	-0.741058
62425		9.260697	1.098932	2.809205	-0.026885	0.010784	-0.016855	-0.816406	-0.416748	0.160889	-0.310542	-0.572392	0.163726	-0.741029
62426		9.250449	1.084357	2.857786	-0.025090	0.006357	-0.020386	-0.824463	-0.410156	0.158936	-0.310879	-0.572278	0.163826	-0.740954
62427		9.267373	1.051318	2.867775	-0.017710	0.000055	-0.022173	-0.822021	-0.408203	0.158936	-0.311162	-0.572242	0.163894	-0.740848
62428		9.275673	1.077759	2.912027	-0.012481	0.003239	-0.020659	-0.826904	-0.408936	0.155029	-0.311396	-0.572194	0.163912	-0.740783
62429		9.282709	1.107937	2.944905	-0.020786	0.014196	-0.017855	-0.826172	-0.417969	0.160645	-0.311698	-0.571994	0.164001	-0.740791
62430		9.227992	1.111357	2.782469	-0.007557	0.000296	-0.018386	-0.828369	-0.415771	0.155273	-0.311876	-0.571995	0.163988	-0.740718
62431		9.266324	1.049336	2.809035	-0.026741	-0.011439	-0.007849	-0.822510	-0.415771	0.161621	-0.312081	-0.571992	0.164295	-0.740566
62432		9.269012	1.089834	2.864858	-0.023049	-0.007497	-0.004721	-0.830566	-0.417969	0.158936	-0.312220	-0.571980	0.164550	-0.740459
62433		9.287007	1.084806	2.873040	0.023878	-0.017798	-0.014003	-0.824707	-0.413086	0.162842	-0.312100	-0.572255	0.164360	-0.740340
62434		9.285965	1.098004	2.843493	0.020468	-0.006328	-0.010415	-0.826172	-0.415283	0.158447	-0.311977	-0.572412	0.164172	-0.740312
62435		9.271504	1.142721	2.857098	0.014715	0.001941	-0.010959	-0.833252	-0.413330	0.161133	-0.311935	-0.572460	0.164013	-0.740328
62436		9.242045	1.121644	2.792451	0.011453	0.002113	-0.009156	-0.823730	-0.416504	0.160889	-0.311889	-0.572490	0.163902	-0.740349
62437		9.238875	1.118371	2.827107	0.012142	0.001780	-0.009636	-0.821533	-0.416260	0.155273	-0.311848	-0.572535	0.163766	-0.740362
62438		9.267174	1.120628	2.876594	0.007376	0.003357	-0.007626	-0.822754	-0.417725	0.152832	-0.311840	-0.572530	0.163697	-0.740384
62439		9.295876	1.141370	2.852626	-0.003049	0.002660	-0.006581	-0.827148	-0.414062	0.160400	-0.311904	-0.572483	0.163740	-0.740384
62440		9.271746	1.137075	2.809130	0.008197	0.006405	-0.010245	-0.826904	-0.411621	0.163574	-0.311904	-0.572465	0.163628	-0.740422
62441		9.241391	1.074565	2.848041	0.010632	0.002410	-0.012899	-0.823242	-0.413330	0.164551	-0.311890	-0.572507	0.163483	-0.740429
62442		9.246237	1.073551	2.897004	0.007673	-0.003776	-0.008056	-0.826904	-0.413330	0.151367	-0.311839	-0.572589	0.163415	-0.740401
62443		9.260086	1.140354	2.873081	0.011198	-0.000521	-0.007763	-0.822510	-0.420898	0.153076	-0.311804	-0.572620	0.163346	-0.740407
62444		9.273732	1.130908	2.860808	-0.004067	-0.000456	-0.010306	-0.832275	-0.421875	0.164307	-0.311908	-0.572607	0.163381	-0.740365
62445		9.289508	1.107922	2.888802	-0.006250	0.006182	-0.009037	-0.826416	-0.413574	0.161621	-0.312000	-0.572541	0.163400	-0.740373
62446		9.264453	1.109548	2.877567	-0.004325	0.006834	-0.002879	-0.829834	-0.419678	0.160400	-0.312018	-0.572459	0.163451	-0.740419
62447		9.247192	1.163782	2.854236	-0.006684	0.003760	-0.002123	-0.821533	-0.406738	0.151367	-0.312050	-0.572392	0.163542	-0.740437
62448		9.248148	1.105972	2.849598	-0.004157	-0.002403	-0.006095	-0.829346	-0.416992	0.154541	-0.312095	-0.572379	0.163633	-0.740407
62449		9.275832	1.086190	2.869714	-0.004313	-0.002315	-0.005445	-0.829590	-0.417725	0.163818	-0.312140	-0.572371	0.163719	-0.740376
62450		9.304292	1.134687	2.847692	-0.008006	0.001607	-0.001074	-0.824219	-0.417236	0.152832	-0.312156	-0.572324	0.163830	-0.740381
62451		9.254032	1.142486	2.855474	-0.020049	0.012061	-0.002887	-0.824463	-0.421143	0.166504	-0.312324	-0.572116	0.164022	-0.740428
62452		9.228760	1.117438	2.829412	-0.025308	0.003320	-0.003575	-0.820312	-0.419189	0.154541	-0.312486	-0.572004	0.164250	-0.740396
62453		9.253648	1.086718	2.840474	-0.020795	-0.002951	-0.002753	-0.825439	-0.414307	0.156982	-0.312623	-0.571940	0.164495	-0.740332
62454		9.281128	1.119250	2.878820	-0.009490	-0.003296	-0.001407	-0.830078	-0.410400	0.154053	-0.312653	-0.571922	0.164651	-0.740300
62455		9.277265	1.119937	2.945555	-0.010390	0.006129	-0.004690	-0.828369	-0.407959	0.152832	-0.312741	-0.571808	0.164771	-0.740324
62456		9.230459	1.103095	2.871252	-0.016705	0.004837	-0.006576	-0.834961	-0.411865	0.173828	-0.312888	-0.571683	0.164944	-0.740319
62457		9.238466	1.080209	2.869347	-0.019779	-0.018787	-0.002781	-0.821289	-0.407959	0.160889	-0.312921	-0.571803	0.165212	-0.740153
62458		9.246406	1.089039	2.853402	-0.034478	-0.027844	0.004151	-0.825928	-0.413086	0.156250	-0.313007	-0.571912	0.165724	-0.739919
62459		9.255507	1.098020	2.893108	0.006057	-0.033813	-0.012078	-0.825684	-0.415283	0.161621	-0.312961	-0.572256	0.165781	-0.739659
62460		9.292136	1.107558	2.834841	0.020854	-0.021242	-0.016262	-0.819092	-0.413574	0.154785	-0.312864	-0.572562	0.165608	-0.739502
62461		9.318289	1.151377	2.799473	0.009670	-0.002701	-0.013074	-0.819580	-0.411133	0.163330	-0.312874	-0.572633	0.165503	-0.739466
62462		9.249888	1.152631	2.809598	-0.001860	-0.002289	-0.015864	-0.825684	-0.416748	0.164551	-0.312966	-0.572678	0.165464	-0.739401
62463		9.173386	1.107160	2.862515	-0.004784	-0.008607	-0.015903	-0.824707	-0.415039	0.163330	-0.313072	-0.572770	0.165475	-0.739282
62464		9.250463	1.110549	2.877630	-0.005977	-0.009439	-0.015544	-0.828613	-0.416748	0.166748	-0.313182	-0.572862	0.165507	-0.739158
62465		9.318113	1.120340	2.851482	-0.014834	-0.012314	-0.016052	-0.826904	-0.417480	0.162354	-0.313347	-0.572951	0.165623	-0.738992
62466		9.358924	1.114728	2.772358	-0.013453	0.003777	-0.016692	-0.820801	-0.411621	0.161621	-0.313555	-0.572890	0.165669	-0.738941
62467		9.255868	1.130269	2.865456	-0.002208	0.011159	-0.014863	-0.822998	-0.422852	0.165283	-0.313673	-0.572801	0.165596	-0.738977
62468		9.246230	1.065702	2.880503	-0.017987	-0.008654	-0.011503	-0.826416	-0.419922	0.159668	-0.313837	-0.572838	0.165751	-0.738843
62469		9.266331	1.110969	2.799317	-0.006056	0.008192	-0.008975	-0.822510	-0.420898	0.162354	-0.313938	-0.572745	0.165771	-0.738869
62470		9.281894	1.089487	2.873569	-0.012013	0.011746	-0.004567	-0.831299	-0.427490	0.160400	-0.314041	-0.572595	0.165850	-0.738922
62471		9.254745	1.098473	2.838084	-0.022811	0.014011	-0.002283	-0.826904	-0.419678	0.159668	-0.314218	-0.572372	0.166045	-0.738977
62472		9.259871	1.086262	2.859101	-0.015804	0.010085	-0.001483	-0.821289	-0.414062	0.156738	-0.314320	-0.572209	0.166199	-0.739025
62473		9.280048	1.082766	2.896120	-0.010147	0.010303	0.000916	-0.831055	-0.408447	0.151855	-0.314359	-0.572057	0.166323	-0.739098
62474		9.237337	1.092329	2.919718	-0.004562	0.012574	-0.000238	-0.834961	-0.414795	0.154297	-0.314379	-0.571890	0.166405	-0.739200
62475		9.218456	1.126147	2.869246	-0.002176	0.009348	-0.001544	-0.825684	-0.420410	0.160645	-0.314388	-0.571771	0.166458	-0.739277
62476		9.258524	1.099486	2.866572	0.007106	0.009786	-0.008520	-0.824707	-0.414062	0.157471	-0.314385	-0.571722	0.166342	-0.739342
62477		9.264478	1.110396	2.915505	-0.002218	0.012058	-0.006495	-0.830566	-0.420898	0.156494	-0.314435	-0.571603	0.166331	-0.739415
62478		9.229714	1.142753	2.880376	-0.020580	0.010875	-0.002942	-0.821533	-0.417480	0.165039	-0.314592	-0.571412	0.166520	-0.739453
62479		9.223139	1.151537	2.820166	-0.019010	0.003060	-0.008588	-0.818359	-0.417969	0.153320	-0.314746	-0.571335	0.166657	-0.739417
62480		9.267478	1.053482	2.850041	-0.006298	0.001965	-0.013100	-0.827637	-0.418701	0.163574	-0.314878	-0.571305	0.166673	-0.739380
62481		9.282722	1.060259	2.880143	0.002969	0.001214	-0.010288	-0.827881	-0.418457	0.148438	-0.314891	-0.571329	0.166610	-0.739370
62482		9.258609	1.133120	2.928892	0.006159	0.011610	-0.009527	-0.826416	-0.418701	0.153564	-0.314934	-0.571235	0.166522	-0.739444
62483		9.202018	1.126477	2.813654	0.015016	0.006007	-0.015111	-0.825928	-0.420898	0.163330	-0.314940	-0.571252	0.166318	-0.739474
62484		9.281003	1.042284	2.822091	-0.009314	-0.011890	-0.008160	-0.826172	-0.412109	0.157959	-0.314996	-0.571346	0.166432	-0.739352
62485		9.197970	1.065234	2.904899	-0.010959	-0.018670	-0.001549	-0.826416	-0.413086	0.144043	-0.314992	-0.571467	0.166657	-0.739210
62486		9.282959	1.100571	2.875465	0.031076	-0.034709	-0.005988	-0.831055	-0.415771	0.161865	-0.314733	-0.571881	0.166561	-0.739021
62487		9.315026	1.132177	2.753294	0.033406	-0.004417	-0.006579	-0.824219	-0.418213	0.154785	-0.314486	-0.572058	0.166279	-0.739053
62488		9.256697	1.075118	2.830926	0.032814	0.009098	-0.007026	-0.824951	-0.421631	0.151367	-0.314298	-0.572100	0.165957	-0.739173
62489		9.190676	1.084583	2.852209	0.029918	0.001477	-0.002158	-0.823730	-0.416016	0.157715	-0.314083	-0.572184	0.165733	-0.739250
62490		9.194362	1.138401	2.861089	0.024404	-0.003617	-0.000922	-0.822510	-0.409180	0.155518	-0.313864	-0.572301	0.165576	-0.739287
62491		9.296763	1.133745	2.857855	0.023459	-0.004638	-0.003970	-0.825195	-0.417725	0.156250	-0.313675	-0.572424	0.165421	-0.739307
62492		9.323766	1.094984	2.848552	0.020593	0.000908	-0.002165	-0.824707	-0.414307	0.163574	-0.313511	-0.572483	0.165278	-0.739363
62493		9.286137	1.099418	2.771373	0.023447	0.003097	-0.001348	-0.826904	-0.416016	0.155273	-0.313301	-0.572545	0.165090	-0.739446
62494		9.206399	1.124284	2.893511	0.013028	-0.000484	-0.002324	-0.822266	-0.423096	0.157715	-0.313192	-0.572583	0.165027	-0.739477
62495		9.194629	1.101463	2.869194	0.008755	-0.016721	-0.006040	-0.819824	-0.413086	0.161377	-0.313117	-0.572773	0.165025	-0.739361
62496		9.239174	1.104373	2.797389	0.016622	-0.010599	-0.006587	-0.822754	-0.426270	0.160645	-0.312983	-0.572942	0.164920	-0.739311
62497		9.333958	1.124675	2.838997	-0.002728	-0.006537	-0.005554	-0.827393	-0.418213	0.162842	-0.313007	-0.572997	0.164981	-0.739245
62498		9.297344	1.150772	2.835053	-0.014178	0.002236	-0.005030	-0.825195	-0.427002	0.162354	-0.313109	-0.572922	0.165123	-0.739227
62499		9.235729	1.108658	2.861796	-0.005332	0.001534	-0.010008	-0.829346	-0.420898	0.156250	-0.313205	-0.572904	0.165143	-0.739197
62500		9.224123	1.081460	2.852787	-0.000510	-0.002711	-0.007062	-0.823486	-0.416992	0.160889	-0.313237	-0.572920	0.165179	-0.739162
62501		9.253994	1.120013	2.811356	0.002543	-0.004080	-0.005413	-0.825928	-0.415039	0.163574	-0.313213	-0.572969	0.165190	-0.739132
62502		9.267312	1.117330	2.829319	0.006473	-0.008045	-0.008318	-0.823730	-0.419678	0.159180	-0.313171	-0.573078	0.165156	-0.739073
62503		9.266746	1.126928	2.858914	0.007034	-0.007633	-0.009550	-0.830322	-0.415283	0.158691	-0.313154	-0.573183	0.165114	-0.739009
62504		9.278950	1.150855	2.835656	-0.003604	0.002899	-0.006727	-0.823730	-0.415039	0.159668	-0.313205	-0.573135	0.165158	-0.739014
62505		9.259203	1.142549	2.784278	-0.017212	0.007084	-0.006048	-0.824951	-0.417969	0.167725	-0.313353	-0.573000	0.165309	-0.739022
62506		9.236941	1.130158	2.811832	-0.016436	-0.000958	-0.007026	-0.831055	-0.417480	0.160889	-0.313471	-0.572961	0.165456	-0.738969
62507		9.254461	1.076831	2.835760	-0.008562	-0.007339	-0.005903	-0.825439	-0.420410	0.162354	-0.313524	-0.572993	0.165586	-0.738893
62508		9.280090	1.073368	2.860159	0.002798	-0.006325	-0.007377	-0.828125	-0.423828	0.159424	-0.313512	-0.573070	0.165586	-0.738838
62509		9.300835	1.122420	2.925756	-0.001928	0.006971	-0.008397	-0.827637	-0.414551	0.158203	-0.313583	-0.573002	0.165577	-0.738863
62510		9.251397	1.145188	2.827170	0.005812	0.000560	-0.011495	-0.818848	-0.417236	0.158447	-0.313604	-0.573024	0.165508	-0.738853
62511		9.284167	1.098176	2.821762	-0.029703	-0.019140	-0.002260	-0.827148	-0.416992	0.157471	-0.313757	-0.573076	0.165901	-0.738659
62512		9.232401	1.101902	2.845071	-0.032880	-0.023871	0.001073	-0.820801	-0.412354	0.160156	-0.313894	-0.573145	0.166375	-0.738441
62513		9.286790	1.056300	2.856151	0.014641	-0.034058	-0.008099	-0.828613	-0.423340	0.162109	-0.313742	-0.573521	0.166377	-0.738213
62514		9.301504	1.121768	2.781463	0.027024	-0.021667	-0.009519	-0.828857	-0.413818	0.157227	-0.313550	-0.573835	0.166202	-0.738090
62515		9.316417	1.138431	2.780395	0.015501	-0.012156	-0.007612	-0.830078	-0.414307	0.160889	-0.313445	-0.573998	0.166130	-0.738024
62516		9.266083	1.128821	2.755279	0.010096	-0.006265	-0.010754	-0.821533	-0.412842	0.156738	-0.313413	-0.574097	0.166054	-0.737977
62517		9.221104	1.092583	2.809117	0.010026	-0.008225	-0.006553	-0.831543	-0.422363	0.158936	-0.313347	-0.574202	0.166022	-0.737931
62518		9.287876	1.133496	2.830389	0.007298	-0.005492	-0.002560	-0.823730	-0.420410	0.158203	-0.313277	-0.574264	0.166030	-0.737911
62519		9.314315	1.097958	2.807730	0.001826	-0.004397	-0.003529	-0.832520	-0.411865	0.163086	-0.313257	-0.574299	0.166075	-0.737882
62520		9.315817	1.085490	2.744105	0.010012	0.002217	-0.006794	-0.822998	-0.426025	0.162598	-0.313199	-0.574312	0.165995	-0.737914
62521		9.259579	1.087946	2.806795	0.027916	0.007217	-0.007803	-0.827637	-0.413574	0.164307	-0.313053	-0.574361	0.165710	-0.738002
62522		9.283098	1.072715	2.835061	0.018136	-0.006281	-0.002765	-0.831055	-0.415039	0.166016	-0.312883	-0.574482	0.165610	-0.738003
62523		9.264689	1.133179	2.796068	0.028093	0.000300	-0.002712	-0.828369	-0.421143	0.164062	-0.312653	-0.574582	0.165391	-0.738072
62524		9.304635	1.114369	2.823262	0.013652	0.008360	-0.000276	-0.830566	-0.420654	0.162842	-0.312534	-0.574545	0.165292	-0.738173
62525		9.285371	1.151270	2.817115	0.006398	0.015155	-0.000528	-0.822266	-0.406982	0.159424	-0.312486	-0.574415	0.165235	-0.738307
62526		9.278325	1.116285	2.815852	0.008010	0.011598	-0.002045	-0.826904	-0.415039	0.155762	-0.312423	-0.574321	0.165174	-0.738421
62527		9.287173	1.132724	2.829855	0.004981	0.008838	-0.000801	-0.825684	-0.414795	0.156494	-0.312383	-0.574231	0.165168	-0.738508
62528		9.283150	1.106585	2.837477	0.004926	0.006760	-0.001463	-0.832764	-0.417236	0.167725	-0.312343	-0.574165	0.165163	-0.738578
62529		9.272961	1.113743	2.797859	0.008791	0.006395	-0.000986	-0.829590	-0.420410	0.166504	-0.312247	-0.574134	0.165105	-0.738656
62530		9.306615	1.105739	2.807825	0.010359	0.003469	-0.006012	-0.823242	-0.423828	0.164062	-0.312187	-0.574147	0.165007	-0.738693
62531		9.262574	1.128794	2.847756	0.004777	0.004011	-0.002834	-0.817627	-0.410400	0.158447	-0.312150	-0.574128	0.164980	-0.738730
62532		9.246226	1.149754	2.835254	-0.004451	0.009621	-0.002965	-0.829834	-0.422852	0.159912	-0.312188	-0.574008	0.165030	-0.738795
62533		9.273408	1.149231	2.783969	-0.010886	0.006189	-0.007606	-0.822998	-0.416260	0.164307	-0.312319	-0.573906	0.165120	-0.738799
62534		9.289570	1.101332	2.796829	-0.008114	0.002044	-0.011543	-0.829102	-0.410645	0.154541	-0.312439	-0.573871	0.165159	-0.738767
62535		9.283967	1.088238	2.821828	0.000246	0.001746	-0.009711	-0.830078	-0.416016	0.169678	-0.312495	-0.573844	0.165163	-0.738763
62536		9.265185	1.129300	2.858184	-0.000158	0.001249	-0.009125	-0.821533	-0.420898	0.168945	-0.312520	-0.573849	0.165141	-0.738754
62537		9.275888	1.138008	2.897636	-0.012797	0.009795	-0.009655	-0.818359	-0.415039	0.163086	-0.312667	-0.573731	0.165193	-0.738772
62538		9.265841	1.121564	2.841823	-0.003049	-0.005860	-0.012613	-0.818604	-0.421143	0.161865	-0.312744	-0.573791	0.165207	-0.738689
62539		9.233403	1.074940	2.767615	-0.028575	-0.019037	-0.003295	-0.823730	-0.413574	0.159180	-0.312901	-0.573854	0.165577	-0.738491
62540		9.263350	1.121575	2.799113	-0.014413	-0.020707	-0.006643	-0.823975	-0.421143	0.161133	-0.312981	-0.573983	0.165811	-0.738304
62541		9.283996	1.106660	2.785746	0.025975	-0.028995	-0.019351	-0.823730	-0.421875	0.156738	-0.312876	-0.574379	0.165607	-0.738086
62542		9.327051	1.102215	2.758926	0.018671	-0.017191	-0.014161	-0.821533	-0.413330	0.172852	-0.312814	-0.574617	0.165473	-0.737958
62543		9.274175	1.134134	2.753821	0.013448	-0.009203	-0.012436	-0.831299	-0.413330	0.163818	-0.312742	-0.574784	0.165336	-0.737889
62544		9.242039	1.159979	2.739405	0.005990	-0.009187	-0.008414	-0.823975	-0.416748	0.168213	-0.312708	-0.574890	0.165324	-0.737823
62545		9.252008	1.156559	2.778480	0.007737	-0.005220	-0.012851	-0.822754	-0.415771	0.163818	-0.312706	-0.574989	0.165233	-0.737768
62546		9.306391	1.102991	2.776544	0.002447	-0.002801	-0.012409	-0.823242	-0.413330	0.162842	-0.312751	-0.575036	0.165194	-0.737720
62547		9.333116	1.114208	2.799733	0.000024	0.006077	-0.007090	-0.817383	-0.417480	0.163330	-0.312783	-0.574977	0.165185	-0.737755
62548		9.280439	1.154080	2.752327	0.003613	0.010030	-0.006107	-0.825928	-0.413330	0.163574	-0.312793	-0.574900	0.165127	-0.737824
62549		9.223231	1.135286	2.787118	0.004430	0.001873	-0.011924	-0.823242	-0.422363	0.159912	-0.312826	-0.574907	0.165058	-0.737819
62550		9.263761	1.070991	2.827081	0.009225	-0.004422	-0.009638	-0.824707	-0.424316	0.163330	-0.312811	-0.574985	0.164990	-0.737780
62551		9.319113	1.123603	2.795478	0.013345	0.002902	-0.003015	-0.824951	-0.415039	0.165039	-0.312715	-0.575003	0.164896	-0.737828
62552		9.280104	1.161266	2.811151	-0.002877	0.005404	-0.003079	-0.830322	-0.410400	0.166260	-0.312726	-0.574935	0.164941	-0.737867
62553		9.270750	1.142247	2.814540	-0.003474	0.011823	-0.007583	-0.824463	-0.415771	0.166992	-0.312786	-0.574812	0.164935	-0.737938
62554		9.263236	1.089910	2.829095	0.004154	0.010567	-0.002479	-0.823486	-0.417725	0.160645	-0.312747	-0.574727	0.164892	-0.738030
62555		9.256147	1.123259	2.784100	-0.000767	0.006628	0.001002	-0.815430	-0.412842	0.164551	-0.312720	-0.574642	0.164949	-0.738095
62556		9.281027	1.141064	2.781756	-0.001657	0.001352	-0.004006	-0.828369	-0.422363	0.166504	-0.312720	-0.574623	0.164984	-0.738102
62557		9.303823	1.103721	2.782226	0.004376	0.000692	-0.004262	-0.830566	-0.419434	0.156982	-0.312684	-0.574634	0.164967	-0.738113
62558		9.307877	1.130009	2.834426	0.005774	0.004303	-0.001146	-0.824219	-0.419922	0.162354	-0.312635	-0.574591	0.164968	-0.738167
62559		9.272904	1.186610	2.812977	-0.002446	0.007329	-0.001606	-0.818604	-0.418945	0.162842	-0.312644	-0.574502	0.165013	-0.738222
62560		9.253914	1.151552	2.805112	-0.005971	0.014363	-0.007003	-0.829102	-0.412109	0.167480	-0.312741	-0.574350	0.165020	-0.738297
62561		9.268963	1.082527	2.791706	-0.006057	0.014468	-0.004249	-0.824707	-0.423340	0.158691	-0.312792	-0.574192	0.165044	-0.738394
62562		9.285374	1.122416	2.791720	-0.013513	0.005438	-0.000026	-0.830322	-0.413574	0.165771	-0.312873	-0.574070	0.165216	-0.738415
