// Start Time: Unknown
// Update Rate: 40.0Hz
// Filter Profile: human (46.1)
// Firmware Version: 4.6.0
PacketCounter	SampleTimeFine	Acc_X	Acc_Y	Acc_Z	Gyr_X	Gyr_Y	Gyr_Z	Mag_X	Mag_Y	Mag_Z	Quat_q0	Quat_q1	Quat_q2	Quat_q3
61648		9.743022	0.644140	-0.954884	0.004814	0.002886	-0.026642	-0.710938	-0.594482	-0.033691	0.536207	0.484096	-0.560653	0.404724
61649		9.738877	0.630151	-0.928436	0.006078	-0.002459	-0.029695	-0.712891	-0.589111	-0.042725	0.536303	0.484357	-0.560459	0.404553
61650		9.721036	0.656337	-0.988690	-0.000132	-0.004174	-0.028322	-0.717041	-0.595459	-0.034668	0.536423	0.484563	-0.560318	0.404341
61651		9.706290	0.708985	-0.948375	-0.004735	-0.007125	-0.021557	-0.715576	-0.596191	-0.042969	0.536527	0.484699	-0.560259	0.404123
61652		9.711864	0.666051	-0.986144	-0.004841	-0.004857	-0.015680	-0.712158	-0.601807	-0.043457	0.536687	0.484703	-0.560215	0.403967
61653		9.714448	0.670232	-1.000501	-0.008531	-0.003262	-0.011903	-0.721924	-0.594482	-0.046143	0.536848	0.484663	-0.560204	0.403816
61654		9.724454	0.711220	-0.904253	-0.026781	0.002410	-0.008831	-0.711914	-0.601318	-0.041748	0.537177	0.484409	-0.560267	0.403596
61655		9.728161	0.686455	-0.939477	-0.024701	-0.000190	-0.013936	-0.715820	-0.600342	-0.044434	0.537448	0.484291	-0.560303	0.403327
61656		9.746343	0.673670	-0.950848	-0.019554	-0.005753	-0.018579	-0.707764	-0.591797	-0.044189	0.537694	0.484244	-0.560320	0.403032
61657		9.729535	0.645308	-0.892534	-0.026333	0.001953	-0.014816	-0.717285	-0.593018	-0.055908	0.537937	0.484166	-0.560352	0.402756
61658		9.719191	0.599622	-0.917505	-0.026152	0.003319	-0.012621	-0.716553	-0.602539	-0.050293	0.538322	0.483901	-0.560375	0.402528
61659		9.763451	0.617392	-0.898876	-0.012857	0.004136	-0.011112	-0.711182	-0.609131	-0.059570	0.538602	0.483752	-0.560330	0.402395
61660		9.771492	0.621800	-0.903142	-0.004460	0.002841	-0.014469	-0.717773	-0.595459	-0.049316	0.538893	0.483646	-0.560224	0.402281
61661		9.740058	0.661199	-0.907001	-0.003790	0.004686	-0.013769	-0.723389	-0.599854	-0.054688	0.539058	0.483551	-0.560154	0.402271
61662		9.720177	0.691617	-0.895059	-0.006925	-0.000466	-0.014189	-0.717773	-0.598633	-0.049072	0.539274	0.483423	-0.560117	0.402187
61663		9.718676	0.666532	-0.939262	-0.004157	0.000162	-0.011848	-0.718018	-0.594238	-0.063965	0.539404	0.483366	-0.560077	0.402137
61664		9.698206	0.675544	-0.914459	0.002244	0.004178	-0.006524	-0.718506	-0.596924	-0.048828	0.539587	0.483177	-0.560030	0.402184
61665		9.750229	0.722235	-0.913750	0.002436	0.005547	-0.004331	-0.721680	-0.603760	-0.050293	0.539653	0.483103	-0.559973	0.402265
61666		9.736887	0.740783	-0.893630	-0.009046	0.000778	-0.003211	-0.722900	-0.604492	-0.056396	0.539798	0.482957	-0.560002	0.402203
61667		9.737965	0.732382	-0.893453	-0.005321	0.001904	-0.006106	-0.721436	-0.605713	-0.053223	0.539997	0.482809	-0.559990	0.402131
61668		9.719255	0.732016	-0.904165	-0.003326	0.001580	-0.005338	-0.728516	-0.592285	-0.055908	0.540153	0.482716	-0.559968	0.402066
61669		9.726754	0.733896	-0.873369	-0.020836	0.003629	-0.007879	-0.721436	-0.604004	-0.054199	0.540395	0.482458	-0.560028	0.401965
61670		9.730004	0.669397	-0.917623	-0.018076	0.003346	-0.010037	-0.729004	-0.601318	-0.048828	0.540671	0.482304	-0.560040	0.401763
61671		9.729861	0.653359	-0.938924	-0.004477	0.003296	-0.012212	-0.718506	-0.601074	-0.050537	0.540810	0.482271	-0.559978	0.401702
61672		9.754784	0.629616	-0.940913	0.001441	0.005927	-0.009893	-0.724365	-0.598389	-0.048340	0.540904	0.482294	-0.559886	0.401674
61673		9.718034	0.648228	-0.975872	0.000916	-0.002663	-0.008371	-0.724609	-0.605957	-0.051514	0.540894	0.482331	-0.559884	0.401648
61674		9.709593	0.617973	-0.923563	0.014520	-0.002251	-0.008294	-0.729980	-0.602783	-0.057617	0.540861	0.482437	-0.559818	0.401657
61675		9.741547	0.622485	-0.909465	0.019059	0.003451	-0.004229	-0.725342	-0.596191	-0.053711	0.540852	0.482421	-0.559752	0.401779
61676		9.730739	0.739439	-0.918774	0.017070	0.005141	0.001753	-0.718750	-0.596680	-0.044434	0.540755	0.482396	-0.559721	0.401983
61677		9.720418	0.756659	-0.912314	0.018980	0.003013	0.003453	-0.720459	-0.609863	-0.054932	0.540542	0.482524	-0.559660	0.402201
61678		9.707166	0.773244	-0.892375	0.007114	0.004510	0.001961	-0.730225	-0.598145	-0.058838	0.540603	0.482473	-0.559642	0.402205
61679		9.742854	0.797131	-0.903798	-0.003799	0.002014	0.000653	-0.729004	-0.597412	-0.059082	0.540694	0.482261	-0.559748	0.402190
61680		9.744629	0.757196	-0.890621	-0.013850	0.003192	0.004487	-0.729980	-0.593262	-0.054443	0.540837	0.481963	-0.559911	0.402127
61681		9.715050	0.714432	-0.926702	-0.009913	0.002993	0.005590	-0.728027	-0.595947	-0.057129	0.540875	0.481741	-0.560053	0.402144
61682		9.711648	0.692513	-0.899354	-0.013561	0.003212	0.005303	-0.726074	-0.601562	-0.049072	0.540987	0.481483	-0.560208	0.402087
61683		9.728575	0.664519	-0.896530	-0.012295	0.000576	0.000436	-0.721436	-0.603271	-0.054932	0.541040	0.481406	-0.560297	0.401984
61684		9.719270	0.673389	-0.890720	-0.004818	0.000593	-0.001297	-0.728271	-0.604492	-0.053711	0.541135	0.481348	-0.560338	0.401868
61685		9.739073	0.646633	-0.901619	-0.000793	0.002655	0.001126	-0.727295	-0.606689	-0.052246	0.541186	0.481273	-0.560377	0.401836
61686		9.739043	0.596344	-0.875126	-0.003529	0.005187	0.001919	-0.730225	-0.592041	-0.055176	0.541260	0.481189	-0.560405	0.401797
61687		9.736421	0.645640	-0.885235	-0.000222	0.010340	-0.002211	-0.727051	-0.602783	-0.063477	0.541308	0.481040	-0.560419	0.401892
61688		9.708162	0.701874	-0.878751	-0.003286	0.010144	-0.003119	-0.724609	-0.598145	-0.054443	0.541543	0.480820	-0.560424	0.401833
61689		9.735040	0.667341	-0.916166	-0.005726	-0.001263	-0.000129	-0.723877	-0.601562	-0.056152	0.541560	0.480744	-0.560509	0.401779
61690		9.744851	0.610000	-0.931437	-0.016615	-0.000598	0.001693	-0.726074	-0.600830	-0.053223	0.541682	0.480570	-0.560650	0.401627
61691		9.735450	0.587681	-0.877269	-0.020019	0.005489	0.000872	-0.723877	-0.603027	-0.057861	0.541816	0.480377	-0.560767	0.401514
61692		9.740291	0.598880	-0.902824	-0.007934	0.001752	0.001859	-0.722412	-0.606201	-0.055420	0.541918	0.480235	-0.560851	0.401429
61693		9.735168	0.578756	-0.932890	0.000484	0.001841	0.005260	-0.729004	-0.599121	-0.053711	0.541939	0.480182	-0.560889	0.401412
61694		9.739889	0.557525	-0.911060	0.005815	0.004431	0.005954	-0.729492	-0.599121	-0.059326	0.541851	0.480107	-0.560943	0.401546
61695		9.748439	0.664103	-0.873356	0.000199	0.007678	0.005784	-0.730713	-0.596924	-0.054688	0.541894	0.479892	-0.561021	0.401635
61696		9.723648	0.670373	-0.891358	0.008155	0.002772	0.003475	-0.729248	-0.604248	-0.056641	0.541783	0.479831	-0.561077	0.401779
61697		9.728268	0.612276	-0.914590	0.003010	0.000187	-0.001778	-0.727539	-0.601318	-0.052490	0.541795	0.479796	-0.561110	0.401757
61698		9.723049	0.612767	-0.922234	-0.001697	0.004837	-0.005369	-0.731934	-0.591797	-0.055420	0.541810	0.479794	-0.561107	0.401744
61699		9.710373	0.670188	-0.892091	0.002087	0.006885	-0.001071	-0.722412	-0.607910	-0.059570	0.541758	0.479654	-0.561177	0.401882
61700		9.754776	0.627658	-0.940538	0.008550	0.000991	0.000662	-0.722412	-0.604004	-0.053223	0.541825	0.479660	-0.561138	0.401840
61701		9.751179	0.625340	-0.891664	0.001839	0.001470	0.001713	-0.733887	-0.605469	-0.057373	0.541803	0.479694	-0.561141	0.401826
61702		9.763531	0.655101	-0.865002	0.001261	0.007287	0.001420	-0.729004	-0.603271	-0.062256	0.541856	0.479557	-0.561179	0.401865
61703		9.708984	0.658681	-0.875054	0.005095	0.007525	-0.000597	-0.735352	-0.599854	-0.055664	0.541982	0.479403	-0.561171	0.401890
61704		9.722530	0.622653	-0.915211	0.005838	0.004862	-0.004410	-0.722168	-0.600586	-0.052490	0.541942	0.479344	-0.561198	0.401976
61705		9.732536	0.653833	-0.910437	-0.003325	0.002490	-0.000840	-0.723633	-0.608398	-0.060059	0.541931	0.479367	-0.561210	0.401947
61706		9.727057	0.603835	-0.893587	-0.007196	-0.006310	-0.001046	-0.728760	-0.589600	-0.061768	0.542061	0.479315	-0.561281	0.401734
61707		9.737447	0.585451	-0.900270	0.002394	-0.001195	0.002458	-0.728271	-0.597168	-0.064941	0.542016	0.479092	-0.561436	0.401844
61708		9.736316	0.613613	-0.877565	0.007272	0.002712	0.001031	-0.729492	-0.606445	-0.053955	0.542095	0.478888	-0.561490	0.401905
61709		9.737968	0.574152	-0.864763	0.006686	0.002217	-0.002850	-0.729980	-0.591797	-0.059570	0.542064	0.478959	-0.561463	0.401902
61710		9.744533	0.615580	-0.881746	0.002693	0.002862	-0.004392	-0.732666	-0.602295	-0.059814	0.542049	0.478812	-0.561535	0.401995
61711		9.732282	0.605086	-0.884625	0.007616	0.001376	-0.002218	-0.725342	-0.603760	-0.056641	0.542061	0.478731	-0.561568	0.402030
61712		9.727539	0.574673	-0.880422	0.012987	-0.001427	0.002081	-0.726074	-0.605957	-0.057617	0.541990	0.478800	-0.561547	0.402073
61713		9.745282	0.635470	-0.893995	0.013605	0.006265	0.001431	-0.726074	-0.602783	-0.052734	0.542008	0.478824	-0.561462	0.402138
61714		9.725417	0.611954	-0.856031	0.007348	0.004515	0.000103	-0.733643	-0.597412	-0.062988	0.541940	0.478896	-0.561422	0.402200
61715		9.730312	0.604135	-0.904196	0.012455	0.003029	-0.002278	-0.727051	-0.602783	-0.060303	0.541954	0.478731	-0.561456	0.402329
61716		9.741380	0.644345	-0.878025	0.012904	0.001255	-0.002404	-0.725342	-0.599121	-0.059570	0.541984	0.478724	-0.561411	0.402360
61717		9.745482	0.635684	-0.891663	0.004071	0.000701	-0.001636	-0.730957	-0.597412	-0.058838	0.542024	0.478658	-0.561425	0.402366
61718		9.742481	0.635391	-0.878253	0.002528	-0.000750	-0.002533	-0.724854	-0.597656	-0.052734	0.542006	0.478551	-0.561504	0.402407
61719		9.758145	0.618178	-0.875491	0.004871	0.003446	-0.003678	-0.733398	-0.589600	-0.056885	0.541926	0.478625	-0.561474	0.402468
61720		9.723892	0.634910	-0.888393	0.002583	0.004205	-0.003016	-0.730957	-0.599609	-0.058838	0.541830	0.478454	-0.561585	0.402647
61721		9.703562	0.603851	-0.908131	-0.001463	0.000810	0.000422	-0.725098	-0.604004	-0.060303	0.541861	0.478307	-0.561676	0.402653
61722		9.763049	0.611396	-0.922990	0.002872	-0.001174	-0.001281	-0.725830	-0.601074	-0.072754	0.541961	0.478272	-0.561671	0.402568
61723		9.771202	0.631255	-0.905843	0.002606	0.002427	0.003287	-0.735352	-0.606934	-0.057861	0.542287	0.477903	-0.561713	0.402508
61724		9.717628	0.662741	-0.872865	-0.003271	0.002502	0.001842	-0.726562	-0.602539	-0.062744	0.542343	0.477768	-0.561805	0.402463
61725		9.709993	0.612583	-0.877180	-0.011093	-0.002946	0.000981	-0.733154	-0.595703	-0.059814	0.542518	0.477573	-0.561919	0.402300
61726		9.725327	0.586313	-0.931809	-0.008805	0.002152	0.001650	-0.736328	-0.602783	-0.062256	0.542540	0.477329	-0.562076	0.402341
61727		9.728078	0.555841	-0.897170	-0.002130	-0.000578	0.001971	-0.725342	-0.594971	-0.060547	0.542600	0.477114	-0.562213	0.402324
61728		9.744016	0.587050	-0.920304	0.001753	0.000125	0.004893	-0.732666	-0.600342	-0.052490	0.542577	0.476996	-0.562283	0.402396
61729		9.766670	0.616588	-0.878774	-0.003014	-0.004670	0.007193	-0.739014	-0.591553	-0.059814	0.542385	0.476983	-0.562453	0.402434
61730		9.720665	0.590254	-0.883476	-0.000693	0.002220	0.004247	-0.729980	-0.595947	-0.065430	0.542277	0.476709	-0.562651	0.402626
61731		9.706029	0.528768	-0.882498	-0.001756	0.001246	0.001857	-0.725586	-0.605469	-0.053467	0.542397	0.476455	-0.562747	0.402632
61732		9.739502	0.571971	-0.893083	0.005484	0.006651	0.001089	-0.732422	-0.598877	-0.052979	0.542382	0.476582	-0.562660	0.402623
61733		9.717537	0.598646	-0.903274	0.006246	-0.003654	0.002249	-0.727539	-0.590576	-0.056396	0.542171	0.476656	-0.562743	0.402702
61734		9.758545	0.524375	-0.892374	0.006647	-0.005896	-0.002813	-0.737793	-0.593750	-0.060059	0.541998	0.476695	-0.562817	0.402787
61735		9.745407	0.513373	-0.861523	0.006415	-0.001877	-0.008612	-0.725830	-0.593018	-0.064941	0.541935	0.476598	-0.562907	0.402859
61736		9.738477	0.573390	-0.859527	0.004025	0.005631	-0.007492	-0.738281	-0.592773	-0.061768	0.542102	0.476447	-0.562867	0.402870
61737		9.746705	0.538230	-0.908699	0.008488	-0.000397	-0.008768	-0.727539	-0.592041	-0.056641	0.542058	0.476318	-0.562945	0.402973
61738		9.736864	0.559221	-0.938184	0.013086	0.001249	-0.006958	-0.723389	-0.587646	-0.060059	0.541938	0.476404	-0.562899	0.403097
61739		9.745309	0.570434	-0.886116	0.010266	0.001060	-0.009740	-0.727051	-0.592285	-0.051514	0.541911	0.476420	-0.562850	0.403182
61740		9.751816	0.594102	-0.925730	0.007925	0.002264	-0.009515	-0.739258	-0.596924	-0.061035	0.541743	0.476594	-0.562795	0.403281
61741		9.738734	0.584087	-0.893620	0.002022	0.000089	-0.009593	-0.735107	-0.599854	-0.060303	0.541776	0.476445	-0.562887	0.403283
61742		9.750287	0.558415	-0.899179	-0.002471	0.003408	-0.009202	-0.731445	-0.593262	-0.057373	0.541889	0.476331	-0.562921	0.403220
61743		9.757367	0.552354	-0.925287	-0.001808	0.005254	-0.008501	-0.732666	-0.593506	-0.055176	0.541904	0.476255	-0.562947	0.403251
61744		9.753210	0.563334	-0.910587	-0.006487	0.002260	-0.007131	-0.730957	-0.591309	-0.064209	0.541866	0.476192	-0.563031	0.403260
61745		9.723417	0.561580	-0.902444	-0.005771	0.003201	-0.008243	-0.729004	-0.585205	-0.061279	0.542022	0.475944	-0.563118	0.403223
61746		9.698204	0.590990	-0.899229	0.004783	-0.001111	-0.016242	-0.729736	-0.596436	-0.061523	0.542014	0.475886	-0.563148	0.403258
61747		9.728853	0.589401	-0.906891	0.006636	0.001690	-0.020394	-0.732178	-0.598877	-0.061035	0.542132	0.475935	-0.563056	0.403170
61748		9.724501	0.602500	-0.892633	0.005463	0.003439	-0.014658	-0.724121	-0.594238	-0.056641	0.542230	0.475931	-0.563001	0.403119
61749		9.749549	0.628590	-0.920692	0.002199	0.001460	-0.007399	-0.736816	-0.600098	-0.057129	0.542205	0.476001	-0.562965	0.403121
61750		9.761106	0.620870	-0.903951	-0.002796	0.002513	-0.001901	-0.727539	-0.598145	-0.066650	0.542179	0.475904	-0.563061	0.403137
61751		9.739607	0.618236	-0.901066	-0.002209	0.003018	0.001979	-0.728027	-0.593018	-0.058105	0.542372	0.475654	-0.563123	0.403087
61752		9.680745	0.580897	-0.872842	-0.003674	0.002906	-0.002098	-0.734131	-0.594238	-0.070557	0.542359	0.475571	-0.563183	0.403118
61753		9.687847	0.642489	-0.902412	0.001291	0.005465	-0.004901	-0.729248	-0.595215	-0.061035	0.542589	0.475219	-0.563260	0.403116
61754		9.745553	0.640427	-0.903250	0.003241	0.000653	-0.001393	-0.724854	-0.596436	-0.057129	0.542581	0.475149	-0.563303	0.403148
61755		9.783015	0.605802	-0.925224	0.002982	-0.001140	0.004093	-0.735107	-0.596924	-0.061523	0.542487	0.475184	-0.563334	0.403191
61756		9.743889	0.619277	-0.944507	0.017368	0.025475	0.010156	-0.731934	-0.598145	-0.051758	0.542509	0.474953	-0.563247	0.403555
61757		9.822166	0.662426	-0.856643	0.038412	0.073201	0.014188	-0.726807	-0.581787	-0.060059	0.542544	0.474848	-0.562690	0.404406
61758		9.744123	0.674045	-0.684779	0.026835	0.085500	0.017012	-0.728271	-0.593750	-0.059570	0.542782	0.474342	-0.562203	0.405358
61759		9.805564	0.639201	-0.818723	0.033135	0.058051	0.029742	-0.733643	-0.587158	-0.063477	0.542784	0.474055	-0.561863	0.406162
61760		9.697019	0.638443	-0.886166	0.035914	0.061404	0.038367	-0.730957	-0.593506	-0.069824	0.542749	0.473539	-0.561634	0.407127
61761		9.623401	0.599725	-0.726409	0.026555	0.010731	0.013024	-0.736816	-0.587646	-0.057129	0.542734	0.473369	-0.561578	0.407421
61762		9.600231	0.635913	-0.738290	0.036505	-0.017152	-0.012576	-0.739746	-0.597656	-0.061035	0.542257	0.473761	-0.561562	0.407624
61763		9.731232	0.478668	-0.680443	0.023357	-0.038833	-0.036546	-0.736084	-0.591797	-0.060059	0.541992	0.474295	-0.561585	0.407322
61764		9.837062	0.336797	-0.829099	0.011455	-0.041012	-0.046165	-0.737061	-0.595947	-0.057129	0.541802	0.474801	-0.561642	0.406906
61765		9.726003	0.334076	-0.848929	0.028540	-0.026419	-0.042190	-0.723633	-0.590576	-0.056152	0.541571	0.475376	-0.561520	0.406711
61766		9.817135	0.317211	-0.898544	0.042708	-0.015243	-0.049510	-0.732178	-0.593018	-0.058350	0.541391	0.476109	-0.561134	0.406626
61767		9.799578	0.396128	-0.897968	0.050782	-0.028775	-0.058470	-0.718506	-0.595947	-0.055176	0.541142	0.476891	-0.560826	0.406465
61768		9.724688	0.537708	-0.903561	0.044196	-0.040462	-0.056913	-0.733398	-0.583984	-0.051270	0.540880	0.477851	-0.560504	0.406132
61769		9.662925	0.512128	-0.943457	0.035328	-0.043159	-0.042173	-0.724609	-0.597412	-0.055176	0.540363	0.478450	-0.560569	0.406025
61770		9.808944	0.430370	-0.923173	0.049758	-0.023674	-0.033512	-0.726318	-0.592773	-0.044922	0.540085	0.479073	-0.560319	0.406004
61771		9.781169	0.541792	-0.929177	0.037185	-0.008242	-0.028248	-0.717285	-0.586426	-0.044434	0.539735	0.479616	-0.560091	0.406143
61772		9.740321	0.660146	-0.878630	0.028024	-0.002540	-0.027463	-0.721436	-0.589600	-0.043701	0.539486	0.480070	-0.559855	0.406265
61773		9.811052	0.647172	-0.900996	0.009685	-0.011046	-0.033743	-0.721924	-0.592773	-0.044434	0.539316	0.480472	-0.559749	0.406160
61774		9.832028	0.541859	-0.968411	0.000148	-0.019910	-0.042571	-0.721924	-0.584961	-0.040039	0.539227	0.480907	-0.559688	0.405847
61775		9.702158	0.583695	-0.892975	0.003898	-0.008871	-0.043807	-0.719482	-0.589355	-0.052002	0.539076	0.481304	-0.559597	0.405703
61776		9.722460	0.615747	-0.876363	0.010584	-0.016006	-0.038000	-0.717285	-0.596436	-0.041016	0.539096	0.481534	-0.559557	0.405458
61777		9.802612	0.595520	-0.904790	0.033329	-0.002669	-0.032187	-0.720947	-0.592529	-0.048828	0.538856	0.482133	-0.559208	0.405546
61778		9.691131	0.658894	-1.048335	0.033913	-0.002272	-0.038221	-0.720947	-0.588867	-0.043457	0.538792	0.482497	-0.558947	0.405558
61779		9.682159	0.744015	-0.899895	0.044341	-0.003438	-0.043044	-0.714355	-0.588623	-0.032227	0.538559	0.483026	-0.558633	0.405671
61780		9.716730	0.747937	-0.866165	0.047499	-0.007268	-0.041655	-0.713867	-0.598389	-0.050049	0.538077	0.483866	-0.558223	0.405874
61781		9.701435	0.783874	-1.012186	0.056396	-0.004642	-0.028072	-0.721924	-0.588867	-0.045166	0.537933	0.484341	-0.557850	0.406010
61782		9.649282	0.800651	-0.982327	0.048797	-0.000979	-0.019163	-0.720703	-0.599121	-0.038574	0.537660	0.484575	-0.557708	0.406288
61783		9.686966	0.818836	-0.938660	0.019959	0.002033	-0.014867	-0.724609	-0.592041	-0.042725	0.537477	0.484836	-0.557558	0.406426
61784		9.749796	0.782304	-0.939934	0.019961	0.005063	-0.021681	-0.729980	-0.596680	-0.038086	0.537408	0.484904	-0.557490	0.406530
61785		9.681184	0.729380	-0.949745	0.031203	-0.000192	-0.031623	-0.708496	-0.590576	-0.047363	0.537187	0.485247	-0.557308	0.406661
61786		9.683647	0.747196	-1.033748	0.039629	0.004375	-0.035518	-0.712891	-0.601074	-0.038574	0.537236	0.485555	-0.556969	0.406694
61787		9.662186	0.811119	-0.945174	0.038765	-0.003853	-0.037814	-0.714844	-0.602051	-0.035400	0.537080	0.486174	-0.556556	0.406726
61788		9.752335	0.812814	-0.934001	0.024621	-0.003072	-0.038215	-0.717529	-0.602051	-0.037354	0.536960	0.486729	-0.556211	0.406693
61789		9.781729	0.796226	-0.893139	0.010734	0.003625	-0.036557	-0.721680	-0.595459	-0.040771	0.537004	0.487050	-0.555955	0.406599
61790		9.705794	0.822628	-0.950531	0.007201	0.005799	-0.027911	-0.712891	-0.595703	-0.049072	0.537080	0.487073	-0.555897	0.406551
61791		9.711487	0.838620	-0.919384	0.001393	0.004718	-0.016280	-0.713867	-0.605957	-0.028809	0.537325	0.486882	-0.555927	0.406415
61792		9.761332	0.799964	-0.922666	-0.002105	0.005462	-0.011670	-0.716309	-0.595703	-0.035645	0.537178	0.487184	-0.555753	0.406485
61793		9.724223	0.797431	-0.943144	-0.006176	0.010137	-0.011033	-0.716309	-0.595703	-0.037842	0.537192	0.487134	-0.555754	0.406524
61794		9.695590	0.845982	-0.938787	-0.007779	0.005871	-0.015435	-0.717529	-0.599854	-0.036621	0.537253	0.487082	-0.555780	0.406472
61795		9.702756	0.850849	-0.907891	-0.007697	0.000489	-0.014445	-0.719238	-0.598145	-0.040039	0.537250	0.487117	-0.555804	0.406401
61796		9.714134	0.816278	-0.934380	-0.005866	0.002506	-0.010513	-0.724854	-0.598633	-0.035889	0.537290	0.487017	-0.555888	0.406352
61797		9.703248	0.856213	-0.940945	-0.015463	0.009144	-0.004253	-0.723145	-0.595459	-0.029541	0.537300	0.486826	-0.556023	0.406384
61798		9.760379	0.855879	-0.904577	-0.030418	0.008557	-0.001242	-0.718994	-0.598145	-0.030762	0.537251	0.486640	-0.556217	0.406405
61799		9.734366	0.833987	-0.930576	-0.028655	0.000914	-0.006558	-0.709473	-0.598145	-0.047607	0.537209	0.486592	-0.556361	0.406321
61800		9.679802	0.779280	-0.937170	-0.016669	-0.001897	-0.010889	-0.718018	-0.593994	-0.053467	0.537462	0.486396	-0.556488	0.406047
61801		9.695206	0.783940	-0.911850	-0.016356	0.004077	-0.006141	-0.720703	-0.592041	-0.034912	0.537801	0.485900	-0.556762	0.405817
61802		9.753681	0.794408	-0.890397	-0.026287	0.002002	-0.005467	-0.716553	-0.592285	-0.042236	0.537784	0.485720	-0.556978	0.405758
61803		9.735258	0.812961	-0.914037	-0.019630	0.002560	-0.002005	-0.714111	-0.590576	-0.045654	0.537871	0.485446	-0.557197	0.405670
61804		9.743130	0.755357	-0.877873	-0.022755	0.004180	0.000674	-0.728516	-0.590576	-0.041016	0.538042	0.485065	-0.557455	0.405545
61805		9.781023	0.731535	-0.931921	-0.022811	0.010548	0.004175	-0.716553	-0.597900	-0.049805	0.538090	0.484629	-0.557752	0.405595
61806		9.712598	0.750220	-0.922258	-0.018842	0.009969	0.005737	-0.713135	-0.591309	-0.044189	0.538326	0.484218	-0.557943	0.405509
61807		9.661550	0.722557	-0.897140	-0.011679	0.005417	-0.001216	-0.716064	-0.590332	-0.039795	0.538391	0.484028	-0.558058	0.405492
61808		9.689292	0.776621	-0.894848	-0.006439	0.002634	-0.002235	-0.717285	-0.602539	-0.045166	0.538307	0.483967	-0.558142	0.405561
61809		9.723533	0.792390	-0.928102	-0.007490	0.004822	-0.001519	-0.718750	-0.594482	-0.040283	0.538377	0.483882	-0.558170	0.405529
61810		9.751565	0.767258	-0.907604	-0.007596	0.003471	-0.001014	-0.720703	-0.600098	-0.050293	0.538313	0.483816	-0.558247	0.405588
61811		9.759091	0.788514	-0.890071	-0.016791	0.001883	-0.001023	-0.719727	-0.593506	-0.051514	0.538497	0.483529	-0.558432	0.405431
61812		9.732475	0.785192	-0.895131	-0.018894	0.003538	-0.000443	-0.721436	-0.590820	-0.052490	0.538704	0.483143	-0.558675	0.405282
61813		9.676814	0.738050	-0.900771	-0.016529	0.006862	-0.000736	-0.724121	-0.588867	-0.045898	0.538917	0.482716	-0.558915	0.405177
61814		9.703015	0.752753	-0.927571	-0.011379	0.009465	-0.002723	-0.724365	-0.595215	-0.051758	0.538974	0.482446	-0.559060	0.405222
61815		9.731931	0.757550	-0.898223	-0.012608	0.001286	-0.001327	-0.713867	-0.596436	-0.049805	0.539102	0.482143	-0.559275	0.405117
61816		9.731893	0.758423	-0.897898	-0.005928	-0.000064	-0.004140	-0.725586	-0.591309	-0.049805	0.539187	0.482053	-0.559339	0.405021
61817		9.694708	0.763688	-0.863667	-0.010055	-0.002628	-0.004253	-0.722168	-0.602539	-0.045654	0.539223	0.481824	-0.559557	0.404945
61818		9.715391	0.758421	-0.887278	-0.010562	0.004085	-0.004669	-0.722168	-0.593506	-0.053711	0.539282	0.481772	-0.559583	0.404892
61819		9.742857	0.772930	-0.857827	-0.014553	0.006566	0.000049	-0.714600	-0.581299	-0.052490	0.539474	0.481410	-0.559776	0.404799
61820		9.740937	0.793378	-0.890949	-0.022565	0.005926	-0.002128	-0.719482	-0.591064	-0.042236	0.539667	0.481012	-0.560011	0.404691
61821		9.704725	0.799172	-0.890142	-0.017746	0.003990	-0.004842	-0.720947	-0.595215	-0.062012	0.539649	0.480949	-0.560079	0.404695
61822		9.743056	0.767326	-0.910614	-0.020824	-0.000762	-0.005678	-0.725342	-0.591797	-0.047607	0.540004	0.480507	-0.560357	0.404363
61823		9.725811	0.736602	-0.908251	-0.027867	0.001467	-0.001875	-0.727051	-0.592529	-0.050781	0.540087	0.480239	-0.560585	0.404253
61824		9.738755	0.679219	-0.865124	-0.032993	-0.002893	0.003728	-0.723877	-0.593750	-0.053467	0.540195	0.479857	-0.560932	0.404081
61825		9.738843	0.650000	-0.907949	-0.021511	0.007417	0.002505	-0.727539	-0.598145	-0.054688	0.540370	0.479500	-0.561132	0.403993
61826		9.736166	0.669057	-0.905796	-0.011107	0.005954	0.002672	-0.728271	-0.593018	-0.052979	0.540493	0.479214	-0.561291	0.403947
61827		9.726554	0.657154	-0.886175	-0.007879	0.001681	0.001802	-0.727051	-0.594971	-0.060303	0.540511	0.478984	-0.561470	0.403949
61828		9.729650	0.657340	-0.898984	-0.001919	0.003048	0.002763	-0.722412	-0.592773	-0.053223	0.540641	0.478660	-0.561657	0.403897
61829		9.734902	0.657751	-0.889885	0.011876	0.004479	-0.001694	-0.727539	-0.590820	-0.054443	0.540592	0.478626	-0.561650	0.404013
61830		9.707215	0.732262	-0.877284	0.013346	0.006882	0.001000	-0.722656	-0.593506	-0.052979	0.540537	0.478499	-0.561687	0.404185
61831		9.727412	0.744304	-0.878455	0.003597	0.001237	0.004348	-0.722168	-0.590820	-0.052490	0.540487	0.478394	-0.561772	0.404259
61832		9.734845	0.714735	-0.891951	0.004880	0.002243	0.004864	-0.724854	-0.592529	-0.059814	0.540415	0.478290	-0.561849	0.404372
61833		9.745331	0.714538	-0.874735	0.013751	0.004729	0.005869	-0.722656	-0.593262	-0.059814	0.540435	0.478074	-0.561943	0.404469
61834		9.720629	0.768539	-0.862335	0.006474	0.007303	0.003877	-0.733154	-0.584473	-0.054443	0.540538	0.477834	-0.562023	0.404504
61835		9.729116	0.788983	-0.879654	0.001986	0.002427	0.001642	-0.728027	-0.583008	-0.062500	0.540470	0.477605	-0.562191	0.404633
61836		9.707285	0.746339	-0.850925	-0.004708	-0.001330	-0.004927	-0.727539	-0.593994	-0.053711	0.540600	0.477268	-0.562423	0.404533
61837		9.710146	0.698963	-0.894346	0.001102	0.006342	-0.003116	-0.725342	-0.589844	-0.061768	0.540642	0.477158	-0.562454	0.404563
61838		9.720873	0.740135	-0.903107	0.004383	0.003525	0.002736	-0.739258	-0.589600	-0.063965	0.540739	0.476884	-0.562596	0.404560
61839		9.744598	0.742531	-0.883149	-0.003928	-0.000682	0.004296	-0.728271	-0.593262	-0.060303	0.540841	0.476440	-0.562911	0.404509
61840		9.744505	0.721649	-0.869965	-0.001249	-0.000034	0.003964	-0.720215	-0.592529	-0.057617	0.540921	0.476180	-0.563095	0.404452
61841		9.707675	0.715897	-0.891775	0.004396	0.007544	0.000420	-0.723877	-0.595215	-0.056885	0.541010	0.476051	-0.563107	0.404469
61842		9.684072	0.692425	-0.896363	0.002999	0.007901	0.001268	-0.730713	-0.592285	-0.055908	0.541096	0.475909	-0.563134	0.404482
61843		9.729625	0.738645	-0.904318	0.005939	0.000878	-0.001275	-0.728760	-0.591309	-0.055420	0.541071	0.475813	-0.563211	0.404522
61844		9.753932	0.751546	-0.863011	0.002704	-0.001582	0.001046	-0.723633	-0.587158	-0.055176	0.541028	0.475712	-0.563320	0.404547
61845		9.718781	0.677352	-0.881767	0.006480	-0.001329	-0.000947	-0.728027	-0.592529	-0.061279	0.540960	0.475675	-0.563373	0.404607
61846		9.721977	0.726533	-0.864592	0.008883	0.002970	0.003249	-0.723633	-0.595215	-0.055908	0.541015	0.475476	-0.563475	0.404625
61847		9.746444	0.709334	-0.866525	0.002776	0.001180	0.004586	-0.725342	-0.586182	-0.052246	0.541028	0.475373	-0.563552	0.404620
61848		9.730206	0.705636	-0.855851	0.005453	0.001826	0.004255	-0.723389	-0.585205	-0.054199	0.540905	0.475326	-0.563601	0.404772
61849		9.736317	0.706235	-0.882600	0.003557	0.000265	-0.000129	-0.730225	-0.594238	-0.056641	0.540841	0.475277	-0.563652	0.404845
61850		9.720808	0.733832	-0.863574	0.000370	0.000413	-0.004166	-0.727783	-0.578369	-0.056641	0.540899	0.475173	-0.563732	0.404777
61851		9.729779	0.765429	-0.860395	-0.003613	-0.002541	-0.001171	-0.727295	-0.595215	-0.055908	0.540848	0.475011	-0.563886	0.404822
61852		9.733834	0.716586	-0.848027	-0.007090	-0.002759	0.001636	-0.725586	-0.591064	-0.060547	0.540902	0.474871	-0.564033	0.404709
61853		9.732492	0.696416	-0.891707	-0.009125	0.001655	0.005757	-0.734131	-0.588623	-0.052490	0.541030	0.474585	-0.564219	0.404614
61854		9.729563	0.723816	-0.833931	-0.011289	0.001031	0.005039	-0.726074	-0.595947	-0.055908	0.540999	0.474387	-0.564397	0.404638
61855		9.718603	0.712214	-0.872369	-0.014211	-0.003290	0.001894	-0.729248	-0.593506	-0.059570	0.541095	0.474226	-0.564569	0.404460
61856		9.741284	0.686284	-0.861716	-0.011292	-0.001350	-0.003481	-0.731445	-0.593506	-0.057861	0.541245	0.474027	-0.564726	0.404272
61857		9.727208	0.675281	-0.886729	-0.015056	-0.001120	0.000753	-0.727539	-0.588379	-0.058594	0.541362	0.473794	-0.564923	0.404115
61858		9.728651	0.665245	-0.886920	-0.011869	-0.001273	0.004791	-0.729004	-0.590088	-0.066650	0.541423	0.473559	-0.565118	0.404035
61859		9.722185	0.643867	-0.938912	-0.008576	-0.000074	0.008328	-0.733154	-0.585205	-0.064209	0.541584	0.473181	-0.565367	0.403914
61860		9.765801	0.638720	-0.907950	-0.007624	-0.000071	0.003550	-0.730713	-0.590820	-0.061768	0.541679	0.472859	-0.565588	0.403853
61861		9.740888	0.595431	-0.865958	-0.004022	-0.000388	-0.006041	-0.737793	-0.596191	-0.056641	0.541806	0.472702	-0.565700	0.403711
61862		9.714862	0.673042	-0.924814	0.003788	0.001080	-0.007412	-0.728271	-0.588379	-0.057861	0.541843	0.472656	-0.565750	0.403645
61863		9.736784	0.666863	-0.892304	0.006792	-0.004007	-0.001000	-0.725830	-0.591309	-0.054688	0.541782	0.472636	-0.565821	0.403650
61864		9.755981	0.649543	-0.903318	0.000267	0.001441	0.004856	-0.726074	-0.584961	-0.059814	0.541752	0.472571	-0.565889	0.403672
61865		9.724449	0.692943	-0.886801	0.002479	0.001141	0.003773	-0.720703	-0.588623	-0.059570	0.541743	0.472438	-0.565979	0.403714
61866		9.714516	0.661733	-0.854594	-0.001648	0.002938	-0.006323	-0.731201	-0.586670	-0.059570	0.541859	0.472383	-0.565984	0.403615
61867		9.690448	0.690377	-0.922288	0.001582	-0.001336	-0.007192	-0.733643	-0.590576	-0.059326	0.541887	0.472317	-0.566050	0.403562
61868		9.719812	0.676397	-0.916676	0.004045	-0.000678	-0.005660	-0.728760	-0.593750	-0.055908	0.541914	0.472249	-0.566117	0.403511
61869		9.750037	0.691614	-0.902892	-0.000581	-0.005497	-0.003356	-0.724365	-0.591064	-0.056152	0.541909	0.472245	-0.566205	0.403399
61870		9.763911	0.703485	-0.879437	-0.003567	-0.007002	0.001580	-0.725342	-0.591553	-0.057129	0.541883	0.472210	-0.566330	0.403300
61871		9.736877	0.659474	-0.859963	-0.002212	0.000299	0.001084	-0.735352	-0.592041	-0.060059	0.541920	0.472132	-0.566404	0.403239
61872		9.686798	0.672509	-0.898449	0.001710	0.003698	-0.002348	-0.726318	-0.592285	-0.059082	0.541993	0.471989	-0.566479	0.403202
61873		9.728891	0.650602	-0.910696	0.002540	0.001865	-0.008866	-0.721436	-0.589111	-0.059326	0.542091	0.471975	-0.566473	0.403095
61874		9.737654	0.663555	-0.893770	0.009556	0.001046	-0.008626	-0.726318	-0.593750	-0.060303	0.542132	0.472033	-0.566417	0.403051
61875		9.731806	0.674527	-0.937770	0.011497	-0.005054	-0.004592	-0.729736	-0.581543	-0.064697	0.542131	0.472069	-0.566442	0.402975
61876		9.724046	0.663725	-0.898385	0.005819	-0.000956	-0.003015	-0.722900	-0.599854	-0.048584	0.542151	0.471934	-0.566525	0.402989
61877		9.726098	0.664783	-0.876767	0.009334	0.001055	-0.006762	-0.734375	-0.584717	-0.054688	0.542115	0.472132	-0.566434	0.402934
61878		9.714469	0.694588	-0.905703	0.015300	0.006440	-0.008113	-0.727295	-0.587402	-0.063232	0.542037	0.472180	-0.566364	0.403080
61879		9.725487	0.677994	-0.910319	0.014986	0.002384	-0.006610	-0.730469	-0.586670	-0.057129	0.542074	0.472158	-0.566332	0.403101
61880		9.743330	0.692013	-0.934058	0.007661	-0.000854	-0.005349	-0.729492	-0.589355	-0.060303	0.542034	0.472160	-0.566357	0.403118
61881		9.748080	0.653640	-0.899925	0.001171	-0.003547	-0.002084	-0.725098	-0.588623	-0.057129	0.542059	0.472073	-0.566458	0.403043
61882		9.717708	0.639913	-0.914301	0.003736	0.005198	-0.002510	-0.735352	-0.579346	-0.053955	0.542098	0.472031	-0.566450	0.403052
61883		9.724497	0.651542	-0.918284	0.010897	0.004808	-0.004569	-0.733643	-0.584717	-0.061279	0.541975	0.472028	-0.566442	0.403232
61884		9.737361	0.713395	-0.919034	0.010109	0.002521	-0.002954	-0.731689	-0.596436	-0.052490	0.541969	0.471937	-0.566480	0.403293
61885		9.739486	0.713875	-0.896975	0.011053	0.001702	-0.002313	-0.734863	-0.592285	-0.056396	0.541919	0.472000	-0.566465	0.403307
61886		9.737863	0.704031	-0.883731	0.001508	-0.001723	-0.002209	-0.728271	-0.586182	-0.056885	0.541918	0.471937	-0.566558	0.403252
61887		9.741396	0.695042	-0.862003	-0.009134	0.001979	-0.001903	-0.723145	-0.586426	-0.056396	0.541986	0.471803	-0.566655	0.403181
61888		9.739309	0.695420	-0.882981	-0.003997	0.003289	-0.000702	-0.731445	-0.593994	-0.057617	0.542032	0.471728	-0.566695	0.403151
61889		9.708877	0.661414	-0.883617	0.001150	0.001883	-0.000362	-0.727539	-0.578369	-0.061768	0.542080	0.471645	-0.566757	0.403096
61890		9.740025	0.656368	-0.890528	0.000271	0.002263	-0.000565	-0.733887	-0.590332	-0.055420	0.542097	0.471500	-0.566832	0.403138
61891		9.729143	0.694451	-0.897832	0.000270	0.002263	-0.000565	-0.728760	-0.586670	-0.060303	0.542098	0.471423	-0.566902	0.403128
61892		9.729643	0.684950	-0.862592	-0.006334	-0.001453	-0.004457	-0.733643	-0.585205	-0.055908	0.542179	0.471310	-0.567001	0.403012
61893		9.723702	0.626677	-0.923328	-0.005933	-0.000067	-0.004145	-0.736816	-0.587646	-0.056396	0.542192	0.471219	-0.567102	0.402959
61894		9.714784	0.645307	-0.895492	0.002121	0.005569	0.000201	-0.730713	-0.580078	-0.045654	0.542189	0.471106	-0.567164	0.403008
61895		9.735713	0.638706	-0.918382	0.008664	0.003807	-0.000304	-0.729492	-0.582275	-0.060303	0.541978	0.471205	-0.567144	0.403204
61896		9.765601	0.712026	-0.907881	0.004837	0.001275	0.000388	-0.731445	-0.583252	-0.056396	0.541962	0.471113	-0.567204	0.403248
61897		9.741072	0.708131	-0.892426	0.002107	-0.001651	-0.000580	-0.730469	-0.584229	-0.060059	0.541902	0.471065	-0.567287	0.403267
61898		9.708993	0.664103	-0.880320	-0.005812	0.001771	-0.002408	-0.730713	-0.587402	-0.051270	0.541976	0.470922	-0.567381	0.403205
61899		9.689140	0.671611	-0.890609	-0.006172	0.005376	-0.000561	-0.732910	-0.583984	-0.051270	0.541981	0.470862	-0.567428	0.403201
61900		9.724857	0.657466	-0.910211	-0.009066	0.004741	0.001634	-0.730225	-0.589355	-0.054688	0.541964	0.470752	-0.567524	0.403216
61901		9.756014	0.652298	-0.917173	-0.006635	-0.002304	0.000145	-0.734863	-0.580566	-0.058350	0.541964	0.470696	-0.567630	0.403134
61902		9.739632	0.649951	-0.906983	-0.004737	0.000076	-0.000890	-0.735840	-0.581299	-0.057373	0.541961	0.470554	-0.567760	0.403120
61903		9.722993	0.656801	-0.839642	-0.005654	-0.001334	-0.000153	-0.737793	-0.583008	-0.062500	0.541941	0.470420	-0.567907	0.403097
61904		9.740336	0.659597	-0.884717	-0.005661	0.004582	0.003810	-0.735596	-0.585449	-0.055908	0.542006	0.470163	-0.568058	0.403096
61905		9.724928	0.637174	-0.894944	-0.003714	0.006037	0.000975	-0.738525	-0.579834	-0.067139	0.542026	0.470034	-0.568132	0.403114
61906		9.741415	0.639168	-0.904268	-0.005052	0.001938	0.004576	-0.740723	-0.583496	-0.052979	0.542097	0.469732	-0.568322	0.403103
61907		9.743438	0.619282	-0.868550	-0.004964	0.003620	-0.003582	-0.733643	-0.588379	-0.069824	0.542077	0.469647	-0.568412	0.403102
61908		9.703604	0.634434	-0.890649	-0.000099	-0.000534	-0.004917	-0.728271	-0.591309	-0.058105	0.542231	0.469487	-0.568494	0.402966
61909		9.728612	0.628708	-0.871011	0.003660	0.001620	-0.000627	-0.733398	-0.589844	-0.059570	0.542252	0.469484	-0.568500	0.402932
61910		9.734589	0.610114	-0.884142	0.004810	0.003504	-0.000987	-0.730225	-0.580566	-0.069824	0.542280	0.469434	-0.568519	0.402926
61911		9.749728	0.691212	-0.876148	-0.003985	0.003773	0.001538	-0.727051	-0.582275	-0.066650	0.542415	0.469186	-0.568625	0.402885
61912		9.737646	0.639316	-0.852307	-0.006867	0.000422	0.002869	-0.736084	-0.577148	-0.065186	0.542516	0.468987	-0.568745	0.402810
61913		9.711994	0.586930	-0.923984	-0.003821	0.001485	-0.001626	-0.733154	-0.573242	-0.066406	0.542567	0.468795	-0.568869	0.402791
61914		9.735136	0.649499	-0.908200	0.002964	0.003399	0.001347	-0.737793	-0.578613	-0.059570	0.542573	0.468615	-0.568958	0.402867
61915		9.763300	0.692192	-0.870955	0.000482	0.001434	0.002991	-0.728516	-0.584229	-0.065430	0.542519	0.468482	-0.569078	0.402925
61916		9.732851	0.657473	-0.872488	-0.002649	-0.002877	0.001706	-0.732910	-0.587891	-0.060547	0.542571	0.468359	-0.569189	0.402840
61917		9.726261	0.617492	-0.911314	-0.002773	0.002018	-0.001485	-0.729980	-0.585205	-0.066162	0.542635	0.468274	-0.569251	0.402766
61918		9.739620	0.668677	-0.876961	-0.006382	0.002673	0.000442	-0.733887	-0.583252	-0.062256	0.542763	0.468098	-0.569341	0.402671
61919		9.725555	0.636862	-0.888326	-0.005407	-0.000375	0.002460	-0.736816	-0.573730	-0.063232	0.542793	0.467950	-0.569472	0.402617
61920		9.742415	0.579692	-0.894449	-0.002183	-0.001930	0.002458	-0.733154	-0.586182	-0.062500	0.542745	0.467788	-0.569631	0.402644
61921		9.740197	0.608335	-0.872340	0.005009	0.002188	0.000329	-0.730713	-0.581055	-0.062012	0.542764	0.467726	-0.569668	0.402639
61922		9.731454	0.646123	-0.857683	-0.003172	0.003831	0.001304	-0.736816	-0.578125	-0.055420	0.542809	0.467601	-0.569736	0.402626
61923		9.713673	0.604217	-0.877514	-0.005890	-0.001807	-0.000532	-0.732178	-0.581055	-0.054443	0.542744	0.467534	-0.569867	0.402607
61924		9.727086	0.577333	-0.918706	-0.003313	-0.002509	-0.000361	-0.739990	-0.583496	-0.055176	0.542673	0.467528	-0.569959	0.402579
61925		9.750680	0.580208	-0.899210	-0.001898	0.000818	0.004135	-0.733887	-0.586426	-0.056885	0.542604	0.467440	-0.570083	0.402600
61926		9.732940	0.586416	-0.888611	0.002011	0.000198	0.003022	-0.733643	-0.575684	-0.053955	0.542556	0.467414	-0.570147	0.402604
61927		9.735202	0.606130	-0.880128	0.003028	-0.000240	-0.001317	-0.734131	-0.583496	-0.060303	0.542440	0.467431	-0.570203	0.402661
61928		9.735316	0.626857	-0.893292	0.000005	0.000819	-0.005417	-0.737305	-0.576904	-0.059326	0.542473	0.467406	-0.570234	0.402601
61929		9.742279	0.609248	-0.850082	0.003963	-0.000725	-0.008333	-0.736328	-0.579834	-0.058350	0.542439	0.467410	-0.570274	0.402586
61930		9.703148	0.605801	-0.894885	-0.002793	-0.001667	-0.006827	-0.729736	-0.576660	-0.057617	0.542438	0.467386	-0.570346	0.402512
61931		9.732549	0.591873	-0.889277	0.000549	-0.001386	-0.005090	-0.735107	-0.584473	-0.064941	0.542399	0.467405	-0.570383	0.402491
61932		9.758316	0.567109	-0.891885	0.005107	0.000341	-0.003274	-0.736572	-0.578613	-0.063965	0.542436	0.467356	-0.570411	0.402459
61933		9.756298	0.636805	-0.896211	0.005623	0.000364	-0.004323	-0.738525	-0.578125	-0.059570	0.542436	0.467302	-0.570455	0.402459
61934		9.751572	0.627027	-0.869601	-0.006570	-0.001927	-0.004837	-0.733643	-0.578857	-0.063477	0.542447	0.467212	-0.570578	0.402374
61935		9.725471	0.585690	-0.884887	-0.003758	-0.001337	-0.009707	-0.735352	-0.585938	-0.054932	0.542518	0.467165	-0.570630	0.402258
61936		9.723262	0.587940	-0.906390	0.001001	0.003093	-0.008891	-0.729004	-0.585693	-0.062744	0.542536	0.467218	-0.570609	0.402203
61937		9.758139	0.614430	-0.918325	-0.003510	-0.001196	-0.001675	-0.726562	-0.574951	-0.058105	0.542595	0.467170	-0.570658	0.402110
61938		9.719330	0.559867	-0.901512	0.001530	-0.000415	-0.005387	-0.728760	-0.581787	-0.056152	0.542562	0.467201	-0.570669	0.402102
61939		9.721590	0.601689	-0.905882	0.009148	0.003683	-0.011242	-0.734863	-0.586426	-0.052246	0.542550	0.467335	-0.570568	0.402106
61940		9.727219	0.614305	-0.875705	0.004437	-0.002491	-0.008442	-0.741211	-0.586670	-0.057861	0.542483	0.467464	-0.570563	0.402054
61941		9.740535	0.589046	-0.917374	0.006098	-0.004601	-0.007536	-0.731445	-0.584717	-0.056396	0.542430	0.467522	-0.570609	0.401992
61942		9.754213	0.582452	-0.879745	0.008210	0.000969	-0.007329	-0.732910	-0.583740	-0.054688	0.542399	0.467623	-0.570559	0.401989
61943		9.731308	0.610708	-0.890120	0.008957	0.005483	-0.010317	-0.732422	-0.580078	-0.062744	0.542390	0.467729	-0.570468	0.402007
61944		9.724588	0.622445	-0.897644	0.010181	0.001011	-0.014201	-0.733398	-0.575439	-0.063232	0.542419	0.467811	-0.570395	0.401976
61945		9.742179	0.618476	-0.908519	0.006323	-0.003316	-0.012572	-0.732910	-0.581787	-0.055420	0.542416	0.467848	-0.570406	0.401921
61946		9.747279	0.572695	-0.931103	0.002284	0.001378	-0.009236	-0.727295	-0.577881	-0.060059	0.542411	0.467903	-0.570393	0.401881
61947		9.733667	0.601518	-0.889871	0.004929	0.003445	-0.005526	-0.733398	-0.571777	-0.058838	0.542420	0.467914	-0.570362	0.401900
61948		9.750560	0.615504	-0.878009	0.005740	0.000301	-0.008861	-0.737549	-0.588867	-0.063232	0.542377	0.467924	-0.570388	0.401911
61949		9.723798	0.613801	-0.884226	0.008394	0.000465	-0.011428	-0.729492	-0.577637	-0.059326	0.542428	0.467977	-0.570339	0.401850
61950		9.731850	0.637982	-0.902740	0.002889	-0.000456	-0.013884	-0.732910	-0.582275	-0.066406	0.542453	0.468045	-0.570309	0.401778
61951		9.752481	0.614690	-0.913234	-0.000085	0.002057	-0.011269	-0.729736	-0.583008	-0.062744	0.542573	0.468002	-0.570297	0.401684
61952		9.742667	0.625572	-0.907825	0.003341	-0.000806	-0.009954	-0.735352	-0.579346	-0.062256	0.542620	0.468037	-0.570274	0.401612
61953		9.731301	0.625917	-0.889216	0.004784	0.001116	-0.009501	-0.735840	-0.582031	-0.066162	0.542644	0.468029	-0.570280	0.401580
61954		9.720883	0.627123	-0.905644	0.001720	0.000371	-0.012661	-0.739258	-0.582764	-0.058594	0.542739	0.468002	-0.570282	0.401482
61955		9.731036	0.651370	-0.901949	0.000886	0.003026	-0.011566	-0.739014	-0.579102	-0.053467	0.542784	0.467994	-0.570291	0.401416
61956		9.761983	0.629334	-0.895768	-0.001701	-0.000783	-0.011658	-0.735107	-0.577148	-0.056641	0.542762	0.468019	-0.570350	0.401334
61957		9.731654	0.637132	-0.923434	-0.002146	0.001962	-0.007074	-0.736084	-0.583008	-0.059570	0.542764	0.467980	-0.570407	0.401296
61958		9.743314	0.610512	-0.893428	-0.003500	0.000091	-0.004851	-0.732910	-0.575928	-0.066895	0.542793	0.467921	-0.570478	0.401225
61959		9.723350	0.618676	-0.904135	-0.000984	0.004338	-0.005196	-0.734863	-0.588379	-0.062744	0.542879	0.467790	-0.570520	0.401201
61960		9.745467	0.672821	-0.909956	0.006842	0.003606	-0.005180	-0.738281	-0.581055	-0.060303	0.542919	0.467791	-0.570485	0.401195
61961		9.708139	0.678006	-0.875437	0.002309	-0.000853	-0.007855	-0.731201	-0.587891	-0.062256	0.542917	0.467775	-0.570535	0.401144
61962		9.699774	0.678474	-0.871002	-0.001834	-0.005221	-0.007040	-0.730225	-0.579102	-0.064697	0.542953	0.467796	-0.570574	0.401016
61963		9.728140	0.664911	-0.922493	0.002583	0.000604	-0.003004	-0.737061	-0.574707	-0.057861	0.542975	0.467740	-0.570607	0.401005
61964		9.773437	0.690980	-0.916049	0.007306	0.017382	0.007960	-0.733887	-0.575684	-0.060547	0.542955	0.467556	-0.570620	0.401229
61965		9.758837	0.704429	-0.857848	-0.007142	0.016890	0.019773	-0.738037	-0.586670	-0.065674	0.542985	0.467195	-0.570754	0.401418
61966		9.762983	0.874615	-0.716371	-0.047497	-0.039098	0.040414	-0.739258	-0.578125	-0.064209	0.542820	0.466683	-0.571564	0.401083
61967		9.757671	1.003339	-1.062642	-0.049509	-0.004533	0.071946	-0.740234	-0.581787	-0.058594	0.542716	0.465738	-0.572367	0.401178
61968		9.659890	0.819255	-0.932297	-0.064842	-0.025660	0.096034	-0.737549	-0.577637	-0.062988	0.542397	0.464692	-0.573506	0.401196
61969		9.690277	0.757303	-0.880093	-0.089105	-0.004105	0.132858	-0.738770	-0.571777	-0.057861	0.542216	0.463091	-0.574819	0.401413
61970		9.780687	0.576243	-0.699203	-0.114144	0.035148	0.155288	-0.733643	-0.560791	-0.064453	0.542287	0.460999	-0.576127	0.401850
61971		9.829980	0.439105	-0.816227	-0.120339	0.112122	0.171497	-0.743896	-0.557617	-0.061035	0.542881	0.458331	-0.577025	0.402810
61972		9.699348	0.341519	-0.942421	-0.058941	0.113422	0.194860	-0.738770	-0.558838	-0.062744	0.542945	0.455914	-0.577777	0.404384
61973		9.657621	0.186514	-0.795067	-0.012321	0.063525	0.204444	-0.748047	-0.548340	-0.073486	0.542347	0.454065	-0.578616	0.406064
61974		9.853308	-0.093317	-0.760944	-0.006781	0.055149	0.273896	-0.745361	-0.539062	-0.070557	0.541346	0.451652	-0.579939	0.408197
61975		9.772706	-0.627550	-0.575649	0.050514	-0.057449	0.356677	-0.760010	-0.537842	-0.072266	0.538739	0.449638	-0.582173	0.410683
61976		9.661658	-0.735812	-0.865679	0.094451	-0.032430	0.478766	-0.765869	-0.531006	-0.079346	0.535456	0.446840	-0.584705	0.414417
61977		9.261668	-1.028016	-0.794539	0.038964	0.012246	0.644534	-0.761963	-0.516846	-0.070801	0.532000	0.442152	-0.588100	0.419066
61978		8.526469	-1.266268	-0.508941	0.059666	-0.071408	0.910169	-0.781738	-0.498047	-0.071533	0.526312	0.436160	-0.593297	0.425157
61979		7.758970	-1.368970	-1.102707	0.041706	-0.151472	1.198503	-0.791504	-0.489258	-0.088623	0.518511	0.428189	-0.600625	0.432493
61980		7.382657	-1.996565	-1.698013	0.002478	-0.101112	1.395843	-0.804199	-0.473633	-0.077393	0.510305	0.418054	-0.608597	0.440942
61981		6.999220	-2.708265	-1.161484	0.164574	0.070293	1.519200	-0.815430	-0.441650	-0.073242	0.501669	0.407093	-0.614954	0.452145
61982		6.498636	-2.500033	0.352235	0.403757	0.343101	1.665371	-0.818359	-0.416016	-0.077393	0.492828	0.394838	-0.618741	0.467316
61983		6.862853	-1.526558	1.422739	0.561039	0.335101	1.592997	-0.825928	-0.382812	-0.078857	0.483287	0.383958	-0.621055	0.483012
61984		8.039315	-3.451107	-1.442725	0.241578	0.200183	1.212991	-0.808105	-0.364014	-0.071289	0.476269	0.374674	-0.624188	0.493129
61985		10.354173	-3.810592	-1.293208	0.366759	0.058193	0.815919	-0.814697	-0.355713	-0.063232	0.469907	0.370023	-0.625437	0.501097
61986		11.210821	-3.900905	-0.816867	0.647145	-0.153305	0.764712	-0.808105	-0.343262	-0.060547	0.460849	0.368689	-0.625848	0.509903
61987		13.512184	-3.567787	-0.336571	0.363913	-0.038990	0.509242	-0.811035	-0.333252	-0.046631	0.455566	0.366951	-0.626158	0.515493
61988		18.487297	-2.474282	-0.425115	-0.085555	-0.059249	-0.077976	-0.803223	-0.332520	-0.048584	0.455955	0.367369	-0.626764	0.514112
61989		23.503227	-2.223484	-1.037834	-0.483380	-0.129892	-0.663759	-0.808350	-0.341064	-0.036133	0.461360	0.370546	-0.627604	0.505922
61990		23.361395	-3.268278	-1.468031	-0.486037	-0.076889	-1.329976	-0.803711	-0.382080	-0.040283	0.471311	0.378522	-0.624938	0.494004
61991		21.380507	-2.043442	-1.063786	-0.331467	-0.053807	-1.759816	-0.803467	-0.421143	-0.020996	0.483177	0.390472	-0.618896	0.480666
61992		15.814980	-1.483221	-1.031566	-0.191952	-0.082309	-1.664371	-0.807617	-0.454346	-0.011719	0.493344	0.402518	-0.612364	0.468618
61993		8.770882	-0.287795	-0.416230	-0.330512	0.019143	-1.376592	-0.816650	-0.478760	-0.011475	0.503114	0.410763	-0.607237	0.457617
61994		2.298419	0.501460	0.067196	-0.887785	0.088750	-1.069000	-0.836182	-0.500488	-0.010010	0.514084	0.413028	-0.605981	0.444873
61995		-1.713831	-0.591708	-0.328527	-1.110942	0.043659	-0.782265	-0.840576	-0.513672	-0.018799	0.524204	0.411718	-0.607631	0.431837
61996		-0.670403	-2.546819	-0.959457	-0.384332	-0.189373	-0.521697	-0.860596	-0.515381	-0.021240	0.527401	0.414261	-0.608197	0.424655
61997		0.952681	-2.020590	-0.766420	0.723022	0.005142	-0.188789	-0.863525	-0.521729	-0.027100	0.524575	0.420447	-0.603324	0.429005
61998		0.457920	-0.284843	-0.866104	0.796555	-0.021404	-0.002809	-0.860840	-0.509033	-0.028564	0.520138	0.425781	-0.599174	0.434922
61999		-0.137678	0.964599	-0.836933	0.319329	-0.134881	0.104106	-0.863525	-0.506836	-0.017578	0.516792	0.427780	-0.598908	0.437309
62000		0.354705	0.785692	0.431988	-0.168249	0.094463	0.215096	-0.841553	-0.478027	-0.029053	0.517142	0.424555	-0.600401	0.437990
62001		0.017620	-0.346896	0.821072	-0.395560	0.327037	0.325763	-0.837891	-0.481934	-0.041260	0.519821	0.417742	-0.602201	0.438899
62002		-0.292851	-0.909186	0.291374	-0.250530	0.467820	0.459245	-0.815918	-0.456543	-0.051270	0.521996	0.410117	-0.602909	0.442521
62003		2.881941	0.197316	0.019873	0.591152	0.126739	0.777920	-0.801758	-0.442383	-0.056396	0.515397	0.407508	-0.602694	0.452839
62004		15.949768	-5.923519	-2.849955	0.490193	0.344853	1.673296	-0.799072	-0.401123	-0.068604	0.505873	0.395927	-0.606150	0.468953
62005		31.106411	-4.639197	-1.645185	0.615679	0.326915	2.010757	-0.788818	-0.365234	-0.095459	0.493309	0.382444	-0.610294	0.487774
62006		34.647847	-2.408172	-0.809051	-0.699997	0.003511	0.867072	-0.803955	-0.348145	-0.106934	0.491318	0.371370	-0.618711	0.487737
62007		33.580657	-3.021731	-1.602709	-1.030559	0.043726	-0.599415	-0.822266	-0.356689	-0.115723	0.500013	0.369286	-0.621958	0.476217
62008		26.343628	-5.141833	-2.582296	-0.405629	-0.144439	-1.690337	-0.834717	-0.388672	-0.117432	0.510683	0.380581	-0.617412	0.461695
62009		16.358804	-2.026848	-0.767094	0.725170	-0.285631	-1.891480	-0.853271	-0.443604	-0.093750	0.515814	0.401171	-0.605996	0.453615
62010		6.520625	1.658638	-0.372203	-0.110050	-0.380481	-1.414806	-0.882324	-0.488037	-0.072510	0.521392	0.413196	-0.601964	0.441654
62011		-3.019840	-0.900537	0.088785	-1.387589	-0.314614	-0.958556	-0.896729	-0.500488	-0.067627	0.531250	0.413063	-0.606590	0.423322
62012		-1.221175	-6.377019	-0.089472	-0.299217	-0.324671	-0.399043	-0.895996	-0.512451	-0.055664	0.532347	0.415821	-0.608284	0.416761
62013		1.646631	-5.048936	0.933922	0.825732	0.097108	0.238136	-0.897949	-0.515381	-0.046387	0.527454	0.418956	-0.604586	0.425139
62014		-0.556465	1.346351	-2.234048	1.070450	-0.426211	0.081154	-0.880371	-0.522705	-0.020508	0.518079	0.427591	-0.602117	0.431526
62015		0.584628	2.308595	-1.137210	0.924096	-0.307466	-0.103810	-0.877441	-0.521240	0.001953	0.511284	0.435953	-0.598580	0.436160
62016		0.202275	0.936096	2.588750	0.137226	-0.048741	0.004474	-0.852051	-0.515869	0.000732	0.510079	0.437038	-0.598225	0.436971
62017		-0.349327	0.283196	0.411140	0.021030	0.004232	0.146704	-0.841553	-0.515625	0.002686	0.509121	0.436038	-0.598926	0.438126
62018		-0.054224	0.903945	-0.326265	0.263457	0.315871	0.302421	-0.840088	-0.508057	0.000732	0.508286	0.433732	-0.597125	0.443806
62019		-0.075015	0.704461	0.188684	0.086944	0.288184	0.427900	-0.821045	-0.500977	-0.005371	0.507433	0.429569	-0.597091	0.448848
62020		0.410177	1.508341	1.356754	-0.020193	0.130612	0.534236	-0.797607	-0.490967	-0.006592	0.505251	0.424940	-0.599099	0.453019
62021		7.122433	0.788448	0.198472	-0.291190	0.460166	0.510309	-0.787109	-0.471924	-0.032471	0.506925	0.417087	-0.600248	0.456910
62022		21.784716	-3.474228	-3.220958	-0.605933	0.584682	1.064240	-0.784180	-0.452148	-0.075439	0.508297	0.401786	-0.605545	0.462081
62023		31.425365	-8.271124	-4.130648	0.098724	0.066857	0.899749	-0.787109	-0.433594	-0.102539	0.503054	0.395110	-0.609114	0.468833
62024		39.077988	-9.325209	-2.304674	0.183910	-0.190842	0.448078	-0.789795	-0.432617	-0.103027	0.498032	0.393880	-0.611530	0.472074
62025		35.646489	-1.004865	-0.342068	-0.507959	0.033858	-0.547518	-0.804932	-0.444580	-0.101562	0.503974	0.394602	-0.611687	0.464907
62026		27.737966	-1.769563	-0.888376	-1.162337	-0.024596	-1.372942	-0.814941	-0.474365	-0.103516	0.517346	0.397739	-0.611757	0.447113
62027		15.195203	-5.946543	-1.212972	-0.238836	-0.051709	-1.635132	-0.838623	-0.516846	-0.090820	0.527117	0.408861	-0.605225	0.434378
62028		3.442863	1.882601	-1.260747	-0.222556	-0.116425	-1.079882	-0.861572	-0.538574	-0.064453	0.533035	0.416261	-0.601577	0.425095
62029		-1.514671	0.973367	-1.141210	-0.828941	-0.429533	-0.223436	-0.864502	-0.540527	-0.048340	0.534972	0.414992	-0.607458	0.415429
62030		0.913715	-4.839158	0.005584	0.748187	-0.279440	0.411513	-0.873779	-0.526123	-0.029297	0.526612	0.418454	-0.607470	0.422559
62031		1.945680	-0.539955	0.927328	1.124172	0.231083	0.716540	-0.881592	-0.510010	-0.023926	0.518509	0.419180	-0.603676	0.437048
62032		0.303601	5.740426	0.414319	0.143767	0.043372	0.028016	-0.888184	-0.505859	-0.026611	0.517843	0.419667	-0.602784	0.438599
62033		0.258240	0.161509	0.326268	-0.628319	0.046085	-0.301680	-0.875000	-0.506348	-0.038818	0.523052	0.417591	-0.604369	0.432173
62034		-0.194302	-2.107575	-0.435820	-0.557265	0.159495	-0.203603	-0.866699	-0.502930	-0.046875	0.528191	0.414586	-0.605305	0.427480
62035		-0.259082	-1.013769	-0.053196	-0.143826	0.195904	-0.064264	-0.869385	-0.507568	-0.055176	0.530699	0.413047	-0.604494	0.427011
62036		-0.487910	-0.483819	0.291385	-0.074462	0.133564	0.097899	-0.856934	-0.509277	-0.046631	0.531502	0.411081	-0.604552	0.427826
62037		0.185141	-0.848430	-0.281955	-0.080637	-0.113605	0.197960	-0.839600	-0.500488	-0.042969	0.529891	0.409691	-0.606759	0.428033
62038		0.373700	-0.352156	-1.578812	-0.073542	-0.060351	0.356351	-0.820557	-0.486084	-0.042969	0.527743	0.406924	-0.609333	0.429666
62039		1.458925	0.180822	-0.338066	0.243106	0.211729	0.735652	-0.808594	-0.480225	-0.042725	0.523893	0.401998	-0.610229	0.437668
62040		13.134250	-2.524545	0.849516	0.577999	0.571624	1.403230	-0.783203	-0.440674	-0.044922	0.517144	0.392324	-0.609994	0.454479
62041		17.344994	6.402063	-0.825601	0.132183	0.406380	1.182604	-0.773193	-0.422119	-0.065674	0.512785	0.381723	-0.612420	0.465060
62042		22.170928	-4.805217	-4.312420	-1.156324	-0.339027	0.717838	-0.774414	-0.414551	-0.080811	0.511433	0.370648	-0.624730	0.459097
62043		29.798216	-23.070920	-4.390861	0.884818	-0.228561	1.335162	-0.783203	-0.385010	-0.067383	0.497763	0.367027	-0.627267	0.473350
62044		20.196368	5.745100	2.526126	3.192686	0.311830	1.022299	-0.782959	-0.365723	-0.050781	0.479046	0.376612	-0.610674	0.505723
62045		13.252010	10.180751	0.594840	-1.697907	-0.267851	-0.640582	-0.785156	-0.382568	-0.057129	0.488887	0.372848	-0.619924	0.487512
62046		12.389745	-10.958847	-5.405799	-1.768199	-0.607760	-0.995587	-0.783691	-0.395264	-0.057129	0.498293	0.373252	-0.629643	0.464691
62047		10.570908	-5.717224	-1.276534	1.248169	-0.275475	-1.040672	-0.772949	-0.421143	-0.033203	0.496220	0.390649	-0.619224	0.466605
62048		8.262737	3.668140	1.638926	1.017270	-0.153233	-1.142213	-0.759277	-0.437988	-0.022217	0.496614	0.406535	-0.608656	0.466520
62049		7.060250	2.050161	0.728298	-0.840359	-0.120620	-1.037096	-0.759277	-0.460938	-0.034180	0.505923	0.409773	-0.609049	0.452975
62050		7.386280	-1.648312	-1.277323	-1.033711	0.108681	-0.715225	-0.748291	-0.463135	-0.043701	0.516013	0.407935	-0.610570	0.441050
62051		7.880391	-3.421915	-1.919853	-0.419988	0.254485	-0.343521	-0.756836	-0.472656	-0.055664	0.521957	0.406352	-0.609570	0.436880
62052		8.661683	-4.096697	-0.326441	0.225102	0.229600	-0.021322	-0.744873	-0.478027	-0.052490	0.522656	0.406642	-0.606828	0.439583
62053		9.311259	-2.264232	1.634394	0.816431	-0.207293	0.243154	-0.759033	-0.467285	-0.047363	0.515544	0.411163	-0.604991	0.446257
62054		10.364619	-1.149350	-0.413952	0.750956	-0.166539	0.206009	-0.754150	-0.465088	-0.031006	0.509227	0.415273	-0.602990	0.452371
62055		10.129275	-0.990351	-0.597823	0.196794	-0.147761	0.048716	-0.758057	-0.458496	-0.027100	0.506789	0.416913	-0.603153	0.453382
62056		9.738546	-0.915122	0.495453	-0.259754	-0.285569	-0.212873	-0.758301	-0.463379	-0.023438	0.507163	0.418405	-0.605400	0.448568
62057		9.039714	-1.041427	0.076204	-0.126073	-0.190176	-0.458034	-0.752930	-0.469238	-0.018066	0.508917	0.422053	-0.604984	0.443700
62058		9.041336	-0.032631	0.600684	-0.153228	-0.089159	-0.584991	-0.749756	-0.482178	-0.022461	0.512256	0.425907	-0.603372	0.438336
62059		9.118189	-0.212848	-0.533217	-0.568672	-0.165498	-0.652050	-0.740723	-0.496582	-0.019043	0.517553	0.427990	-0.604110	0.428969
62060		9.871558	-0.620789	-0.547674	-0.575496	-0.033445	-0.688720	-0.728516	-0.509033	-0.020752	0.524018	0.429545	-0.603758	0.419968
62061		9.823091	-1.185921	-0.750690	-0.584214	0.168167	-0.646568	-0.725098	-0.523193	-0.031982	0.531764	0.429614	-0.602281	0.412210
62062		9.158729	-1.996340	-1.507879	-0.328457	0.233978	-0.496183	-0.708984	-0.531738	-0.043457	0.537808	0.429871	-0.599799	0.407695
62063		9.054662	-1.837550	-2.078183	-0.147182	0.167263	-0.390315	-0.708008	-0.541504	-0.046143	0.541812	0.430872	-0.597384	0.404873
62064		9.677391	-0.898465	-1.409635	0.121232	0.044274	-0.347750	-0.699707	-0.546875	-0.044678	0.543221	0.433983	-0.594662	0.403667
62065		10.456356	0.056459	-0.611089	0.307482	0.031664	-0.377697	-0.699707	-0.553223	-0.037598	0.543662	0.438632	-0.590908	0.403560
62066		9.749074	0.105999	-0.577048	0.207912	-0.075495	-0.410294	-0.697510	-0.560547	-0.038330	0.544003	0.443371	-0.588185	0.401897
62067		9.549146	0.287759	-0.647206	-0.069424	-0.058336	-0.389998	-0.690918	-0.582520	-0.040039	0.545890	0.445976	-0.586833	0.398417
62068		10.588895	1.098804	-0.682138	-0.073246	0.078060	-0.409051	-0.684570	-0.585205	-0.040283	0.548879	0.448005	-0.584448	0.395531
62069		9.579156	0.245632	-1.472245	-0.004808	0.078758	-0.374002	-0.685059	-0.601318	-0.042236	0.551304	0.450232	-0.581901	0.393378
62070		9.320308	0.207451	-2.334227	0.264938	-0.198983	-0.297194	-0.677979	-0.599854	-0.037109	0.549798	0.455114	-0.580361	0.392141
62071		9.716745	0.079306	-1.072212	0.141936	-0.256818	-0.133994	-0.678711	-0.612793	-0.018799	0.547759	0.458237	-0.580744	0.390787
62072		10.080047	0.386058	-0.773185	0.144981	-0.091917	-0.006879	-0.686523	-0.625488	-0.026123	0.546274	0.459649	-0.580705	0.391267
62073		9.985806	0.982149	-0.964271	0.139253	0.054877	-0.007694	-0.682617	-0.623535	-0.016602	0.545849	0.460367	-0.579635	0.392599
62074		9.528804	1.245988	-1.226277	0.071179	0.059893	-0.035501	-0.690918	-0.622559	-0.024902	0.546027	0.460737	-0.578753	0.393219
62075		9.484498	1.139462	-1.236725	-0.016389	-0.041796	-0.050561	-0.693359	-0.633789	-0.019531	0.546008	0.461176	-0.578862	0.392570
62076		9.584453	0.686150	-1.214942	-0.006103	-0.076635	-0.083579	-0.697754	-0.642578	-0.024170	0.545834	0.462102	-0.578962	0.391573
62077		9.749501	0.581479	-1.099176	0.086225	-0.068276	-0.094900	-0.693359	-0.643555	-0.033447	0.545244	0.463695	-0.578490	0.391211
62078		9.885396	0.812919	-0.898244	0.064684	0.002937	-0.060217	-0.700439	-0.650879	-0.032471	0.545131	0.464529	-0.577847	0.391329
62079		9.753177	1.084174	-1.074817	0.042940	0.027248	-0.030641	-0.706055	-0.654785	-0.037598	0.545174	0.464883	-0.577314	0.391634
62080		9.687235	1.168698	-1.095315	0.036019	-0.000449	-0.027542	-0.723389	-0.656494	-0.040771	0.545046	0.465298	-0.577027	0.391743
62081		9.689733	0.915009	-1.044014	0.019800	-0.000153	-0.025566	-0.733398	-0.656982	-0.055664	0.545007	0.465581	-0.576834	0.391744
62082		9.686526	0.513397	-1.100926	-0.017135	0.021342	-0.006500	-0.736816	-0.655518	-0.061523	0.545257	0.465354	-0.576801	0.391716
62083		9.733717	0.583822	-1.128427	0.019967	0.033860	-0.004681	-0.742188	-0.648193	-0.068115	0.545376	0.465299	-0.576516	0.392035
62084		9.737380	0.803284	-1.048713	0.040216	0.020686	-0.027097	-0.750244	-0.642334	-0.062744	0.545398	0.465598	-0.576100	0.392261
62085		9.677557	0.821189	-1.043324	0.051209	0.017845	-0.055497	-0.750488	-0.650146	-0.072021	0.545473	0.466193	-0.575481	0.392357
62086		9.729840	0.871643	-1.018004	0.051144	0.021005	-0.052359	-0.747559	-0.650146	-0.071289	0.545561	0.466742	-0.574867	0.392484
62087		9.782025	0.909320	-1.014135	0.018586	0.020019	-0.022245	-0.750732	-0.641113	-0.085449	0.545683	0.466857	-0.574594	0.392577
62088		9.721576	0.880134	-1.005395	0.005719	0.008702	0.003673	-0.759033	-0.642090	-0.088867	0.545684	0.466736	-0.574627	0.392671
62089		9.708657	0.781668	-0.816830	0.023202	-0.007695	0.001537	-0.761963	-0.638428	-0.084229	0.545478	0.466827	-0.574676	0.392777
62090		9.761498	0.862067	-0.854339	0.019741	0.025714	-0.005513	-0.760010	-0.642090	-0.086426	0.545564	0.466784	-0.574470	0.393009
62091		9.745620	0.902273	-0.897509	-0.023152	0.035099	-0.010446	-0.771973	-0.645996	-0.094971	0.545994	0.466437	-0.574383	0.392953
62092		9.660372	0.783525	-0.953458	-0.046842	0.021014	-0.018830	-0.767578	-0.625977	-0.095703	0.546506	0.466050	-0.574465	0.392580
62093		9.709071	0.718774	-0.950857	-0.039794	0.003636	-0.019759	-0.762939	-0.629883	-0.092285	0.546860	0.465799	-0.574627	0.392147
62094		9.787797	0.595611	-0.792414	-0.029333	0.000514	-0.025877	-0.770752	-0.633789	-0.091797	0.547156	0.465684	-0.574720	0.391733
62095		9.846324	0.645934	-0.885961	-0.013888	0.025470	-0.023338	-0.774658	-0.630371	-0.098877	0.547529	0.465536	-0.574580	0.391595
62096		9.744081	0.681494	-0.863943	-0.011475	0.033860	-0.018705	-0.770264	-0.620117	-0.105469	0.547929	0.465322	-0.574402	0.391549
62097		9.650664	0.661758	-0.956957	-0.000090	0.033179	-0.016538	-0.776123	-0.631836	-0.099854	0.548253	0.465168	-0.574191	0.391590
62098		9.676235	0.787714	-0.907620	0.023176	0.017891	-0.013545	-0.770996	-0.630371	-0.101807	0.548312	0.465233	-0.573982	0.391736
62099		9.722639	0.738371	-0.847616	0.018212	0.015550	-0.018419	-0.771484	-0.632080	-0.109131	0.548408	0.465310	-0.573786	0.391797
62100		9.702423	0.739333	-0.876745	0.030790	0.022200	-0.016661	-0.763428	-0.620361	-0.096680	0.548474	0.465421	-0.573499	0.391993
62101		9.715049	0.852645	-0.797084	0.041579	0.023190	-0.021544	-0.770020	-0.627930	-0.096436	0.548501	0.465647	-0.573114	0.392250
62102		9.746995	0.974360	-0.833571	0.033841	0.020563	-0.026529	-0.769775	-0.627441	-0.099854	0.548578	0.465869	-0.572756	0.392402
62103		9.753675	0.881476	-0.814507	0.010741	0.010666	-0.023910	-0.765869	-0.635986	-0.097656	0.548709	0.465959	-0.572596	0.392345
62104		9.710775	0.779438	-0.821505	-0.006656	0.018473	-0.019528	-0.762695	-0.633301	-0.091064	0.548972	0.465864	-0.572490	0.392244
62105		9.678401	0.827345	-0.835305	0.021127	0.021734	-0.013473	-0.763672	-0.627441	-0.103760	0.549063	0.465908	-0.572255	0.392408
62106		9.663324	0.884744	-0.780677	0.035315	0.020045	-0.008006	-0.771729	-0.632568	-0.102051	0.549042	0.466004	-0.572004	0.392689
62107		9.756546	0.913859	-0.824686	0.016723	0.012949	0.002754	-0.760742	-0.644775	-0.094482	0.549024	0.465933	-0.571954	0.392871
62108		9.769462	0.893708	-0.770428	-0.015470	0.011199	0.007822	-0.760986	-0.633545	-0.096680	0.549148	0.465624	-0.572095	0.392858
62109		9.687822	0.838646	-0.804380	-0.021805	0.011821	0.000142	-0.769043	-0.633057	-0.104980	0.549355	0.465320	-0.572220	0.392747
62110		9.687269	0.808672	-0.775103	-0.008897	0.012141	-0.003507	-0.770508	-0.620850	-0.101807	0.549512	0.465121	-0.572265	0.392698
62111		9.724378	0.786552	-0.757721	0.007106	0.015050	-0.004907	-0.756836	-0.629150	-0.101318	0.549603	0.465029	-0.572202	0.392772
62112		9.761178	0.825100	-0.814538	-0.004809	0.009488	0.003932	-0.765625	-0.628662	-0.099609	0.549678	0.464822	-0.572283	0.392793
62113		9.740156	0.819045	-0.810545	-0.021190	0.006205	0.013996	-0.770996	-0.628174	-0.098389	0.549774	0.464449	-0.572525	0.392748
62114		9.724704	0.792718	-0.785857	-0.023976	0.003658	0.012561	-0.761719	-0.632324	-0.104248	0.549875	0.464080	-0.572788	0.392660
62115		9.710534	0.776716	-0.774745	-0.032496	0.001969	0.016782	-0.763428	-0.629883	-0.104736	0.549994	0.463627	-0.573132	0.392526
62116		9.718711	0.714800	-0.761484	-0.034693	0.005347	0.016457	-0.770508	-0.622070	-0.104980	0.550152	0.463145	-0.573460	0.392394
62117		9.720185	0.694563	-0.839270	-0.020801	0.002603	0.012128	-0.766357	-0.624512	-0.102783	0.550232	0.462801	-0.573715	0.392315
62118		9.730454	0.703294	-0.800395	-0.010643	-0.003671	0.006639	-0.765625	-0.624023	-0.108643	0.550233	0.462600	-0.573929	0.392239
62119		9.769655	0.739044	-0.781936	-0.008474	-0.002605	0.002414	-0.766846	-0.626709	-0.107666	0.550253	0.462434	-0.574104	0.392150
62120		9.738307	0.662589	-0.745616	-0.016324	-0.002075	-0.002139	-0.770752	-0.629883	-0.109619	0.550343	0.462246	-0.574286	0.391978
62121		9.703953	0.688533	-0.829985	-0.013454	-0.000368	0.004691	-0.770996	-0.630859	-0.113525	0.550397	0.462019	-0.574482	0.391883
62122		9.769301	0.667179	-0.787484	-0.015407	0.000035	0.018296	-0.763672	-0.626221	-0.104248	0.550400	0.461676	-0.574765	0.391867
62123		9.771750	0.614207	-0.819007	-0.000111	-0.000240	0.021200	-0.765381	-0.626709	-0.106201	0.550292	0.461428	-0.574985	0.391988
62124		9.747510	0.685269	-0.833598	0.012622	-0.001784	0.013130	-0.760254	-0.621582	-0.107422	0.550141	0.461331	-0.575107	0.392136
62125		9.718817	0.765010	-0.778288	0.011909	-0.005084	0.005709	-0.774414	-0.626709	-0.106934	0.550007	0.461297	-0.575214	0.392206
62126		9.710438	0.743395	-0.819005	0.012626	-0.006838	0.003724	-0.772217	-0.627441	-0.097412	0.549867	0.461291	-0.575318	0.392258
62127		9.735197	0.708071	-0.867316	0.017684	-0.005859	0.007243	-0.770996	-0.631104	-0.106689	0.549681	0.461299	-0.575403	0.392385
62128		9.743909	0.696954	-0.839221	0.011753	-0.006002	0.005762	-0.770508	-0.627197	-0.091797	0.549540	0.461269	-0.575516	0.392451
62129		9.736760	0.733328	-0.839386	0.015076	-0.002949	0.008395	-0.764404	-0.628662	-0.106689	0.549381	0.461242	-0.575596	0.392588
62130		9.740180	0.693418	-0.885308	0.013924	-0.005335	0.006494	-0.767822	-0.617188	-0.104004	0.549230	0.461218	-0.575698	0.392678
62131		9.715705	0.686287	-0.871272	0.018570	-0.002169	0.007850	-0.769531	-0.626953	-0.101318	0.549068	0.461201	-0.575763	0.392829
62132		9.698648	0.730260	-0.865955	0.026919	-0.004073	0.007318	-0.775879	-0.621826	-0.096436	0.548844	0.461259	-0.575794	0.393029
62133		9.748338	0.736600	-0.841600	0.028080	-0.008938	0.005697	-0.766357	-0.618164	-0.109375	0.548584	0.461363	-0.575841	0.393201
62134		9.768622	0.698481	-0.842082	0.016238	-0.009605	0.007695	-0.772461	-0.622314	-0.103760	0.548387	0.461362	-0.575972	0.393285
62135		9.763538	0.695492	-0.852768	0.015942	-0.007376	0.008201	-0.763184	-0.616699	-0.104736	0.548201	0.461350	-0.576088	0.393389
62136		9.701432	0.642766	-0.858340	0.021053	-0.004271	0.001313	-0.762451	-0.614502	-0.102539	0.548043	0.461406	-0.576118	0.393499
62137		9.724784	0.607634	-0.870906	0.024081	-0.004063	-0.004951	-0.763672	-0.618652	-0.099365	0.547899	0.461528	-0.576095	0.393590
62138		9.697365	0.643229	-0.904273	0.034122	-0.000802	-0.001077	-0.767334	-0.622803	-0.098389	0.547699	0.461678	-0.576020	0.393802
62139		9.740249	0.659680	-0.886963	0.031790	-0.002773	0.003211	-0.767578	-0.611816	-0.101807	0.547476	0.461793	-0.575993	0.394017
62140		9.753360	0.660792	-0.885809	0.032415	-0.009950	0.001331	-0.764893	-0.612305	-0.101074	0.547211	0.461954	-0.576007	0.394176
62141		9.752813	0.679923	-0.900595	0.032990	-0.000450	0.000581	-0.772217	-0.618896	-0.097412	0.547015	0.462078	-0.575948	0.394389
62142		9.731144	0.704448	-0.890370	0.029947	-0.000274	0.001889	-0.766846	-0.612061	-0.094971	0.546829	0.462175	-0.575906	0.394594
62143		9.683078	0.723429	-0.886922	0.020142	-0.003815	0.008320	-0.766113	-0.614258	-0.093262	0.546640	0.462178	-0.575975	0.394752
62144		9.729780	0.679734	-0.901445	0.013586	-0.005270	0.012901	-0.775879	-0.616943	-0.093750	0.546456	0.462112	-0.576109	0.394888
62145		9.760024	0.672195	-0.874379	0.014518	-0.000337	0.005804	-0.760986	-0.621826	-0.097656	0.546338	0.462077	-0.576166	0.395009
62146		9.751759	0.660260	-0.891169	0.018411	0.003060	-0.002109	-0.758301	-0.624268	-0.090088	0.546262	0.462110	-0.576134	0.395123
62147		9.737619	0.627488	-0.868252	0.009716	-0.002256	-0.001365	-0.766602	-0.615723	-0.094971	0.546189	0.462112	-0.576178	0.395156
62148		9.718572	0.624286	-0.937680	0.008527	-0.004464	0.008467	-0.770020	-0.615234	-0.090332	0.546063	0.462036	-0.576310	0.395227
62149		9.725889	0.592236	-0.917996	0.004777	-0.006946	0.016326	-0.776855	-0.616455	-0.091064	0.545898	0.461895	-0.576519	0.395315
62150		9.757321	0.622484	-0.895509	0.002721	-0.002084	0.022687	-0.767090	-0.620850	-0.091309	0.545750	0.461668	-0.576743	0.395458
62151		9.753165	0.605948	-0.869148	-0.004004	-0.000500	0.020513	-0.767334	-0.619385	-0.096680	0.545662	0.461408	-0.576972	0.395548
62152		9.722543	0.646471	-0.922656	0.004493	0.005189	0.016662	-0.768066	-0.614990	-0.088379	0.545590	0.461198	-0.577103	0.395701
62153		9.703381	0.638691	-0.898569	0.012594	-0.000425	0.012653	-0.766602	-0.624512	-0.091309	0.545444	0.461108	-0.577204	0.395861
62154		9.736447	0.689629	-0.866939	0.008065	-0.003901	0.018947	-0.765625	-0.625000	-0.090332	0.545270	0.460961	-0.577384	0.396009
62155		9.766272	0.690194	-0.874965	-0.007879	-0.004441	0.021673	-0.771729	-0.613770	-0.102783	0.545169	0.460689	-0.577661	0.396059
62156		9.781193	0.697716	-0.885528	-0.018182	-0.001765	0.023650	-0.766113	-0.618408	-0.091553	0.545149	0.460298	-0.578001	0.396047
62157		9.729365	0.642775	-0.872486	-0.027387	-0.003037	0.025828	-0.771484	-0.613525	-0.092529	0.545150	0.459853	-0.578392	0.395991
62158		9.735328	0.558886	-0.869573	-0.039850	-0.006009	0.024899	-0.769043	-0.631836	-0.104980	0.545207	0.459341	-0.578864	0.395819
62159		9.730442	0.484787	-0.918700	-0.029809	-0.005602	0.020693	-0.771973	-0.617432	-0.097900	0.545240	0.458920	-0.579257	0.395684
62160		9.731905	0.520906	-0.923239	-0.008432	0.001235	0.014985	-0.774902	-0.614746	-0.095947	0.545220	0.458654	-0.579469	0.395710
62161		9.727092	0.528296	-0.910217	0.011529	-0.006205	-0.004084	-0.770020	-0.618896	-0.093506	0.545124	0.458700	-0.579523	0.395710
62162		9.747773	0.641390	-0.899297	0.007932	-0.001549	-0.001778	-0.768066	-0.622559	-0.090576	0.545069	0.458688	-0.579571	0.395730
62163		9.741996	0.560406	-0.878220	-0.002006	-0.005111	0.001992	-0.770508	-0.610352	-0.096436	0.545025	0.458604	-0.579709	0.395686
62164		9.702148	0.513383	-0.919278	0.006270	0.001121	0.006763	-0.768066	-0.625488	-0.095459	0.544960	0.458497	-0.579803	0.395762
62165		9.751292	0.550066	-0.940220	0.012142	0.006215	0.010429	-0.774658	-0.622314	-0.097412	0.544880	0.458388	-0.579844	0.395939
62166		9.778492	0.571239	-0.888755	0.000936	0.003800	0.007787	-0.772949	-0.623779	-0.097412	0.544861	0.458228	-0.579947	0.395999
62167		9.727086	0.570711	-0.914423	-0.007047	-0.000983	0.007868	-0.771484	-0.612793	-0.097656	0.544852	0.458038	-0.580121	0.395976
62168		9.712014	0.538204	-0.948277	-0.008700	0.000559	0.000208	-0.780029	-0.623535	-0.097412	0.544901	0.457879	-0.580256	0.395894
62169		9.717400	0.519268	-0.926591	0.005400	0.002248	-0.003364	-0.775635	-0.620850	-0.098389	0.544900	0.457838	-0.580284	0.395902
62170		9.722999	0.480997	-0.892568	0.014090	-0.003780	-0.007996	-0.779541	-0.615723	-0.095947	0.544829	0.457919	-0.580285	0.395906
62171		9.748459	0.547118	-0.925143	0.024489	0.006197	-0.006585	-0.773682	-0.615967	-0.089600	0.544760	0.458009	-0.580177	0.396053
62172		9.768020	0.620080	-0.908499	0.019402	0.000414	-0.000555	-0.786377	-0.627686	-0.098877	0.544644	0.458061	-0.580160	0.396179
62173		9.750274	0.606210	-0.885289	0.005433	-0.000844	0.000724	-0.780273	-0.619385	-0.099609	0.544602	0.458003	-0.580234	0.396195
62174		9.716269	0.530549	-0.870184	-0.014022	-0.005805	-0.001341	-0.777588	-0.617676	-0.099854	0.544646	0.457850	-0.580429	0.396026
62175		9.712648	0.511753	-0.900408	-0.001754	0.006959	-0.005910	-0.782715	-0.630371	-0.101318	0.544735	0.457751	-0.580449	0.395988
62176		9.740484	0.528687	-0.906438	0.012057	0.000045	-0.010626	-0.773438	-0.617920	-0.094482	0.544718	0.457819	-0.580417	0.395980
62177		9.739954	0.551397	-0.920065	0.012967	-0.003519	-0.013534	-0.781006	-0.629150	-0.100830	0.544679	0.457935	-0.580387	0.395944
62178		9.745334	0.543959	-0.878018	-0.002792	-0.006214	-0.006771	-0.781250	-0.623291	-0.097168	0.544683	0.457903	-0.580494	0.395818
62179		9.749214	0.516210	-0.843751	-0.014076	0.002637	-0.008207	-0.778564	-0.627686	-0.098145	0.544819	0.457763	-0.580589	0.395654
62180		9.725659	0.505095	-0.883890	-0.001187	0.010124	-0.008373	-0.777344	-0.623291	-0.096436	0.544937	0.457677	-0.580565	0.395627
62181		9.734964	0.578486	-0.883098	0.006925	0.000929	-0.010536	-0.768799	-0.618896	-0.101562	0.544951	0.457707	-0.580551	0.395592
62182		9.749712	0.573780	-0.880755	0.000864	-0.005949	-0.011415	-0.780029	-0.622314	-0.095215	0.544958	0.457731	-0.580613	0.395462
62183		9.751322	0.576389	-0.861071	0.000999	-0.010884	-0.010928	-0.778809	-0.623291	-0.099121	0.544921	0.457783	-0.580708	0.395315
62184		9.758120	0.579760	-0.831679	-0.008386	0.004916	-0.010758	-0.772461	-0.616211	-0.104004	0.545055	0.457687	-0.580744	0.395187
62185		9.734194	0.561126	-0.894189	-0.011823	0.003976	-0.021931	-0.774414	-0.619873	-0.097168	0.545262	0.457647	-0.580745	0.394948
62186		9.731930	0.527465	-0.946483	-0.007803	-0.002377	-0.019823	-0.768799	-0.620361	-0.095215	0.545382	0.457660	-0.580774	0.394724
62187		9.733148	0.451813	-0.895550	0.007971	-0.007186	-0.017919	-0.774902	-0.619629	-0.090820	0.545366	0.457796	-0.580764	0.394603
62188		9.766311	0.560815	-0.903439	0.016614	0.000455	-0.012831	-0.766846	-0.623535	-0.101318	0.545326	0.457918	-0.580689	0.394628
62189		9.795111	0.657843	-0.883422	0.000727	0.003043	-0.011516	-0.776367	-0.624512	-0.096680	0.545402	0.457901	-0.580684	0.394549
62190		9.701576	0.585294	-0.888302	-0.005453	-0.001738	-0.020950	-0.770752	-0.620850	-0.102783	0.545519	0.457937	-0.580689	0.394339
62191		9.675032	0.556587	-0.903574	-0.000823	0.001792	-0.024572	-0.775635	-0.625000	-0.102783	0.545660	0.458005	-0.580631	0.394150
62192		9.677105	0.492680	-0.920798	0.013504	0.005519	-0.016533	-0.769043	-0.624756	-0.091309	0.545705	0.458094	-0.580523	0.394142
62193		9.758467	0.550822	-0.941405	0.019590	-0.006433	-0.010862	-0.770020	-0.625000	-0.105225	0.545589	0.458263	-0.580484	0.394165
62194		9.792686	0.598041	-0.911398	0.021421	-0.008457	-0.007295	-0.768311	-0.618652	-0.098145	0.545447	0.458406	-0.580486	0.394193
62195		9.758535	0.582768	-0.878652	0.019166	0.003005	-0.009547	-0.767822	-0.625488	-0.081543	0.545403	0.458499	-0.580405	0.394263
62196		9.751214	0.614036	-0.898471	0.007754	0.009982	-0.012731	-0.760498	-0.629395	-0.094482	0.545470	0.458537	-0.580290	0.394296
62197		9.666779	0.602232	-0.924395	0.010577	0.004326	-0.016592	-0.765137	-0.623047	-0.097168	0.545519	0.458635	-0.580182	0.394273
62198		9.715621	0.625555	-0.933495	0.022532	-0.004968	-0.020277	-0.763184	-0.619873	-0.094238	0.545452	0.458874	-0.580072	0.394251
62199		9.754626	0.676567	-0.895119	0.019600	-0.008428	-0.021639	-0.769531	-0.624756	-0.085693	0.545379	0.459122	-0.579992	0.394181
62200		9.752963	0.680945	-0.861723	0.002051	-0.004719	-0.023029	-0.764893	-0.626953	-0.096191	0.545428	0.459256	-0.579955	0.394010
62201		9.762335	0.669101	-0.889276	-0.011020	0.001240	-0.023028	-0.763916	-0.629395	-0.094238	0.545613	0.459259	-0.579948	0.393762
62202		9.730463	0.579615	-0.894957	-0.011093	-0.000113	-0.022533	-0.761475	-0.621094	-0.089844	0.545783	0.459270	-0.579948	0.393513
62203		9.707135	0.541089	-0.945091	0.005435	0.003401	-0.015574	-0.767334	-0.634521	-0.087646	0.545841	0.459327	-0.579886	0.393457
62204		9.741855	0.569571	-0.899844	0.011417	-0.001315	-0.009078	-0.767578	-0.630371	-0.088623	0.545797	0.459416	-0.579848	0.393469
62205		9.748004	0.583237	-0.905237	0.010897	-0.000986	-0.012992	-0.760986	-0.623047	-0.091553	0.545778	0.459521	-0.579797	0.393450
62206		9.738085	0.654953	-0.917723	0.008692	0.000482	-0.019603	-0.769531	-0.624756	-0.091309	0.545820	0.459641	-0.579716	0.393370
62207		9.731819	0.619172	-0.921941	0.005874	-0.002564	-0.023254	-0.766357	-0.628174	-0.093018	0.545872	0.459779	-0.579655	0.393226
62208		9.721530	0.533235	-0.930288	0.013673	-0.000440	-0.022356	-0.769531	-0.625488	-0.096436	0.545895	0.459955	-0.579542	0.393156
62209		9.734390	0.639238	-0.913748	0.028149	0.005120	-0.017110	-0.765625	-0.631836	-0.098633	0.545853	0.460152	-0.579362	0.393250
62210		9.715116	0.708043	-0.885429	0.025662	0.001760	-0.014988	-0.762451	-0.630371	-0.090576	0.545798	0.460338	-0.579219	0.393318
62211		9.734791	0.695474	-0.896798	0.013344	-0.005771	-0.015848	-0.768555	-0.629639	-0.083740	0.545750	0.460501	-0.579171	0.393264
62212		9.724173	0.638026	-0.896516	0.003891	0.000425	-0.020496	-0.763428	-0.632568	-0.097656	0.545810	0.460610	-0.579101	0.393158
62213		9.746234	0.638595	-0.955152	0.007435	0.003399	-0.024268	-0.763428	-0.627686	-0.077148	0.545918	0.460733	-0.578979	0.393041
62214		9.730297	0.631090	-0.909567	0.015137	0.000467	-0.028202	-0.766357	-0.631836	-0.087891	0.545939	0.460990	-0.578798	0.392978
62215		9.742996	0.630486	-0.928087	0.022434	0.003419	-0.028985	-0.762939	-0.632324	-0.079590	0.545965	0.461265	-0.578569	0.392956
62216		9.767269	0.660569	-0.899173	0.018859	0.003656	-0.022115	-0.761230	-0.631592	-0.091553	0.545964	0.461487	-0.578380	0.392975
62217		9.731844	0.737690	-0.930464	0.011987	0.006311	-0.013457	-0.760254	-0.624756	-0.090088	0.546005	0.461557	-0.578275	0.392991
62218		9.698462	0.694191	-0.904867	0.003337	-0.001320	-0.013993	-0.764893	-0.628174	-0.094971	0.546038	0.461603	-0.578271	0.392897
62219		9.714425	0.621909	-0.941188	0.005108	0.000589	-0.017242	-0.759521	-0.629395	-0.081543	0.546099	0.461664	-0.578234	0.392794
62220		9.674744	0.696798	-0.923956	0.021690	0.008656	-0.012210	-0.763916	-0.626709	-0.093750	0.546073	0.461802	-0.578059	0.392925
62221		9.724736	0.739397	-0.924068	0.021897	-0.003562	-0.015159	-0.760498	-0.624512	-0.086914	0.545996	0.461982	-0.577982	0.392934
62222		9.792126	0.746273	-0.910173	0.008555	-0.009896	-0.017089	-0.761475	-0.624268	-0.084229	0.545945	0.462133	-0.577992	0.392813
62223		9.780055	0.726856	-0.844694	-0.000721	-0.001711	-0.012832	-0.762451	-0.626465	-0.091064	0.545981	0.462154	-0.578014	0.392707
62224		9.722746	0.668809	-0.917031	0.003140	0.010548	-0.006088	-0.766846	-0.630615	-0.076904	0.546066	0.462076	-0.577981	0.392729
62225		9.690238	0.643829	-0.937866	0.009684	0.009878	-0.004777	-0.765625	-0.616211	-0.093506	0.546068	0.462079	-0.577900	0.392842
62226		9.725356	0.691597	-0.939771	0.017315	0.004765	-0.005477	-0.761475	-0.632080	-0.083252	0.546026	0.462092	-0.577873	0.392925
62227		9.730147	0.762833	-0.927934	0.012836	-0.005548	-0.003068	-0.768555	-0.636230	-0.083008	0.545908	0.462173	-0.577889	0.392969
62228		9.738772	0.745663	-0.921429	0.010951	-0.005849	-0.007936	-0.764893	-0.630615	-0.094482	0.545822	0.462277	-0.577891	0.392965
62229		9.745546	0.748523	-0.892261	-0.000315	-0.000657	-0.007560	-0.764160	-0.631348	-0.087402	0.545864	0.462236	-0.577944	0.392876
62230		9.723642	0.706153	-0.884955	0.000674	0.005744	-0.007989	-0.764160	-0.631104	-0.093994	0.545933	0.462196	-0.577929	0.392849
62231		9.698365	0.693337	-0.947453	0.001945	0.001880	-0.005105	-0.761230	-0.626709	-0.086914	0.545968	0.462144	-0.577964	0.392810
62232		9.709575	0.706089	-0.944354	-0.003075	-0.003453	0.000503	-0.766113	-0.629395	-0.086914	0.545947	0.462060	-0.578084	0.392762
62233		9.719071	0.668230	-0.923936	-0.000840	-0.004648	-0.002359	-0.762939	-0.632568	-0.092773	0.545917	0.462016	-0.578186	0.392704
62234		9.730692	0.721440	-0.925931	-0.003093	0.000004	-0.005884	-0.765869	-0.628174	-0.091309	0.545971	0.461954	-0.578244	0.392617
62235		9.763874	0.719749	-0.911531	-0.006742	-0.002204	-0.007501	-0.762939	-0.630859	-0.082764	0.546029	0.461881	-0.578339	0.392481
62236		9.729922	0.684854	-0.921785	-0.006609	-0.002130	-0.004836	-0.766113	-0.634277	-0.085693	0.546054	0.461827	-0.578418	0.392395
62237		9.715483	0.672736	-0.911877	-0.011762	-0.001191	-0.000236	-0.767090	-0.630859	-0.088623	0.546101	0.461693	-0.578545	0.392299
62238		9.729861	0.685722	-0.921779	-0.010398	0.001703	0.002015	-0.767578	-0.628418	-0.091553	0.546155	0.461521	-0.578674	0.392236
62239		9.741894	0.667942	-0.926754	-0.013106	-0.000355	0.002831	-0.764160	-0.630859	-0.090576	0.546212	0.461321	-0.578848	0.392136
62240		9.747668	0.639377	-0.926791	-0.011078	0.001096	-0.001836	-0.763672	-0.631836	-0.091553	0.546291	0.461177	-0.578958	0.392033
62241		9.711910	0.613222	-0.936505	-0.008496	-0.001825	-0.002955	-0.763672	-0.627930	-0.086426	0.546343	0.461074	-0.579066	0.391923
62242		9.737024	0.608977	-0.917040	-0.002295	-0.000758	-0.003389	-0.767822	-0.630615	-0.086182	0.546351	0.461020	-0.579132	0.391877
62243		9.741978	0.601152	-0.930595	0.006246	0.000971	-0.004953	-0.769287	-0.630615	-0.087891	0.546327	0.461028	-0.579136	0.391894
62244		9.753755	0.653398	-0.931266	0.005739	0.005611	0.003203	-0.757568	-0.625488	-0.094971	0.546305	0.460944	-0.579164	0.391984
62245		9.723751	0.676131	-0.914368	-0.001271	0.004467	0.003868	-0.772461	-0.624268	-0.085449	0.546339	0.460795	-0.579243	0.391994
62246		9.723849	0.685974	-0.891635	0.001276	0.002723	-0.004932	-0.764404	-0.627930	-0.090332	0.546347	0.460742	-0.579283	0.391986
62247		9.691162	0.671507	-0.892619	-0.004262	0.000214	-0.011419	-0.772461	-0.633301	-0.081299	0.546424	0.460718	-0.579312	0.391865
62248		9.709896	0.619078	-0.955038	0.000462	0.002043	-0.011449	-0.767822	-0.627441	-0.090332	0.546455	0.460750	-0.579285	0.391823
62249		9.721048	0.633381	-0.951386	0.003103	0.001073	-0.006316	-0.757812	-0.626709	-0.084229	0.546468	0.460727	-0.579311	0.391794
62250		9.756750	0.680190	-0.897717	-0.003185	0.000199	0.003154	-0.759766	-0.632812	-0.094482	0.546451	0.460636	-0.579392	0.391803
62251		9.730015	0.624692	-0.920961	-0.002410	0.002055	0.001991	-0.760254	-0.627441	-0.091309	0.546486	0.460525	-0.579460	0.391785
62252		9.725787	0.603823	-0.915477	0.010209	0.003231	-0.002521	-0.764160	-0.627197	-0.080078	0.546464	0.460525	-0.579441	0.391844
62253		9.695271	0.678486	-0.938699	0.016011	0.005522	-0.006925	-0.765137	-0.628174	-0.088379	0.546406	0.460620	-0.579334	0.391972
62254		9.717326	0.673746	-0.905012	0.018358	0.001278	-0.005691	-0.754639	-0.625732	-0.088379	0.546326	0.460712	-0.579272	0.392067
62255		9.757228	0.712607	-0.921915	0.013154	0.001706	-0.003323	-0.768799	-0.620361	-0.087891	0.546275	0.460761	-0.579230	0.392142
62256		9.739739	0.699813	-0.898020	0.005171	0.002187	-0.006027	-0.763428	-0.625244	-0.089111	0.546270	0.460731	-0.579260	0.392140
62257		9.731497	0.690191	-0.914434	0.001842	0.000864	-0.009561	-0.760010	-0.628174	-0.088135	0.546305	0.460731	-0.579267	0.392081
62258		9.713502	0.628996	-0.907932	0.003403	-0.000329	-0.009525	-0.769287	-0.626953	-0.093750	0.546323	0.460767	-0.579254	0.392033
62259		9.734753	0.615688	-0.953076	0.014872	0.005391	-0.007504	-0.760986	-0.631348	-0.088623	0.546318	0.460794	-0.579199	0.392089
62260		9.733151	0.676111	-0.935530	0.016676	-0.000222	-0.004727	-0.762451	-0.625000	-0.095703	0.546240	0.460891	-0.579141	0.392170
62261		9.741240	0.688267	-0.918725	0.013195	0.003052	-0.003818	-0.754883	-0.625977	-0.085693	0.546223	0.460888	-0.579128	0.392216
62262		9.719940	0.674605	-0.938288	0.008298	0.001247	-0.001934	-0.762451	-0.623535	-0.087646	0.546183	0.460908	-0.579112	0.392272
62263		9.718779	0.674601	-0.902520	0.004683	0.004444	-0.003691	-0.755615	-0.625488	-0.085449	0.546193	0.460869	-0.579115	0.392298
62264		9.718033	0.685456	-0.936912	0.000949	0.001826	-0.003019	-0.759033	-0.627930	-0.085938	0.546203	0.460843	-0.579127	0.392298
62265		9.711771	0.694151	-0.888209	0.002143	-0.001600	-0.000569	-0.762207	-0.625732	-0.083008	0.546170	0.460824	-0.579171	0.392303
62266		9.753259	0.673081	-0.922400	0.005208	0.001856	-0.001072	-0.760254	-0.627197	-0.090332	0.546131	0.460811	-0.579181	0.392357
62267		9.746292	0.691955	-0.908140	0.000333	0.004010	-0.003349	-0.757568	-0.629639	-0.085693	0.546178	0.460748	-0.579196	0.392342
62268		9.727741	0.658951	-0.892015	-0.007332	0.003701	-0.002520	-0.766846	-0.630615	-0.085693	0.546249	0.460665	-0.579225	0.392298
62269		9.712719	0.637345	-0.959841	0.001668	0.002334	-0.003686	-0.766602	-0.630127	-0.084473	0.546255	0.460642	-0.579233	0.392305
62270		9.706892	0.666849	-0.958948	0.003735	0.003453	-0.003398	-0.760742	-0.623047	-0.086426	0.546251	0.460631	-0.579222	0.392340
62271		9.733553	0.632836	-0.890662	-0.002164	-0.002140	-0.004744	-0.760010	-0.623047	-0.092529	0.546255	0.460597	-0.579287	0.392278
62272		9.786230	0.625007	-0.921466	-0.001963	0.002407	-0.004011	-0.760254	-0.623779	-0.088135	0.546313	0.460511	-0.579340	0.392220
62273		9.766457	0.672172	-0.936527	0.001644	0.007233	-0.006054	-0.765869	-0.628906	-0.085693	0.546377	0.460464	-0.579314	0.392224
62274		9.682375	0.676335	-0.918927	0.002753	0.005074	-0.006766	-0.757812	-0.633301	-0.087402	0.546410	0.460458	-0.579280	0.392235
62275		9.682793	0.608395	-0.922307	-0.009965	-0.002532	-0.006582	-0.758789	-0.618164	-0.085449	0.546479	0.460429	-0.579325	0.392107
62276		9.734333	0.590425	-0.939586	0.004766	0.004014	-0.003253	-0.770996	-0.625977	-0.087158	0.546473	0.460395	-0.579333	0.392144
62277		9.735082	0.670655	-0.947975	0.013296	0.007201	-0.000788	-0.757324	-0.625488	-0.088867	0.546428	0.460380	-0.579298	0.392276
62278		9.761374	0.695744	-0.897197	0.003493	-0.000152	-0.002338	-0.766846	-0.630371	-0.088379	0.546417	0.460368	-0.579319	0.392276
62279		9.741644	0.642607	-0.890560	-0.003274	0.000016	-0.004033	-0.764648	-0.628174	-0.094482	0.546445	0.460320	-0.579366	0.392221
62280		9.703044	0.605651	-0.907632	0.004382	0.008967	-0.001915	-0.762207	-0.620117	-0.090576	0.546511	0.460233	-0.579349	0.392258
62281		9.710894	0.657884	-0.951037	0.011984	0.005646	-0.003534	-0.766602	-0.625732	-0.086914	0.546496	0.460221	-0.579322	0.392333
62282		9.744102	0.674576	-0.892285	0.005596	-0.000808	-0.001113	-0.761230	-0.625244	-0.085693	0.546442	0.460209	-0.579361	0.392363
62283		9.720001	0.700121	-0.903688	0.005735	0.000939	-0.003902	-0.760010	-0.626953	-0.087891	0.546415	0.460228	-0.579353	0.392392
62284		9.734725	0.664045	-0.873439	0.003100	0.003346	-0.005020	-0.762207	-0.612549	-0.083740	0.546439	0.460224	-0.579330	0.392397
62285		9.712371	0.631070	-0.900968	-0.004157	0.003489	-0.005674	-0.774658	-0.623535	-0.093262	0.546476	0.460132	-0.579396	0.392356
62286		9.715509	0.633006	-0.913426	-0.004109	0.004000	-0.003446	-0.765625	-0.619141	-0.090820	0.546542	0.459988	-0.579490	0.392294
62287		9.741552	0.599060	-0.901567	0.006363	0.001046	-0.002278	-0.766113	-0.627686	-0.080566	0.546516	0.459941	-0.579541	0.392309
62288		9.741825	0.639466	-0.906342	0.012184	0.000721	-0.003015	-0.766113	-0.623535	-0.093750	0.546418	0.460028	-0.579489	0.392422
62289		9.759153	0.672951	-0.885955	0.005879	0.003309	0.000056	-0.768311	-0.623535	-0.091797	0.546418	0.459951	-0.579531	0.392449
62290		9.717759	0.674476	-0.894915	-0.004159	0.001822	-0.000222	-0.770020	-0.629395	-0.083252	0.546455	0.459820	-0.579630	0.392404
62291		9.714735	0.664349	-0.902678	-0.002231	0.002861	-0.002598	-0.777100	-0.630371	-0.092773	0.546462	0.459782	-0.579646	0.392415
62292		9.742708	0.620882	-0.891224	-0.003007	-0.001279	-0.002724	-0.774414	-0.622803	-0.097656	0.546482	0.459696	-0.579743	0.392345
62293		9.750814	0.623042	-0.896449	-0.007974	-0.000367	0.000011	-0.777588	-0.630615	-0.085938	0.546544	0.459501	-0.579917	0.392231
62294		9.734566	0.619793	-0.885651	-0.008901	0.004050	0.000161	-0.768311	-0.630371	-0.095215	0.546588	0.459368	-0.579996	0.392208
62295		9.720671	0.637415	-0.901143	-0.006442	0.003338	-0.002320	-0.770020	-0.625977	-0.092285	0.546681	0.459248	-0.580055	0.392132
62296		9.719674	0.608141	-0.930946	-0.005064	-0.000113	-0.001721	-0.777100	-0.622070	-0.088867	0.546716	0.459145	-0.580149	0.392064
62297		9.722704	0.619037	-0.922512	0.004033	0.000385	-0.001150	-0.775146	-0.621338	-0.098145	0.546670	0.459082	-0.580227	0.392087
62298		9.734719	0.611410	-0.905717	0.007444	0.002119	0.000096	-0.783203	-0.634766	-0.094971	0.546660	0.458976	-0.580313	0.392099
62299		9.746261	0.663349	-0.906776	0.003548	0.002648	0.001184	-0.778809	-0.618652	-0.089111	0.546658	0.458887	-0.580370	0.392121
62300		9.730876	0.630373	-0.904742	0.000896	0.000479	-0.002519	-0.775146	-0.637939	-0.093994	0.546633	0.458796	-0.580473	0.392110
62301		9.727340	0.680130	-0.930653	0.006331	0.005109	-0.001919	-0.776123	-0.629883	-0.096436	0.546658	0.458780	-0.580433	0.392152
62302		9.700685	0.645102	-0.909708	-0.001700	0.001109	-0.002703	-0.774658	-0.623047	-0.094727	0.546706	0.458684	-0.580506	0.392089
62303		9.698265	0.625577	-0.883137	-0.003506	-0.002759	-0.005701	-0.779297	-0.627441	-0.093994	0.546736	0.458603	-0.580617	0.391977
62304		9.713771	0.640051	-0.928601	0.003766	0.001677	-0.002459	-0.781494	-0.622314	-0.105225	0.546736	0.458538	-0.580672	0.391973
62305		9.756814	0.599066	-0.892345	-0.000137	-0.000914	0.000062	-0.775879	-0.625732	-0.092529	0.546776	0.458350	-0.580848	0.391875
62306		9.745856	0.626650	-0.900978	-0.002742	-0.003404	0.001312	-0.776855	-0.623779	-0.098145	0.546753	0.458252	-0.580978	0.391829
62307		9.723632	0.651807	-0.890914	-0.001701	0.000276	0.000023	-0.772217	-0.625488	-0.095947	0.546782	0.458112	-0.581102	0.391770
62308		9.694853	0.636241	-0.848825	-0.000185	-0.000594	-0.004892	-0.771973	-0.632568	-0.096436	0.546817	0.458055	-0.581163	0.391697
62309		9.730697	0.625400	-0.926094	-0.003895	0.002193	-0.004365	-0.771240	-0.624268	-0.093018	0.546902	0.457982	-0.581195	0.391616
62310		9.765956	0.613291	-0.911153	-0.007976	-0.000370	0.000009	-0.765137	-0.625244	-0.094727	0.546942	0.457852	-0.581311	0.391540
62311		9.723414	0.594784	-0.929405	0.000533	-0.001751	-0.000106	-0.768799	-0.619629	-0.103027	0.546942	0.457800	-0.581374	0.391507
62312		9.723093	0.555487	-0.924805	0.000533	-0.000086	-0.005558	-0.779541	-0.636230	-0.093018	0.547010	0.457701	-0.581461	0.391398
62313		9.706627	0.563378	-0.892701	-0.000767	0.000645	-0.007013	-0.767578	-0.627441	-0.093262	0.547055	0.457694	-0.581466	0.391337
62314		9.747700	0.603412	-0.944072	0.004941	0.006274	-0.003809	-0.774414	-0.624268	-0.100098	0.547097	0.457672	-0.581424	0.391368
62315		9.722361	0.628605	-0.919653	0.004968	-0.000909	-0.002733	-0.774902	-0.629150	-0.091309	0.547102	0.457609	-0.581496	0.391327
62316		9.749247	0.624614	-0.879201	-0.002577	-0.008010	-0.003125	-0.785889	-0.617188	-0.098145	0.547062	0.457600	-0.581599	0.391239
62317		9.726643	0.610853	-0.864895	-0.006815	-0.000353	-0.003925	-0.778564	-0.617432	-0.100586	0.547112	0.457418	-0.581776	0.391119
62318		9.750313	0.627362	-0.914867	-0.004971	0.003406	-0.005444	-0.764648	-0.622314	-0.094971	0.547207	0.457251	-0.581891	0.391010
62319		9.745856	0.568372	-0.904325	-0.011522	0.001760	-0.008059	-0.772217	-0.616699	-0.099609	0.547336	0.457154	-0.581949	0.390857
62320		9.721517	0.545962	-0.932421	-0.003779	-0.000637	-0.009736	-0.778076	-0.634033	-0.098633	0.547415	0.457070	-0.582038	0.390712
62321		9.725251	0.538953	-0.910709	0.000212	0.000694	-0.009094	-0.767334	-0.628174	-0.093262	0.547489	0.457055	-0.582045	0.390616
62322		9.728331	0.532209	-0.946314	0.016377	-0.002644	-0.011324	-0.773193	-0.624756	-0.096191	0.547434	0.457220	-0.581954	0.390633
62323		9.762367	0.561563	-0.901851	0.021302	0.000510	-0.013699	-0.773193	-0.633057	-0.100586	0.547390	0.457376	-0.581849	0.390671
62324		9.736128	0.598667	-0.912691	0.024756	0.005879	-0.011658	-0.769043	-0.627197	-0.093018	0.547388	0.457515	-0.581687	0.390751
62325		9.727244	0.658783	-0.924967	0.019152	0.003557	-0.009113	-0.772705	-0.620850	-0.100342	0.547350	0.457640	-0.581568	0.390836
62326		9.713044	0.687304	-0.919277	0.015299	0.002306	-0.007090	-0.769775	-0.630615	-0.100342	0.547338	0.457656	-0.581551	0.390859
62327		9.730805	0.662744	-0.880949	0.016181	0.000492	-0.010898	-0.773438	-0.622314	-0.095947	0.547344	0.457755	-0.581474	0.390849
62328		9.767400	0.692824	-0.905904	0.011842	0.005454	-0.010707	-0.777100	-0.630127	-0.097412	0.547372	0.457784	-0.581415	0.390864
62329		9.756313	0.722465	-0.913334	0.001284	0.001755	-0.006723	-0.773193	-0.611816	-0.094971	0.547427	0.457740	-0.581441	0.390800
62330		9.712343	0.665125	-0.891279	-0.013802	-0.002991	-0.007292	-0.780273	-0.626709	-0.096436	0.547504	0.457581	-0.581620	0.390612
62331		9.706093	0.606339	-0.902931	-0.009286	0.002828	-0.009627	-0.793213	-0.635498	-0.099609	0.547627	0.457469	-0.581690	0.390466
62332		9.717427	0.601615	-0.942442	0.002390	0.003545	-0.011592	-0.775391	-0.627930	-0.101562	0.547709	0.457428	-0.581702	0.390380
62333		9.753708	0.601729	-0.941279	0.008075	-0.003916	-0.009389	-0.782471	-0.629150	-0.092041	0.547713	0.457456	-0.581733	0.390296
62334		9.742609	0.621353	-0.972152	0.012598	-0.002040	-0.007562	-0.778320	-0.629883	-0.097656	0.547643	0.457533	-0.581721	0.390323
62335		9.722494	0.658159	-0.861350	0.002218	0.002747	-0.007015	-0.786865	-0.625244	-0.090820	0.547698	0.457491	-0.581736	0.390271
62336		9.727767	0.641468	-0.895493	0.004446	0.006957	-0.010014	-0.783936	-0.631836	-0.097656	0.547737	0.457470	-0.581709	0.390281
62337		9.738102	0.665871	-0.926323	0.012054	0.002826	-0.008893	-0.782471	-0.626465	-0.102051	0.547741	0.457504	-0.581671	0.390292
62338		9.735326	0.686747	-0.960576	0.005579	0.005437	-0.003980	-0.780518	-0.627930	-0.101074	0.547792	0.457411	-0.581704	0.390281
62339		9.705470	0.661632	-0.904658	-0.008341	-0.002426	-0.007047	-0.781738	-0.634766	-0.099121	0.547878	0.457299	-0.581826	0.390110
62340		9.711229	0.645003	-0.883013	-0.011169	0.000828	-0.009044	-0.780518	-0.628418	-0.100830	0.548012	0.457196	-0.581901	0.389932
62341		9.747856	0.586096	-0.919625	-0.001258	0.004424	-0.014647	-0.773193	-0.633789	-0.090820	0.548140	0.457161	-0.581892	0.389805
62342		9.736836	0.607319	-0.948510	0.001785	0.004770	-0.013712	-0.781006	-0.636230	-0.094482	0.548220	0.457219	-0.581804	0.389755
62343		9.751700	0.613227	-0.923025	-0.006205	-0.000907	-0.009046	-0.784912	-0.639893	-0.097412	0.548290	0.457187	-0.581846	0.389631
62344		9.753433	0.575919	-0.896125	0.005376	0.002544	-0.010155	-0.780273	-0.627686	-0.095947	0.548337	0.457214	-0.581809	0.389589
62345		9.734383	0.594596	-0.919157	0.019928	0.014347	-0.014138	-0.784912	-0.626465	-0.096924	0.548389	0.457296	-0.581619	0.389704
62346		9.747768	0.630110	-0.940121	0.012428	0.008690	-0.010513	-0.783691	-0.630371	-0.098877	0.548423	0.457310	-0.581543	0.389753
62347		9.742621	0.601211	-0.920076	0.015559	0.006319	-0.010427	-0.775146	-0.631836	-0.097412	0.548435	0.457361	-0.581459	0.389802
62348		9.699181	0.613360	-0.928273	0.029873	0.008416	-0.005955	-0.778320	-0.623047	-0.095703	0.548363	0.457494	-0.581288	0.390001
62349		9.679975	0.679952	-0.934710	0.039369	0.010734	-0.007347	-0.773926	-0.632812	-0.089600	0.548241	0.457670	-0.581075	0.390284
62350		9.709091	0.737242	-0.924355	0.029993	-0.000670	-0.008430	-0.770264	-0.630371	-0.085205	0.548088	0.457903	-0.580926	0.390448
62351		9.716730	0.720077	-0.881163	0.015742	0.001512	-0.005383	-0.770508	-0.631104	-0.094727	0.548003	0.458022	-0.580838	0.390558
62352		9.771535	0.673559	-0.884206	0.017134	0.006453	-0.010884	-0.770996	-0.633545	-0.091064	0.548011	0.458124	-0.580705	0.390625
62353		9.718008	0.684682	-0.909333	0.022694	0.006476	-0.014706	-0.764893	-0.631348	-0.093262	0.547994	0.458311	-0.580508	0.390722
62354		9.706800	0.675140	-0.911949	0.025962	0.001906	-0.013233	-0.771484	-0.640381	-0.091064	0.547930	0.458526	-0.580337	0.390814
62355		9.766354	0.709431	-0.917825	0.007851	-0.001472	-0.001715	-0.772949	-0.626953	-0.085938	0.547885	0.458567	-0.580328	0.390843
62356		9.726319	0.691326	-0.857219	0.000209	0.001302	-0.002354	-0.763428	-0.634521	-0.091309	0.547873	0.458531	-0.580361	0.390851
62357		9.722736	0.651665	-0.895319	-0.000789	0.000600	-0.007011	-0.771240	-0.623779	-0.088623	0.547921	0.458539	-0.580351	0.390791
62358		9.742547	0.658341	-0.861489	0.009080	0.004183	-0.012608	-0.773438	-0.626221	-0.091309	0.547939	0.458606	-0.580276	0.390797
62359		9.724875	0.636738	-0.915674	0.011549	0.004128	-0.008342	-0.776611	-0.615723	-0.086914	0.547932	0.458651	-0.580220	0.390839
62360		9.709517	0.615026	-0.891435	0.013613	0.002148	-0.006607	-0.768311	-0.621826	-0.094238	0.547863	0.458691	-0.580202	0.390915
62361		9.754807	0.675439	-0.891649	0.012427	0.003103	-0.000892	-0.766846	-0.625000	-0.097168	0.547820	0.458678	-0.580200	0.390993
62362		9.749750	0.644342	-0.872656	0.009669	0.001467	-0.000514	-0.763428	-0.622559	-0.091553	0.547794	0.458649	-0.580221	0.391032
62363		9.747989	0.643781	-0.893949	0.018570	0.004196	-0.001304	-0.756836	-0.624268	-0.093018	0.547721	0.458698	-0.580159	0.391169
62364		9.698285	0.652733	-0.875592	0.019044	0.008803	0.000217	-0.765869	-0.619873	-0.090820	0.547685	0.458726	-0.580058	0.391338
62365		9.703136	0.733037	-0.876531	0.021423	0.004587	0.001488	-0.767090	-0.623535	-0.095459	0.547579	0.458763	-0.580006	0.391519
62366		9.732666	0.738113	-0.883226	0.012721	0.000195	0.005883	-0.768799	-0.620361	-0.092041	0.547489	0.458717	-0.580057	0.391622
62367		9.744380	0.659130	-0.890954	0.009183	0.002930	0.004534	-0.765381	-0.622070	-0.091064	0.547430	0.458648	-0.580101	0.391720
62368		9.709232	0.670191	-0.904580	0.011469	0.008992	0.003240	-0.773438	-0.618652	-0.098389	0.547410	0.458589	-0.580069	0.391864
62369		9.730446	0.684034	-0.882931	0.009685	0.007393	0.001540	-0.768555	-0.616699	-0.083252	0.547414	0.458487	-0.580092	0.391945
62370		9.718823	0.680955	-0.920450	0.006940	0.001167	-0.000638	-0.768066	-0.619629	-0.078857	0.547347	0.458480	-0.580111	0.392019
62371		9.702764	0.667154	-0.932569	0.001544	-0.005631	0.002008	-0.767578	-0.611572	-0.088135	0.547236	0.458476	-0.580198	0.392049
62372		9.713608	0.649519	-0.903045	0.002401	0.000232	-0.000683	-0.763184	-0.615234	-0.084717	0.547207	0.458410	-0.580271	0.392059
62373		9.738648	0.646172	-0.883238	-0.003274	-0.001518	-0.008046	-0.772217	-0.620605	-0.085938	0.547228	0.458398	-0.580313	0.391981
62374		9.745420	0.679261	-0.880509	-0.007935	-0.001879	-0.004018	-0.768066	-0.609375	-0.093750	0.547255	0.458321	-0.580410	0.391891
62375		9.778435	0.596928	-0.912783	-0.007010	-0.006144	0.000373	-0.769287	-0.614990	-0.092773	0.547248	0.458185	-0.580599	0.391779
62376		9.753956	0.590889	-0.898449	-0.013097	-0.002923	0.008291	-0.773682	-0.611328	-0.092529	0.547260	0.457954	-0.580823	0.391701
62377		9.736621	0.614649	-0.879709	-0.015465	0.004261	0.015033	-0.779785	-0.617676	-0.086182	0.547297	0.457610	-0.581063	0.391695
62378		9.742262	0.562823	-0.886598	-0.017437	0.003515	0.012455	-0.772949	-0.616943	-0.098877	0.547331	0.457310	-0.581276	0.391682
62379		9.710590	0.563230	-0.935821	-0.009019	0.001627	0.010148	-0.780029	-0.606689	-0.097412	0.547362	0.457056	-0.581467	0.391652
62380		9.709224	0.600853	-0.906148	0.003294	-0.003894	0.008217	-0.774170	-0.615967	-0.090576	0.547274	0.456901	-0.581656	0.391675
62381		9.757651	0.628745	-0.894461	-0.001411	-0.005599	0.012751	-0.777344	-0.608398	-0.099365	0.547166	0.456749	-0.581851	0.391712
62382		9.778762	0.679930	-0.880542	-0.010825	-0.000639	0.015690	-0.773682	-0.608398	-0.100342	0.547157	0.456433	-0.582120	0.391694
62383		9.714645	0.632292	-0.904120	-0.020427	0.005174	0.017753	-0.774902	-0.611816	-0.092041	0.547241	0.456013	-0.582400	0.391650
62384		9.704834	0.597039	-0.892183	-0.035253	0.004821	0.013367	-0.775146	-0.612549	-0.098145	0.547399	0.455570	-0.582697	0.391502
62385		9.725714	0.569498	-0.922695	-0.034826	0.002014	0.008825	-0.778320	-0.611328	-0.097168	0.547577	0.455158	-0.582996	0.391289
62386		9.765092	0.498501	-0.902697	-0.025394	-0.006037	-0.006653	-0.773193	-0.613281	-0.093262	0.547709	0.454963	-0.583218	0.390999
62387		9.777305	0.554307	-0.940380	-0.018430	-0.001081	-0.015975	-0.774414	-0.611328	-0.091064	0.547875	0.454889	-0.583293	0.390741
62388		9.775488	0.527688	-0.878543	-0.020023	-0.002875	-0.010064	-0.769287	-0.612305	-0.094727	0.547997	0.454772	-0.583423	0.390511
62389		9.725293	0.498264	-0.912477	-0.029845	0.006863	0.003673	-0.780762	-0.612305	-0.096191	0.548195	0.454437	-0.583610	0.390344
62390		9.724437	0.447371	-0.891828	-0.013680	0.008653	0.006291	-0.777832	-0.618896	-0.086914	0.548296	0.454165	-0.583742	0.390322
62391		9.728967	0.457669	-0.916678	0.005472	0.007330	-0.000401	-0.773926	-0.611572	-0.095947	0.548286	0.454137	-0.583704	0.390424
62392		9.724908	0.557154	-0.925438	0.017078	0.005243	-0.005851	-0.776855	-0.619873	-0.092773	0.548250	0.454194	-0.583627	0.390525
62393		9.721566	0.558180	-0.912654	0.015318	-0.008630	-0.011254	-0.769775	-0.611572	-0.096924	0.548143	0.454371	-0.583600	0.390510
62394		9.732060	0.583244	-0.889276	0.013456	-0.003053	-0.014055	-0.763672	-0.618164	-0.097168	0.548115	0.454502	-0.583548	0.390474
62395		9.738915	0.577509	-0.880999	0.009823	0.003880	-0.010540	-0.773193	-0.617432	-0.100098	0.548150	0.454571	-0.583462	0.390473
62396		9.739064	0.609573	-0.906993	0.003042	0.004145	-0.007743	-0.772217	-0.617920	-0.100586	0.548215	0.454544	-0.583448	0.390434
62397		9.713621	0.625711	-0.904669	0.000427	0.000313	-0.005990	-0.764648	-0.624268	-0.095947	0.548260	0.454505	-0.583482	0.390365
62398		9.744817	0.594106	-0.884689	-0.000914	-0.000310	-0.006947	-0.768311	-0.615479	-0.089600	0.548306	0.454512	-0.583482	0.390293
62399		9.740619	0.575784	-0.879793	-0.003564	-0.001691	-0.013374	-0.774658	-0.618408	-0.088867	0.548359	0.454552	-0.583480	0.390174
62400		9.730383	0.616783	-0.901537	-0.008664	0.001412	-0.012037	-0.769287	-0.612549	-0.100586	0.548452	0.454531	-0.583492	0.390049
62401		9.757818	0.555637	-0.898065	-0.007308	-0.001076	-0.009637	-0.771973	-0.625732	-0.095459	0.548546	0.454464	-0.583562	0.389890
62402		9.731763	0.542177	-0.926166	-0.000750	0.001945	-0.007513	-0.769775	-0.616699	-0.097900	0.548603	0.454460	-0.583550	0.389834
62403		9.705883	0.608490	-0.906961	0.008652	0.004700	-0.009335	-0.776855	-0.623779	-0.090332	0.548639	0.454492	-0.583488	0.389838
62404		9.736655	0.628007	-0.869845	0.001596	0.000180	-0.014430	-0.777832	-0.621826	-0.100830	0.548681	0.454569	-0.583439	0.389762
62405		9.770267	0.609051	-0.898679	-0.006124	-0.002031	-0.015351	-0.769531	-0.618896	-0.092529	0.548789	0.454564	-0.583470	0.389570
62406		9.719393	0.601563	-0.889764	-0.001811	0.003010	-0.013110	-0.776123	-0.620361	-0.106934	0.548873	0.454585	-0.583432	0.389484
62407		9.756520	0.622953	-0.879105	0.003445	0.004459	-0.013728	-0.769775	-0.621094	-0.091553	0.548984	0.454578	-0.583397	0.389387
62408		9.764649	0.657812	-0.910226	-0.006536	0.002102	-0.011306	-0.781250	-0.622314	-0.099854	0.549077	0.454567	-0.583391	0.389279
62409		9.719931	0.660952	-0.905708	-0.008782	0.004116	-0.011189	-0.776367	-0.621582	-0.103760	0.549215	0.454483	-0.583420	0.389138
62410		9.710347	0.651809	-0.941859	-0.010002	0.013439	-0.011584	-0.777832	-0.617676	-0.099121	0.549446	0.454340	-0.583392	0.389023
62411		9.748111	0.553624	-0.969691	-0.013227	0.018382	-0.015341	-0.771484	-0.625488	-0.093994	0.549729	0.454185	-0.583324	0.388905
62412		9.694771	0.536019	-0.965299	-0.009280	0.013807	-0.016758	-0.768799	-0.615967	-0.096680	0.549952	0.454142	-0.583215	0.388804
62413		9.739799	0.559420	-1.015797	0.015487	0.000405	-0.012461	-0.781250	-0.617920	-0.099121	0.549919	0.454273	-0.583129	0.388825
62414		9.767176	0.577568	-0.966670	0.030724	-0.005489	-0.008881	-0.773438	-0.619141	-0.103271	0.549741	0.454486	-0.583055	0.388941
62415		9.746822	0.634291	-0.848739	0.021136	0.000809	-0.004590	-0.778564	-0.619873	-0.098877	0.549664	0.454568	-0.583002	0.389032
62416		9.758709	0.697200	-0.862752	0.011293	0.012025	-0.000835	-0.771729	-0.618896	-0.093994	0.549690	0.454510	-0.582939	0.389158
62417		9.717594	0.727901	-0.897202	0.009981	0.008290	-0.000350	-0.778809	-0.617676	-0.099121	0.549680	0.454488	-0.582887	0.389276
62418		9.708775	0.676092	-0.871874	0.009801	0.006849	-0.002508	-0.772949	-0.616455	-0.098389	0.549683	0.454452	-0.582863	0.389349
62419		9.718404	0.648778	-0.883767	0.000521	0.005806	-0.003486	-0.770752	-0.617676	-0.099121	0.549738	0.454374	-0.582875	0.389344
62420		9.745025	0.685257	-0.845820	-0.001961	0.005179	-0.000519	-0.773438	-0.616455	-0.106201	0.549792	0.454265	-0.582915	0.389335
62421		9.740862	0.634139	-0.869601	-0.001362	0.003960	0.001607	-0.769531	-0.613770	-0.109375	0.549846	0.454115	-0.582998	0.389311
62422		9.737757	0.633108	-0.855223	-0.005686	0.003499	0.001929	-0.780762	-0.604736	-0.102295	0.549931	0.453923	-0.583113	0.389240
62423		9.728621	0.620768	-0.835541	-0.012258	0.005050	0.002363	-0.781982	-0.607910	-0.106201	0.550022	0.453666	-0.583279	0.389166
62424		9.750336	0.615443	-0.858210	-0.014642	0.000222	0.000477	-0.776611	-0.611816	-0.093750	0.550114	0.453421	-0.583479	0.389019
62425		9.751380	0.627149	-0.871275	-0.011572	0.001118	-0.010326	-0.767090	-0.615479	-0.101318	0.550208	0.453348	-0.583540	0.388880
62426		9.779052	0.606538	-0.815396	-0.021017	0.002265	-0.012684	-0.775879	-0.609619	-0.105957	0.550413	0.453214	-0.583618	0.388629
62427		9.762733	0.565723	-0.856165	-0.027343	0.002666	-0.006423	-0.774170	-0.607178	-0.104736	0.550631	0.452941	-0.583804	0.388359
62428		9.731407	0.529713	-0.899467	-0.022000	0.008940	0.002710	-0.777344	-0.608887	-0.109131	0.550813	0.452612	-0.583970	0.388235
62429		9.726649	0.528519	-0.905963	-0.013617	0.004409	0.001410	-0.778320	-0.615479	-0.103760	0.550934	0.452356	-0.584130	0.388121
62430		9.727294	0.519102	-0.870080	-0.009893	0.000173	-0.003106	-0.783203	-0.615234	-0.109131	0.551008	0.452221	-0.584242	0.388006
62431		9.750742	0.545361	-0.898174	0.001429	0.003174	-0.004551	-0.777588	-0.617676	-0.106934	0.551062	0.452128	-0.584294	0.387958
62432		9.728493	0.561506	-0.909052	0.013395	0.004004	-0.005659	-0.779785	-0.618408	-0.104980	0.551058	0.452149	-0.584252	0.388003
62433		9.747306	0.586501	-0.887454	0.016024	0.010656	-0.003891	-0.778564	-0.614990	-0.097656	0.551070	0.452149	-0.584158	0.388127
62434		9.734749	0.644238	-0.885300	0.011661	0.008848	-0.003071	-0.778564	-0.617676	-0.105469	0.551059	0.452149	-0.584087	0.388248
62435		9.707257	0.668824	-0.881751	0.007376	0.007430	-0.004538	-0.787354	-0.621094	-0.100586	0.551103	0.452109	-0.584054	0.388284
62436		9.709805	0.650768	-0.902487	-0.002589	0.001288	-0.007432	-0.777588	-0.620850	-0.102051	0.551147	0.452068	-0.584088	0.388216
62437		9.735148	0.608216	-0.876683	-0.001095	0.004169	-0.007036	-0.770508	-0.620605	-0.105713	0.551216	0.452030	-0.584083	0.388171
62438		9.755789	0.594078	-0.885107	0.000211	0.009379	-0.003504	-0.773682	-0.621582	-0.110840	0.551318	0.451945	-0.584052	0.388170
62439		9.742480	0.631677	-0.891804	0.001113	0.004587	-0.001353	-0.777832	-0.618408	-0.100098	0.551387	0.451849	-0.584080	0.388143
62440		9.737158	0.640957	-0.877585	0.001129	0.002296	-0.002639	-0.774902	-0.615234	-0.102051	0.551396	0.451808	-0.584102	0.388145
62441		9.723584	0.618275	-0.831403	-0.004380	0.004931	0.000164	-0.770264	-0.618896	-0.101074	0.551449	0.451685	-0.584156	0.388131
62442		9.742196	0.612250	-0.839722	-0.005752	0.008886	0.001775	-0.772949	-0.613525	-0.112549	0.551534	0.451546	-0.584174	0.388146
62443		9.726157	0.638078	-0.854845	-0.001544	0.003993	0.003460	-0.774170	-0.619873	-0.112549	0.551589	0.451375	-0.584269	0.388123
62444		9.736540	0.630000	-0.859089	0.003680	0.002638	-0.000654	-0.780029	-0.617432	-0.100586	0.551629	0.451294	-0.584307	0.388104
62445		9.742493	0.612081	-0.836394	-0.003063	0.004897	-0.005610	-0.778076	-0.609619	-0.102295	0.551691	0.451232	-0.584317	0.388072
62446		9.729976	0.600670	-0.803298	-0.012303	0.004367	-0.004378	-0.778564	-0.616699	-0.105469	0.551797	0.451076	-0.584406	0.387970
62447		9.748171	0.565864	-0.899493	-0.008035	0.002155	-0.003693	-0.770264	-0.605957	-0.117432	0.551877	0.450959	-0.584481	0.387879
62448		9.737758	0.544404	-0.867129	0.006939	0.002014	-0.003341	-0.780762	-0.615723	-0.109619	0.551916	0.450873	-0.584536	0.387839
62449		9.738616	0.595035	-0.828189	0.006986	0.002539	-0.001117	-0.779053	-0.617432	-0.100830	0.551915	0.450815	-0.584569	0.387859
62450		9.744762	0.605976	-0.832246	-0.000180	0.005960	0.003921	-0.776611	-0.617920	-0.111328	0.551921	0.450706	-0.584605	0.387923
62451		9.742565	0.584827	-0.861468	0.001462	0.001541	0.000898	-0.778320	-0.618652	-0.097900	0.551947	0.450607	-0.584670	0.387903
62452		9.740869	0.554354	-0.855501	0.004178	0.006291	-0.000904	-0.768311	-0.616699	-0.112549	0.551943	0.450584	-0.584638	0.387983
62453		9.739494	0.584187	-0.845899	0.004731	0.004546	-0.001003	-0.776611	-0.613770	-0.107666	0.551993	0.450514	-0.584645	0.387983
62454		9.730376	0.602160	-0.853686	0.004548	0.000954	0.000060	-0.781494	-0.606445	-0.110107	0.551982	0.450455	-0.584694	0.387995
62455		9.744141	0.625157	-0.841659	0.007299	0.002597	-0.000304	-0.779297	-0.610107	-0.112793	0.551968	0.450368	-0.584755	0.388023
62456		9.731606	0.612100	-0.866193	0.004308	0.002758	0.000972	-0.784912	-0.614990	-0.094482	0.551983	0.450252	-0.584829	0.388025
62457		9.733303	0.612380	-0.843943	-0.007603	0.000973	0.000276	-0.772705	-0.606934	-0.101318	0.551975	0.450165	-0.584907	0.388018
62458		9.735455	0.602791	-0.843709	-0.002188	0.000242	0.001050	-0.774902	-0.612305	-0.109375	0.551962	0.450080	-0.584987	0.388016
62459		9.738774	0.602990	-0.856811	-0.006125	0.001700	0.003899	-0.779541	-0.614258	-0.105469	0.552006	0.449911	-0.585105	0.387972
62460		9.781204	0.581321	-0.889869	-0.009729	0.000926	0.006274	-0.773682	-0.611084	-0.107422	0.552032	0.449722	-0.585249	0.387936
62461		9.755293	0.604848	-0.866106	-0.004787	0.000851	0.000851	-0.771973	-0.610107	-0.105225	0.552067	0.449602	-0.585340	0.387888
62462		9.727971	0.589855	-0.858950	-0.009923	0.001797	-0.008569	-0.777100	-0.616455	-0.101807	0.552175	0.449523	-0.585387	0.387755
62463		9.715793	0.569625	-0.848279	-0.013862	0.001777	-0.009729	-0.772949	-0.610840	-0.102539	0.552294	0.449454	-0.585427	0.387604
62464		9.728013	0.524319	-0.882780	-0.010053	0.002357	-0.004495	-0.781494	-0.615479	-0.100586	0.552372	0.449359	-0.585484	0.387517
62465		9.763918	0.533184	-0.916237	-0.011949	-0.003129	-0.000197	-0.778564	-0.615479	-0.101318	0.552386	0.449255	-0.585609	0.387429
62466		9.766685	0.543849	-0.851203	-0.006521	-0.000229	0.001364	-0.771973	-0.605225	-0.105469	0.552389	0.449167	-0.585692	0.387404
62467		9.750832	0.530103	-0.863068	-0.016113	-0.002163	0.002278	-0.775635	-0.616455	-0.104736	0.552443	0.448974	-0.585870	0.387279
62468		9.725509	0.474548	-0.829933	-0.013848	-0.002014	-0.001058	-0.778564	-0.610596	-0.106934	0.552503	0.448856	-0.585984	0.387158
62469		9.732136	0.506533	-0.883579	0.003118	0.000756	-0.001338	-0.774170	-0.614746	-0.102783	0.552492	0.448809	-0.586028	0.387163
62470		9.730794	0.566394	-0.845036	0.015961	-0.000088	-0.001718	-0.780518	-0.617432	-0.103027	0.552392	0.448902	-0.585974	0.387277
62471		9.770347	0.535162	-0.830461	0.008386	-0.002227	-0.000004	-0.774170	-0.614258	-0.105225	0.552310	0.448935	-0.585988	0.387335
62472		9.730271	0.576367	-0.823625	0.006703	0.003822	-0.002425	-0.770020	-0.605469	-0.105713	0.552307	0.448935	-0.585959	0.387384
62473		9.743518	0.609782	-0.846254	0.012734	0.004028	-0.002751	-0.776367	-0.603271	-0.109863	0.552274	0.448955	-0.585919	0.387469
62474		9.742934	0.590135	-0.853638	0.000698	0.004954	-0.002598	-0.782227	-0.607178	-0.110352	0.552326	0.448843	-0.585969	0.387450
62475		9.753247	0.582908	-0.858237	0.000144	-0.001377	-0.001350	-0.770996	-0.611328	-0.098145	0.552327	0.448749	-0.586072	0.387401
62476		9.725917	0.567463	-0.851629	0.005383	0.000903	-0.004673	-0.771240	-0.602539	-0.105225	0.552289	0.448809	-0.586032	0.387445
62477		9.745575	0.603185	-0.845054	0.009416	-0.000978	-0.007085	-0.774414	-0.613770	-0.102295	0.552254	0.448853	-0.586028	0.387450
62478		9.741543	0.583976	-0.840409	-0.000457	-0.001633	-0.007483	-0.767822	-0.611328	-0.095703	0.552263	0.448884	-0.586032	0.387396
62479		9.748959	0.567483	-0.854007	-0.005342	-0.000359	-0.007070	-0.763672	-0.610352	-0.107422	0.552280	0.448913	-0.586024	0.387350
62480		9.749808	0.549514	-0.898032	-0.010168	-0.004483	-0.006507	-0.772949	-0.609131	-0.098145	0.552350	0.448864	-0.586104	0.387186
62481		9.747379	0.530605	-0.872326	-0.006355	-0.005374	-0.005283	-0.774902	-0.608887	-0.110596	0.552331	0.448865	-0.586175	0.387104
62482		9.753637	0.503383	-0.873448	0.002524	-0.003944	-0.005536	-0.772217	-0.608643	-0.105469	0.552332	0.448849	-0.586238	0.387026
62483		9.745336	0.502620	-0.869295	0.002476	-0.002994	-0.003749	-0.771240	-0.613281	-0.097900	0.552309	0.448848	-0.586283	0.386992
62484		9.753418	0.505210	-0.874827	-0.000268	-0.001011	-0.002598	-0.773926	-0.603516	-0.103516	0.552280	0.448869	-0.586289	0.387000
62485		9.708703	0.505329	-0.928812	0.002669	-0.002372	0.001135	-0.774170	-0.605469	-0.115967	0.552224	0.448818	-0.586373	0.387012
62486		9.769059	0.518776	-0.921675	0.015888	-0.006391	-0.001508	-0.774658	-0.605225	-0.103760	0.552137	0.448836	-0.586439	0.387014
62487		9.780569	0.551648	-0.853870	0.016463	0.001279	-0.003257	-0.772949	-0.610840	-0.102051	0.552055	0.448898	-0.586402	0.387115
62488		9.710479	0.596286	-0.875408	0.018503	0.002416	-0.002958	-0.768066	-0.609131	-0.109375	0.551967	0.448999	-0.586318	0.387251
62489		9.667426	0.567410	-0.879399	0.010832	0.007299	-0.006841	-0.769775	-0.604980	-0.104492	0.552015	0.449015	-0.586235	0.387290
62490		9.695139	0.575697	-0.906999	0.013906	0.001603	-0.012472	-0.765381	-0.599121	-0.104248	0.552004	0.449128	-0.586150	0.387304
62491		9.753233	0.571192	-0.871945	0.019922	-0.000340	-0.009573	-0.769043	-0.607178	-0.104736	0.551931	0.449259	-0.586076	0.387367
62492		9.786309	0.600685	-0.884414	0.009104	-0.003336	-0.009180	-0.768799	-0.600830	-0.092773	0.551899	0.449344	-0.586060	0.387339
62493		9.768294	0.659060	-0.836752	0.001987	-0.002352	-0.009940	-0.769287	-0.604980	-0.103027	0.551859	0.449423	-0.586051	0.387318
62494		9.728317	0.602343	-0.828110	-0.002183	0.003059	-0.009408	-0.764893	-0.609619	-0.105469	0.551932	0.449399	-0.586048	0.387246
62495		9.715655	0.531236	-0.855120	-0.003732	0.007053	-0.005952	-0.764648	-0.603516	-0.102783	0.552043	0.449332	-0.586025	0.387200
62496		9.720087	0.543321	-0.880372	-0.001111	0.005637	-0.003028	-0.763428	-0.611572	-0.100342	0.552097	0.449263	-0.586029	0.387196
62497		9.738029	0.578713	-0.895347	0.011919	-0.003451	-0.008603	-0.768799	-0.605957	-0.100098	0.552033	0.449414	-0.585960	0.387218
62498		9.763359	0.567241	-0.841272	0.009363	-0.005285	-0.014595	-0.768555	-0.614502	-0.101074	0.551991	0.449567	-0.585918	0.387165
62499		9.729373	0.582933	-0.835312	-0.002436	-0.000255	-0.013288	-0.772705	-0.609863	-0.104736	0.552055	0.449628	-0.585877	0.387062
62500		9.735191	0.597364	-0.840202	-0.007487	0.001054	-0.011028	-0.766846	-0.603516	-0.103271	0.552157	0.449586	-0.585906	0.386924
62501		9.748050	0.542678	-0.897006	-0.006323	-0.001905	-0.009001	-0.771973	-0.602051	-0.101807	0.552216	0.449547	-0.585965	0.386794
62502		9.759361	0.517126	-0.888804	-0.003017	-0.000517	-0.005456	-0.770996	-0.610596	-0.101074	0.552237	0.449492	-0.586032	0.386727
62503		9.732085	0.562396	-0.878724	0.003249	0.001526	-0.005909	-0.775146	-0.608154	-0.103516	0.552241	0.449510	-0.586015	0.386725
62504		9.734734	0.574385	-0.870349	-0.000419	-0.001120	-0.005256	-0.770996	-0.608887	-0.106445	0.552250	0.449481	-0.586064	0.386672
62505		9.742281	0.557506	-0.883560	-0.003771	0.002076	-0.006233	-0.774170	-0.608887	-0.095947	0.552323	0.449417	-0.586098	0.386591
62506		9.736792	0.537750	-0.899821	0.002130	0.001381	-0.006496	-0.779297	-0.610840	-0.104248	0.552309	0.449447	-0.586081	0.386602
62507		9.734024	0.558727	-0.877654	0.005772	0.002689	-0.006647	-0.771729	-0.614746	-0.100830	0.552318	0.449451	-0.586068	0.386605
62508		9.734455	0.610123	-0.896047	0.009441	-0.000444	-0.004858	-0.775879	-0.614746	-0.102783	0.552268	0.449528	-0.586026	0.386649
62509		9.767578	0.609095	-0.881012	0.002710	0.000975	-0.007094	-0.778076	-0.611816	-0.106934	0.552283	0.449549	-0.586011	0.386626
62510		9.727215	0.591962	-0.877415	-0.008101	0.000110	-0.009927	-0.765625	-0.608154	-0.104980	0.552381	0.449485	-0.586067	0.386477
62511		9.743492	0.538140	-0.890389	-0.012085	0.001030	-0.009303	-0.774902	-0.612305	-0.106934	0.552505	0.449404	-0.586119	0.386314
62512		9.733572	0.538411	-0.906890	-0.005603	-0.000066	-0.010164	-0.767090	-0.610107	-0.104248	0.552589	0.449369	-0.586153	0.386183
62513		9.744334	0.553160	-0.903315	0.006033	0.002225	-0.008057	-0.775879	-0.617676	-0.101807	0.552609	0.449408	-0.586110	0.386176
62514		9.761693	0.568780	-0.869352	0.003681	0.002503	-0.005160	-0.774902	-0.610596	-0.109863	0.552614	0.449430	-0.586077	0.386192
62515		9.739827	0.605065	-0.872129	0.001882	0.003186	-0.005585	-0.776123	-0.610107	-0.104980	0.552669	0.449376	-0.586095	0.386150
62516		9.721387	0.552570	-0.864838	-0.007790	0.000166	-0.009115	-0.769531	-0.611084	-0.107422	0.552751	0.449316	-0.586149	0.386019
62517		9.721367	0.525135	-0.894281	-0.007242	0.004202	-0.011653	-0.774902	-0.617188	-0.107666	0.552887	0.449264	-0.586147	0.385888
62518		9.737031	0.541743	-0.881723	0.003761	0.002742	-0.011951	-0.770752	-0.618164	-0.109131	0.552949	0.449308	-0.586092	0.385832
62519		9.755927	0.558490	-0.883155	0.008289	0.000227	-0.008165	-0.778320	-0.605957	-0.101562	0.552959	0.449370	-0.586046	0.385815
62520		9.758411	0.600958	-0.844764	0.004502	0.000294	-0.006667	-0.770508	-0.622559	-0.100586	0.552940	0.449376	-0.586064	0.385808
62521		9.744829	0.579131	-0.856125	-0.001545	0.002361	-0.005059	-0.773926	-0.610107	-0.102539	0.552972	0.449395	-0.586026	0.385797
62522		9.724226	0.565573	-0.875071	0.002355	0.006838	-0.005838	-0.776855	-0.612793	-0.101562	0.553019	0.449365	-0.585993	0.385815
62523		9.727553	0.567812	-0.886805	0.008760	0.007511	-0.007635	-0.772705	-0.616455	-0.107422	0.553037	0.449399	-0.585908	0.385879
62524		9.720733	0.628113	-0.856199	0.013484	-0.000968	-0.007760	-0.775635	-0.618408	-0.103516	0.552997	0.449499	-0.585853	0.385903
62525		9.750200	0.576722	-0.866447	0.007528	-0.000815	-0.009722	-0.771484	-0.603271	-0.110107	0.552983	0.449591	-0.585804	0.385892
62526		9.750072	0.578801	-0.866498	0.003982	0.001078	-0.008352	-0.773682	-0.610107	-0.114746	0.553024	0.449558	-0.585833	0.385827
62527		9.745571	0.599840	-0.865841	0.008677	0.005639	-0.009356	-0.773193	-0.613037	-0.112549	0.553096	0.449540	-0.585796	0.385800
62528		9.738534	0.580089	-0.846743	0.009397	0.000372	-0.007574	-0.780029	-0.614502	-0.100342	0.553109	0.449563	-0.585784	0.385774
62529		9.733989	0.600665	-0.846818	0.008013	0.000691	-0.006751	-0.777344	-0.616699	-0.102783	0.553070	0.449622	-0.585753	0.385807
62530		9.753529	0.606382	-0.869858	0.004104	0.003477	-0.004411	-0.773926	-0.618164	-0.103516	0.553076	0.449624	-0.585729	0.385833
62531		9.737229	0.603844	-0.858799	0.005305	0.005343	-0.006611	-0.768311	-0.607178	-0.111572	0.553106	0.449649	-0.585664	0.385860
62532		9.732326	0.604207	-0.866283	-0.003785	0.002056	-0.006235	-0.778564	-0.615967	-0.109619	0.553197	0.449554	-0.585720	0.385755
62533		9.719844	0.592441	-0.891112	-0.002388	-0.000406	-0.003833	-0.771973	-0.614014	-0.104980	0.553235	0.449487	-0.585783	0.385682
62534		9.747485	0.600181	-0.862503	0.005147	0.001756	-0.005542	-0.777832	-0.608154	-0.115479	0.553240	0.449503	-0.585763	0.385686
62535		9.733200	0.617998	-0.879068	0.000130	0.000760	-0.004570	-0.782471	-0.613525	-0.098877	0.553299	0.449397	-0.585847	0.385598
62536		9.746365	0.592308	-0.848370	-0.004851	0.002438	-0.004601	-0.773438	-0.617920	-0.096191	0.553325	0.449346	-0.585880	0.385570
62537		9.733302	0.590479	-0.851115	-0.005870	0.001865	-0.004751	-0.769531	-0.612549	-0.107422	0.553349	0.449338	-0.585878	0.385548
62538		9.720848	0.579043	-0.875565	0.001711	0.003071	-0.008243	-0.770264	-0.617676	-0.104736	0.553407	0.449334	-0.585856	0.385504
62539		9.749076	0.577274	-0.868760	-0.000443	-0.002468	-0.004752	-0.776855	-0.610107	-0.108887	0.553408	0.449346	-0.585877	0.385455
62540		9.751244	0.568685	-0.868919	-0.000036	0.000804	-0.002723	-0.776123	-0.619385	-0.105957	0.553431	0.449270	-0.585941	0.385414
62541		9.777309	0.575469	-0.861936	0.004499	0.001782	-0.002659	-0.775879	-0.620361	-0.110107	0.553426	0.449270	-0.585930	0.385436
62542		9.727022	0.614296	-0.871458	0.002353	0.004690	-0.002616	-0.772949	-0.609863	-0.096680	0.553473	0.449224	-0.585919	0.385439
62543		9.725980	0.605038	-0.857446	-0.002007	0.000036	-0.005307	-0.783447	-0.610840	-0.105225	0.553463	0.449228	-0.585936	0.385424
62544		9.717623	0.554195	-0.890336	-0.005272	0.002795	-0.005851	-0.775635	-0.614014	-0.102539	0.553524	0.449139	-0.585992	0.385355
62545		9.718989	0.586314	-0.895014	0.002373	0.000905	-0.007900	-0.773193	-0.613770	-0.106445	0.553533	0.449169	-0.585975	0.385334
62546		9.751723	0.565466	-0.888041	0.001827	0.000505	-0.004580	-0.771973	-0.610840	-0.105957	0.553545	0.449156	-0.585990	0.385310
62547		9.753266	0.566735	-0.866429	-0.005288	-0.002022	-0.001623	-0.765625	-0.617188	-0.105713	0.553562	0.449078	-0.586079	0.385239
62548		9.758115	0.568179	-0.858225	-0.002500	0.000169	0.000235	-0.778076	-0.610596	-0.106445	0.553576	0.449033	-0.586112	0.385222
62549		9.724957	0.570625	-0.872707	0.001450	0.005030	-0.002828	-0.774902	-0.616699	-0.109863	0.553609	0.448964	-0.586128	0.385231
62550		9.712622	0.558091	-0.896881	0.006532	0.002931	-0.002358	-0.774902	-0.621338	-0.106445	0.553615	0.448948	-0.586117	0.385257
62551		9.727668	0.582103	-0.862939	0.007850	0.002233	-0.000895	-0.777344	-0.615967	-0.103516	0.553587	0.448969	-0.586085	0.385322
62552		9.749235	0.607406	-0.856277	0.008080	-0.000911	-0.001301	-0.785400	-0.604980	-0.103760	0.553521	0.449001	-0.586087	0.385377
62553		9.740659	0.585898	-0.859595	0.003643	0.001163	-0.004654	-0.775635	-0.612549	-0.101562	0.553503	0.448958	-0.586137	0.385376
62554		9.734702	0.575629	-0.854344	0.005024	0.000844	-0.005476	-0.774902	-0.615723	-0.111816	0.553480	0.448992	-0.586120	0.385396
62555		9.729777	0.575935	-0.862254	0.007136	0.003707	-0.007963	-0.768311	-0.612305	-0.107666	0.553525	0.449004	-0.586079	0.385380
62556		9.745031	0.570833	-0.858341	0.009973	0.001464	-0.004161	-0.779541	-0.620605	-0.102539	0.553505	0.449040	-0.586045	0.385417
62557		9.737880	0.579644	-0.866674	0.007294	0.000342	-0.001578	-0.784668	-0.617432	-0.108154	0.553450	0.449080	-0.586025	0.385481
62558		9.746036	0.581497	-0.871726	0.004732	0.000132	0.000941	-0.777344	-0.616943	-0.107178	0.553415	0.449034	-0.586074	0.385510
62559		9.741193	0.580484	-0.879619	0.002927	0.004284	-0.003215	-0.771240	-0.612061	-0.108887	0.553444	0.449003	-0.586061	0.385524
62560		9.737925	0.580805	-0.865387	0.004354	0.003006	-0.005818	-0.780762	-0.608398	-0.103760	0.553478	0.448992	-0.586046	0.385510
62561		9.738517	0.572220	-0.886981	0.005050	-0.001455	-0.006754	-0.781250	-0.623779	-0.108398	0.553449	0.449010	-0.586071	0.385493
62562		9.755940	0.557531	-0.884104	0.002474	-0.003000	-0.003733	-0.781250	-0.611328	-0.105469	0.553433	0.449028	-0.586094	0.385461
62563		9.771171	0.551854	-0.880887	0.004491	0.001781	-0.002657	-0.778809	-0.611328	-0.107666	0.553419	0.448996	-0.586119	0.385480
62564		9.748147	0.576486	-0.870323	0.001637	0.004339	0.002549	-0.779541	-0.610596	-0.111572	0.553427	0.448888	-0.586170	0.385516
