// Start Time: Unknown
// Update Rate: 40.0Hz
// Filter Profile: human (46.1)
// Firmware Version: 4.6.0
PacketCounter	SampleTimeFine	Acc_X	Acc_Y	Acc_Z	Gyr_X	Gyr_Y	Gyr_Z	Mag_X	Mag_Y	Mag_Z	Quat_q0	Quat_q1	Quat_q2	Quat_q3
23208		9.534826	-0.274136	-1.994725	0.000295	0.000797	-0.009497	-0.777832	0.522217	0.227539	0.420399	-0.593167	-0.500502	-0.470016
23209		9.554570	-0.301633	-1.958778	0.006517	0.008076	-0.010887	-0.769775	0.526611	0.232178	0.420434	-0.593017	-0.500579	-0.470092
23210		9.518106	-0.310976	-2.037215	0.002269	0.001302	-0.009432	-0.772705	0.529053	0.232422	0.420342	-0.593000	-0.500658	-0.470112
23211		9.517745	-0.288538	-2.077087	0.011486	-0.001564	-0.011706	-0.772217	0.528320	0.231689	0.420297	-0.592921	-0.500825	-0.470073
23212		9.520391	-0.299538	-2.043385	0.003788	-0.002732	-0.005853	-0.767334	0.522461	0.231934	0.420226	-0.592924	-0.500912	-0.470041
23213		9.503948	-0.301199	-2.004955	0.001214	-0.003697	-0.008421	-0.764893	0.528564	0.233398	0.420099	-0.592946	-0.501010	-0.470022
23214		9.552119	-0.308468	-2.032761	0.002876	-0.003939	-0.011618	-0.767822	0.526611	0.231934	0.419959	-0.592950	-0.501140	-0.470004
23215		9.556041	-0.319962	-2.049381	0.003532	0.003230	-0.008217	-0.764404	0.522461	0.230469	0.419911	-0.592915	-0.501208	-0.470018
23216		9.512418	-0.293514	-2.033388	0.004075	0.001259	-0.008241	-0.770508	0.528809	0.227539	0.419860	-0.592892	-0.501288	-0.470007
23217		9.536327	-0.286343	-2.067065	0.003395	-0.003755	-0.008552	-0.767822	0.529053	0.228516	0.419820	-0.592871	-0.501384	-0.469966
23218		9.515205	-0.283121	-2.074478	0.010816	-0.007303	-0.008797	-0.773438	0.523682	0.226074	0.419796	-0.592845	-0.501550	-0.469845
23219		9.530638	-0.297500	-2.024296	0.000841	-0.003683	-0.007099	-0.770508	0.530518	0.231201	0.419733	-0.592828	-0.501645	-0.469821
23220		9.553647	-0.289683	-2.024761	0.001842	-0.003619	-0.008213	-0.771729	0.533447	0.236328	0.419669	-0.592864	-0.501724	-0.469748
23221		9.552043	-0.296165	-2.053677	0.006204	-0.003733	-0.008475	-0.767578	0.527588	0.226807	0.419614	-0.592917	-0.501821	-0.469627
23222		9.541140	-0.283262	-2.059201	0.001101	0.008515	-0.007230	-0.770996	0.522949	0.225586	0.419643	-0.592840	-0.501839	-0.469680
23223		9.514873	-0.273881	-2.058538	-0.000096	0.003315	-0.010606	-0.774902	0.529785	0.225342	0.419597	-0.592757	-0.501924	-0.469734
23224		9.518718	-0.285293	-2.075576	-0.005164	-0.007257	-0.007528	-0.766602	0.522217	0.230957	0.419507	-0.592809	-0.501982	-0.469686
23225		9.517743	-0.331593	-2.007969	-0.008348	-0.001212	-0.007115	-0.770020	0.529541	0.222900	0.419346	-0.592869	-0.502022	-0.469711
23226		9.537477	-0.329700	-1.951659	-0.000439	-0.003102	-0.010744	-0.763916	0.521240	0.234619	0.419329	-0.592842	-0.502099	-0.469679
23227		9.568860	-0.319770	-1.980121	0.003762	-0.003763	-0.009879	-0.771240	0.526123	0.231445	0.419221	-0.592864	-0.502220	-0.469618
23228		9.566197	-0.285251	-2.070189	0.011066	0.010960	-0.009763	-0.768311	0.523926	0.226807	0.419330	-0.592748	-0.502270	-0.469614
23229		9.505849	-0.271104	-2.075302	0.001088	0.006744	-0.008029	-0.764648	0.529541	0.229980	0.419367	-0.592678	-0.502284	-0.469653
23230		9.504494	-0.277160	-2.103200	-0.004335	-0.005239	-0.009944	-0.768555	0.522705	0.229492	0.419280	-0.592757	-0.502315	-0.469600
23231		9.504445	-0.294598	-2.047673	-0.001605	-0.005490	-0.009301	-0.773682	0.520264	0.233643	0.419173	-0.592786	-0.502408	-0.469558
23232		9.543271	-0.302258	-1.996172	0.000915	0.002649	-0.008497	-0.764893	0.526123	0.234131	0.419098	-0.592778	-0.502483	-0.469556
23233		9.542677	-0.279393	-2.017898	0.000855	0.008045	-0.011060	-0.768799	0.528564	0.221924	0.419081	-0.592766	-0.502493	-0.469574
23234		9.542047	-0.285541	-2.061190	0.000400	0.006011	-0.009970	-0.776123	0.527588	0.224854	0.419176	-0.592674	-0.502486	-0.469614
23235		9.507597	-0.307182	-2.071776	0.007116	0.002123	-0.009860	-0.771729	0.521484	0.234619	0.419260	-0.592582	-0.502555	-0.469580
23236		9.483720	-0.310484	-2.038632	-0.001100	-0.004572	-0.009461	-0.770020	0.523438	0.222412	0.419116	-0.592640	-0.502651	-0.469534
23237		9.545987	-0.283143	-1.982406	0.001341	-0.004532	-0.008058	-0.770752	0.534912	0.232910	0.419130	-0.592595	-0.502727	-0.469496
23238		9.568738	-0.274926	-1.965230	-0.000588	0.003439	-0.006429	-0.772461	0.518311	0.231445	0.419175	-0.592682	-0.502660	-0.469418
23239		9.542593	-0.295081	-2.004104	-0.001081	0.002873	-0.011791	-0.773193	0.521240	0.232422	0.419076	-0.592620	-0.502747	-0.469492
23240		9.533720	-0.302852	-2.037708	0.007187	-0.001142	-0.012022	-0.760498	0.530273	0.226562	0.419026	-0.592564	-0.502877	-0.469467
23241		9.533381	-0.300168	-2.020924	0.001956	-0.000172	-0.009480	-0.766602	0.528320	0.224854	0.419098	-0.592581	-0.502860	-0.469400
23242		9.525886	-0.300548	-2.026591	-0.006115	0.001151	-0.004723	-0.765625	0.529541	0.230225	0.419146	-0.592616	-0.502776	-0.469403
23243		9.525159	-0.327060	-2.014525	0.000645	0.000787	-0.010833	-0.768555	0.533203	0.233154	0.419160	-0.592646	-0.502774	-0.469355
23244		9.528166	-0.317835	-2.054291	0.011806	-0.002920	-0.011549	-0.769531	0.526855	0.229248	0.419227	-0.592682	-0.502837	-0.469182
23245		9.540503	-0.269801	-2.055525	0.010857	-0.002328	-0.008704	-0.773682	0.521484	0.224854	0.419296	-0.592651	-0.502918	-0.469072
23246		9.547693	-0.265618	-2.033049	0.005105	0.000226	-0.008433	-0.775391	0.529297	0.225830	0.419339	-0.592538	-0.502997	-0.469092
23247		9.517049	-0.271772	-2.039381	-0.001411	-0.001777	-0.011132	-0.772949	0.524658	0.226074	0.419360	-0.592512	-0.503009	-0.469093
23248		9.535746	-0.307324	-2.049752	-0.001911	-0.000924	-0.010176	-0.767578	0.520020	0.231201	0.419345	-0.592469	-0.503044	-0.469124
23249		9.519123	-0.308086	-1.993723	0.001373	0.000408	-0.007962	-0.761719	0.527832	0.225098	0.419276	-0.592466	-0.503109	-0.469120
23250		9.520196	-0.307404	-2.045085	0.003862	-0.005983	-0.008019	-0.768066	0.521729	0.233398	0.419349	-0.592500	-0.503130	-0.468988
23251		9.534823	-0.300697	-2.017556	0.004760	-0.001911	-0.010203	-0.769531	0.522461	0.220703	0.419265	-0.592518	-0.503230	-0.468935
23252		9.542783	-0.267862	-2.007021	0.003313	-0.000468	-0.006401	-0.767822	0.524414	0.233887	0.419384	-0.592401	-0.503260	-0.468943
23253		9.535623	-0.268733	-2.029783	0.001869	-0.000445	-0.008920	-0.759766	0.516846	0.222900	0.419314	-0.592467	-0.503296	-0.468884
23254		9.515318	-0.265930	-2.070737	0.006069	-0.008183	-0.011243	-0.765625	0.529785	0.224609	0.419305	-0.592390	-0.503443	-0.468832
23255		9.524311	-0.302590	-2.003605	-0.000526	-0.005504	-0.005461	-0.766602	0.524170	0.222656	0.419405	-0.592453	-0.503402	-0.468706
23256		9.510709	-0.316829	-1.931372	-0.000132	-0.004125	-0.008284	-0.773926	0.521240	0.228271	0.419469	-0.592413	-0.503426	-0.468674
23257		9.548469	-0.313300	-1.999422	0.001864	-0.005761	-0.011313	-0.773438	0.531250	0.230957	0.419390	-0.592361	-0.503540	-0.468686
23258		9.567294	-0.300721	-2.061484	0.008275	0.003800	-0.008093	-0.770020	0.524658	0.230713	0.419518	-0.592351	-0.503535	-0.468590
23259		9.515947	-0.277395	-2.050865	0.005359	0.003872	-0.005310	-0.775635	0.518311	0.223633	0.419570	-0.592348	-0.503536	-0.468547
23260		9.496978	-0.295406	-2.067455	-0.006621	-0.001203	-0.010885	-0.772949	0.514404	0.224121	0.419492	-0.592223	-0.503599	-0.468708
23261		9.502231	-0.297942	-2.057044	0.002705	-0.008016	-0.012098	-0.769531	0.526123	0.229248	0.419388	-0.592081	-0.503784	-0.468781
23262		9.539427	-0.313790	-2.035033	0.005726	-0.007126	-0.005895	-0.775635	0.526367	0.229248	0.419417	-0.592143	-0.503830	-0.468627
23263		9.562405	-0.306637	-2.035273	0.001732	0.001816	-0.002970	-0.770264	0.526855	0.228027	0.419482	-0.592146	-0.503805	-0.468591
23264		9.528659	-0.271561	-2.036024	0.000625	0.004332	-0.009246	-0.769043	0.524170	0.230713	0.419554	-0.592126	-0.503783	-0.468577
23265		9.513343	-0.302669	-2.052206	0.008559	-0.001800	-0.011248	-0.774658	0.526123	0.227051	0.419555	-0.592119	-0.503874	-0.468487
23266		9.517509	-0.334127	-2.013119	0.006383	-0.009197	-0.008778	-0.773682	0.518799	0.221924	0.419582	-0.592102	-0.503973	-0.468377
23267		9.558438	-0.314653	-2.041917	-0.002789	-0.000065	-0.007898	-0.770508	0.531006	0.229980	0.419604	-0.591966	-0.504014	-0.468484
23268		9.528550	-0.263619	-2.037575	0.012991	0.003707	-0.009690	-0.775391	0.523682	0.227783	0.419782	-0.591943	-0.504040	-0.468327
23269		9.531710	-0.303743	-2.024659	0.013964	0.000614	-0.010105	-0.770996	0.527100	0.228516	0.419872	-0.591814	-0.504165	-0.468275
23270		9.538654	-0.279494	-2.058520	0.002013	0.001880	-0.009259	-0.761230	0.525635	0.222412	0.419925	-0.591816	-0.504164	-0.468226
23271		9.525121	-0.273499	-2.041376	-0.003687	0.003302	-0.008050	-0.772461	0.523682	0.228516	0.420055	-0.591823	-0.504083	-0.468188
23272		9.514156	-0.289640	-2.069001	0.001647	0.000121	-0.008730	-0.764893	0.525635	0.225098	0.420045	-0.591807	-0.504121	-0.468176
23273		9.526637	-0.318869	-2.039538	0.002745	0.001857	-0.011911	-0.769775	0.528809	0.223633	0.420135	-0.591778	-0.504132	-0.468121
23274		9.542172	-0.283346	-2.022659	-0.000691	0.001386	-0.006671	-0.767090	0.522461	0.234375	0.420279	-0.591768	-0.504077	-0.468063
23275		9.560740	-0.290434	-1.993283	-0.003528	0.003501	-0.003655	-0.761719	0.529053	0.226562	0.420176	-0.591910	-0.504032	-0.468023
23276		9.517848	-0.294423	-2.032258	0.001079	0.007760	-0.011846	-0.770020	0.521973	0.223145	0.420315	-0.591925	-0.503961	-0.467957
23277		9.522912	-0.306111	-2.081734	0.011334	-0.001015	-0.014405	-0.763672	0.521973	0.227539	0.420401	-0.591761	-0.504099	-0.467938
23278		9.535577	-0.306559	-2.047605	0.005008	-0.000031	-0.007880	-0.770508	0.523438	0.223877	0.420426	-0.591783	-0.504130	-0.467854
23279		9.507418	-0.296611	-1.980599	-0.001136	0.001121	-0.004781	-0.770264	0.519775	0.231934	0.420493	-0.591755	-0.504105	-0.467857
23280		9.525999	-0.313526	-2.047490	0.004092	-0.001598	-0.008125	-0.774414	0.522461	0.229248	0.420380	-0.591788	-0.504190	-0.467825
23281		9.562100	-0.307888	-2.029904	-0.004295	0.001062	-0.011356	-0.767090	0.527344	0.228027	0.420276	-0.591776	-0.504225	-0.467897
23282		9.537339	-0.290508	-2.018878	0.001870	0.004497	-0.008836	-0.765137	0.523438	0.234375	0.420356	-0.591803	-0.504183	-0.467835
23283		9.512065	-0.282894	-2.069155	0.008904	0.005297	-0.009394	-0.763672	0.518066	0.230469	0.420338	-0.591863	-0.504216	-0.467739
23284		9.519996	-0.307633	-2.084745	-0.005366	-0.001059	-0.010472	-0.765625	0.527100	0.229248	0.420171	-0.591946	-0.504241	-0.467758
23285		9.547934	-0.274596	-2.034193	-0.013085	0.000594	-0.004735	-0.776855	0.526855	0.220459	0.420118	-0.592130	-0.504092	-0.467733
23286		9.513778	-0.287646	-1.966691	-0.004082	0.001919	-0.005229	-0.762939	0.520752	0.227051	0.420257	-0.592034	-0.504034	-0.467792
23287		9.539481	-0.320675	-1.937850	-0.003638	-0.008070	-0.009603	-0.763672	0.528564	0.231201	0.420159	-0.592126	-0.504068	-0.467726
23288		9.574866	-0.323675	-1.982741	0.000080	0.002377	-0.013124	-0.776367	0.529297	0.225098	0.420160	-0.592223	-0.504031	-0.467644
23289		9.568405	-0.266206	-1.993929	0.005733	0.010211	-0.008052	-0.768555	0.519043	0.224121	0.420359	-0.592095	-0.503986	-0.467674
23290		9.521426	-0.285896	-2.020791	-0.004570	0.005933	-0.004977	-0.771484	0.517578	0.227539	0.420385	-0.592041	-0.503939	-0.467770
23291		9.506875	-0.317583	-2.053069	-0.007538	0.003919	-0.010251	-0.776123	0.530762	0.227539	0.420266	-0.591998	-0.503953	-0.467917
23292		9.485638	-0.313296	-2.042396	0.003074	-0.004469	-0.011836	-0.768555	0.529297	0.226318	0.420306	-0.591999	-0.503990	-0.467839
23293		9.525490	-0.321543	-2.042789	0.012024	-0.009085	-0.008624	-0.775635	0.532471	0.226562	0.420421	-0.592032	-0.504059	-0.467620
23294		9.562802	-0.279214	-1.993201	-0.002873	-0.000347	-0.007340	-0.767578	0.527832	0.225342	0.420500	-0.592070	-0.503992	-0.467574
23295		9.565484	-0.269782	-2.015289	-0.002270	0.005409	-0.010271	-0.770752	0.525879	0.227295	0.420586	-0.592063	-0.503924	-0.467578
23296		9.506590	-0.305979	-2.037393	0.000892	0.002280	-0.010816	-0.774658	0.523438	0.235596	0.420612	-0.592042	-0.503931	-0.467575
23297		9.504963	-0.311842	-2.048419	0.002541	-0.001464	-0.007786	-0.760742	0.530273	0.219238	0.420489	-0.592108	-0.504003	-0.467524
23298		9.531392	-0.287502	-2.026216	0.000232	-0.002360	-0.008821	-0.769531	0.528564	0.225342	0.420680	-0.592137	-0.503915	-0.467409
23299		9.555405	-0.300023	-2.004188	0.005522	-0.009701	-0.004996	-0.771729	0.528809	0.225586	0.420755	-0.592200	-0.503939	-0.467236
23300		9.560539	-0.304046	-1.994345	0.012530	-0.004988	-0.009492	-0.770508	0.521973	0.228027	0.420878	-0.592157	-0.504021	-0.467093
23301		9.533711	-0.266746	-1.991131	0.003022	-0.003706	-0.007243	-0.764893	0.524170	0.228027	0.420845	-0.592160	-0.504083	-0.467050
23302		9.527691	-0.288186	-1.991479	0.006978	-0.003032	-0.009416	-0.774414	0.526367	0.224365	0.420871	-0.592179	-0.504141	-0.466940
23303		9.535688	-0.313715	-2.025860	0.010208	-0.009046	-0.009823	-0.766113	0.520752	0.226318	0.420929	-0.592120	-0.504259	-0.466836
23304		9.533258	-0.319494	-2.021962	0.007391	-0.007321	-0.009103	-0.768555	0.525391	0.228027	0.420917	-0.592112	-0.504366	-0.466741
23305		9.538910	-0.294946	-2.023752	0.007779	-0.004521	-0.005605	-0.773193	0.526123	0.231201	0.420965	-0.592141	-0.504412	-0.466611
23306		9.550387	-0.276215	-2.030898	0.010828	-0.007187	-0.008820	-0.773682	0.521973	0.223633	0.420953	-0.592154	-0.504536	-0.466471
23307		9.532982	-0.315764	-2.042538	0.003087	-0.001657	-0.007015	-0.765137	0.526855	0.227295	0.420989	-0.592073	-0.504584	-0.466491
23308		9.531657	-0.293352	-2.066029	0.007274	-0.001926	-0.011684	-0.764404	0.519043	0.234863	0.421045	-0.592074	-0.504633	-0.466385
23309		9.521768	-0.330032	-2.072230	0.005064	-0.009609	-0.008635	-0.774170	0.524658	0.234619	0.420874	-0.592190	-0.504763	-0.466251
23310		9.518415	-0.334492	-2.016918	0.000215	-0.000592	-0.008027	-0.777100	0.523682	0.227051	0.420772	-0.592245	-0.504805	-0.466229
23311		9.530529	-0.286792	-2.034901	0.002947	-0.000817	-0.007387	-0.767334	0.523926	0.223389	0.420781	-0.592179	-0.504858	-0.466246
23312		9.540307	-0.304214	-2.057893	0.002482	-0.008830	-0.010408	-0.774414	0.531738	0.222900	0.420789	-0.592174	-0.504924	-0.466174
23313		9.529051	-0.320380	-2.087474	0.001624	-0.004807	-0.008831	-0.778076	0.526123	0.225830	0.420890	-0.592157	-0.504919	-0.466111
23314		9.561590	-0.291515	-1.992015	-0.000330	0.000991	-0.010306	-0.763916	0.533447	0.227295	0.420903	-0.592079	-0.504947	-0.466168
23315		9.527720	-0.285034	-2.015260	-0.006098	0.000335	-0.009322	-0.768066	0.525635	0.222412	0.420956	-0.592196	-0.504837	-0.466090
23316		9.513398	-0.316979	-2.065526	-0.003783	-0.000536	-0.009087	-0.763184	0.523682	0.224365	0.420998	-0.592181	-0.504802	-0.466109
23317		9.488335	-0.328839	-2.060403	0.004938	-0.002436	-0.010423	-0.773438	0.530029	0.225830	0.421054	-0.592162	-0.504842	-0.466040
23318		9.547964	-0.335603	-1.986343	-0.004954	-0.003974	-0.011664	-0.771729	0.522461	0.231934	0.421036	-0.592183	-0.504837	-0.466034
23319		9.587309	-0.265119	-2.014722	0.004515	0.009954	-0.011358	-0.782959	0.524902	0.220215	0.421041	-0.592100	-0.504875	-0.466093
23320		9.544592	-0.269218	-2.052878	0.001126	0.007309	-0.009201	-0.770752	0.518555	0.230225	0.421151	-0.591899	-0.504876	-0.466248
23321		9.495479	-0.296017	-2.074840	-0.004478	0.000493	-0.010235	-0.772461	0.526855	0.229004	0.421019	-0.591903	-0.504918	-0.466317
23322		9.502414	-0.289642	-2.035226	-0.004651	0.000295	-0.014639	-0.770752	0.525391	0.230469	0.420949	-0.591904	-0.504939	-0.466355
23323		9.538195	-0.311580	-2.005793	0.008164	-0.001727	-0.009945	-0.769287	0.525391	0.229980	0.420964	-0.591897	-0.505017	-0.466267
23324		9.548566	-0.300589	-2.039664	0.003371	0.001230	-0.008489	-0.766113	0.523682	0.225830	0.420980	-0.591911	-0.505033	-0.466217
23325		9.533691	-0.274049	-2.045251	-0.004766	0.007105	-0.010890	-0.770996	0.520264	0.224854	0.420997	-0.591890	-0.504979	-0.466288
23326		9.532287	-0.250254	-2.050152	0.000944	0.003950	-0.012900	-0.772949	0.522705	0.234375	0.420996	-0.591786	-0.505027	-0.466369
23327		9.528440	-0.291506	-2.043153	-0.001032	-0.001138	-0.010750	-0.761475	0.533447	0.223145	0.420868	-0.591831	-0.505085	-0.466364
23328		9.527932	-0.317135	-2.014031	-0.004363	0.003197	-0.008276	-0.766846	0.525635	0.229980	0.421003	-0.591908	-0.504944	-0.466297
23329		9.545009	-0.301891	-1.990251	-0.000127	0.006763	-0.011923	-0.767090	0.522217	0.229492	0.421013	-0.591904	-0.504925	-0.466313
23330		9.551869	-0.276986	-2.023127	0.010339	0.004583	-0.011495	-0.770752	0.524170	0.232666	0.421066	-0.591836	-0.504997	-0.466275
23331		9.550500	-0.282963	-2.033123	0.009271	0.004230	-0.009810	-0.767090	0.530762	0.230225	0.421090	-0.591805	-0.505059	-0.466224
23332		9.503007	-0.273265	-2.039122	0.001273	0.002931	-0.010428	-0.766602	0.521973	0.221436	0.421129	-0.591859	-0.505020	-0.466162
23333		9.506886	-0.284152	-2.038822	0.007128	-0.004221	-0.011356	-0.768066	0.522705	0.228271	0.421188	-0.591791	-0.505100	-0.466111
23334		9.559700	-0.294224	-2.004096	0.002962	-0.001185	-0.009692	-0.765137	0.524170	0.224854	0.421171	-0.591794	-0.505143	-0.466074
23335		9.544530	-0.267961	-2.010767	0.003867	0.000389	-0.009450	-0.770020	0.520264	0.225098	0.421227	-0.591781	-0.505153	-0.466029
23336		9.533570	-0.255635	-2.033877	0.000763	-0.000778	-0.007258	-0.773926	0.523926	0.228760	0.421223	-0.591755	-0.505180	-0.466037
23337		9.537598	-0.295817	-2.038541	-0.003862	-0.000820	-0.008528	-0.768799	0.526611	0.228760	0.421158	-0.591777	-0.505185	-0.466062
23338		9.520166	-0.305585	-2.027514	0.006472	-0.000759	-0.009976	-0.770996	0.517822	0.221436	0.421193	-0.591780	-0.505224	-0.465984
23339		9.524723	-0.317566	-2.061421	0.007756	-0.004130	-0.011149	-0.771240	0.525635	0.229980	0.421218	-0.591660	-0.505350	-0.465977
23340		9.536887	-0.317790	-2.011218	0.006383	-0.003818	-0.006400	-0.767578	0.517334	0.227051	0.421228	-0.591697	-0.505396	-0.465872
23341		9.544171	-0.285314	-2.001049	0.006088	-0.000369	-0.006348	-0.775146	0.527344	0.222900	0.421233	-0.591664	-0.505457	-0.465843
23342		9.531633	-0.281246	-2.034837	-0.003039	0.003637	-0.008430	-0.768555	0.525146	0.227295	0.421291	-0.591616	-0.505414	-0.465898
23343		9.519270	-0.276746	-2.067896	0.001450	0.005914	-0.009038	-0.772949	0.525635	0.228027	0.421339	-0.591595	-0.505387	-0.465910
23344		9.517104	-0.310870	-2.050272	0.012888	-0.008090	-0.010128	-0.772705	0.527100	0.227783	0.421364	-0.591572	-0.505524	-0.465768
23345		9.544461	-0.306485	-2.006653	-0.007348	-0.009352	-0.007620	-0.767578	0.523193	0.230957	0.421260	-0.591686	-0.505520	-0.465722
23346		9.535470	-0.276896	-1.957741	0.001791	0.001731	-0.005852	-0.775635	0.520752	0.236816	0.421253	-0.591732	-0.505509	-0.465682
23347		9.510875	-0.290493	-1.969330	0.015165	-0.003631	-0.007509	-0.769775	0.525391	0.230469	0.421212	-0.591717	-0.505670	-0.465564
23348		9.555012	-0.322042	-2.064474	-0.000389	-0.005993	-0.010631	-0.770020	0.529785	0.227051	0.421130	-0.591783	-0.505712	-0.465508
23349		9.558145	-0.275433	-2.055914	0.011049	-0.007688	-0.009027	-0.765137	0.519531	0.229492	0.421197	-0.591801	-0.505784	-0.465346
23350		9.540115	-0.285580	-2.029111	0.004759	-0.003979	-0.005492	-0.766357	0.520752	0.221680	0.421174	-0.591844	-0.505829	-0.465263
23351		9.520075	-0.273989	-1.990638	-0.003449	0.001211	-0.009631	-0.757568	0.529785	0.222412	0.421186	-0.591806	-0.505815	-0.465316
23352		9.513275	-0.303070	-2.017951	-0.001958	0.000444	-0.011710	-0.765869	0.529297	0.232666	0.421257	-0.591858	-0.505739	-0.465269
23353		9.564667	-0.330613	-2.071594	0.005649	0.006708	-0.009686	-0.776367	0.530762	0.235352	0.421315	-0.591881	-0.505708	-0.465221
23354		9.503056	-0.317338	-2.043825	0.005514	0.002992	-0.007841	-0.777100	0.519043	0.231934	0.421328	-0.591907	-0.505715	-0.465168
23355		9.500864	-0.265586	-2.045574	0.003335	-0.006124	-0.011112	-0.765625	0.521973	0.226074	0.421206	-0.591879	-0.505859	-0.465158
23356		9.540158	-0.272289	-2.012079	0.000078	-0.006078	-0.006987	-0.768311	0.528564	0.229248	0.421176	-0.591930	-0.505879	-0.465098
23357		9.554705	-0.293853	-1.972208	-0.006997	0.001539	-0.004744	-0.775879	0.523193	0.225342	0.421163	-0.592033	-0.505771	-0.465096
23358		9.530766	-0.278660	-2.011919	-0.000371	0.004156	-0.011034	-0.771484	0.529297	0.230469	0.421174	-0.591942	-0.505792	-0.465180
23359		9.533905	-0.270102	-2.068429	0.008304	-0.004302	-0.010382	-0.771484	0.522461	0.229004	0.421193	-0.591958	-0.505854	-0.465075
23360		9.531365	-0.304126	-2.034513	0.001451	-0.003195	-0.004608	-0.769531	0.518066	0.219238	0.421174	-0.591991	-0.505871	-0.465031
23361		9.517088	-0.298085	-2.001999	-0.008197	-0.004337	-0.009849	-0.766846	0.526123	0.233398	0.421115	-0.591958	-0.505885	-0.465110
23362		9.559022	-0.296805	-1.990055	-0.006263	0.002533	-0.011214	-0.776367	0.517090	0.230713	0.421025	-0.592036	-0.505839	-0.465143
23363		9.524124	-0.328415	-2.046331	0.008773	-0.002990	-0.008245	-0.769775	0.517822	0.229248	0.420992	-0.591963	-0.505976	-0.465117
23364		9.518829	-0.322285	-2.075490	0.006451	-0.003524	-0.006975	-0.775879	0.526123	0.236084	0.420971	-0.591944	-0.506060	-0.465068
23365		9.537968	-0.262153	-2.009609	-0.002184	-0.001779	-0.008505	-0.768311	0.525391	0.228027	0.420867	-0.592016	-0.506070	-0.465061
23366		9.524391	-0.285451	-1.998811	0.000780	-0.005710	-0.007348	-0.760986	0.521729	0.229004	0.420848	-0.592075	-0.506078	-0.464994
23367		9.517274	-0.315337	-2.027936	-0.001797	-0.008113	-0.008412	-0.775146	0.522217	0.221680	0.420766	-0.592182	-0.506089	-0.464920
23368		9.542121	-0.327836	-2.040453	0.003760	-0.010020	-0.008496	-0.768799	0.522217	0.222900	0.420773	-0.592135	-0.506188	-0.464866
23369		9.563429	-0.288929	-1.985950	-0.000585	-0.001229	-0.007116	-0.768555	0.527588	0.232178	0.420807	-0.592112	-0.506182	-0.464870
23370		9.530683	-0.275187	-1.981441	0.002780	0.000046	-0.007775	-0.768555	0.517822	0.229248	0.420813	-0.592163	-0.506165	-0.464819
23371		9.519256	-0.301289	-2.071811	0.005848	-0.005759	-0.010285	-0.764160	0.531006	0.227539	0.420763	-0.592141	-0.506273	-0.464774
23372		9.549454	-0.290172	-2.067201	0.007523	-0.006322	-0.007957	-0.775635	0.530273	0.228027	0.420830	-0.592207	-0.506278	-0.464624
23373		9.533122	-0.263880	-2.041239	-0.003391	-0.004084	-0.004173	-0.762207	0.524658	0.223633	0.420831	-0.592278	-0.506228	-0.464588
23374		9.515642	-0.302648	-2.018954	-0.005826	-0.004543	-0.007878	-0.770264	0.526367	0.231934	0.420812	-0.592348	-0.506178	-0.464570
23375		9.514536	-0.309381	-2.064947	0.005772	-0.004641	-0.011228	-0.763428	0.525391	0.227783	0.420786	-0.592363	-0.506245	-0.464500
23376		9.519003	-0.311850	-2.021923	0.001460	-0.015108	-0.005006	-0.769287	0.521973	0.225586	0.420737	-0.592501	-0.506275	-0.464336
23377		9.567729	-0.309193	-1.989243	-0.003051	-0.002320	-0.004708	-0.768311	0.527588	0.224609	0.420735	-0.592522	-0.506250	-0.464339
23378		9.541210	-0.273068	-2.018727	0.002337	0.003953	-0.010402	-0.770264	0.527588	0.221680	0.420819	-0.592468	-0.506228	-0.464356
23379		9.525319	-0.284616	-2.074814	0.003432	-0.002013	-0.010669	-0.766846	0.529541	0.231934	0.420894	-0.592410	-0.506252	-0.464336
23380		9.519796	-0.305570	-2.074706	0.002515	-0.001818	-0.010114	-0.763428	0.528564	0.226807	0.420890	-0.592461	-0.506250	-0.464276
23381		9.502103	-0.314975	-2.047056	0.001042	-0.002828	-0.008828	-0.767090	0.522705	0.226562	0.420918	-0.592509	-0.506226	-0.464215
23382		9.535332	-0.325869	-2.086837	0.004100	-0.008247	-0.009037	-0.770020	0.526611	0.231201	0.420900	-0.592522	-0.506296	-0.464139
23383		9.566082	-0.305179	-2.020854	0.004928	-0.006947	-0.008230	-0.771729	0.528564	0.225830	0.420881	-0.592564	-0.506349	-0.464045
23384		9.552139	-0.271475	-2.016933	0.006545	0.001980	-0.008040	-0.770752	0.532715	0.229492	0.420985	-0.592509	-0.506354	-0.464016
23385		9.514682	-0.281726	-2.044972	0.000798	0.002287	-0.010855	-0.768799	0.528809	0.229248	0.421022	-0.592514	-0.506322	-0.464010
23386		9.500640	-0.314234	-2.095726	0.003469	-0.008336	-0.009246	-0.767578	0.529785	0.227539	0.421004	-0.592567	-0.506365	-0.463911
23387		9.543591	-0.305077	-2.057181	-0.003094	-0.004752	-0.007239	-0.770264	0.529053	0.218506	0.420993	-0.592644	-0.506326	-0.463866
23388		9.544042	-0.265579	-2.007991	-0.000968	0.000548	-0.004992	-0.773926	0.521484	0.229492	0.421108	-0.592618	-0.506257	-0.463871
23389		9.533613	-0.283245	-2.052996	0.007280	-0.002583	-0.008484	-0.776123	0.524414	0.224609	0.421113	-0.592563	-0.506344	-0.463841
23390		9.547483	-0.313311	-2.057958	0.004053	-0.001919	-0.010466	-0.771240	0.533203	0.227295	0.421137	-0.592482	-0.506408	-0.463853
23391		9.539651	-0.312929	-2.047086	-0.001361	-0.000862	-0.010004	-0.766846	0.528564	0.226562	0.421161	-0.592504	-0.506377	-0.463837
23392		9.518141	-0.309358	-2.019195	0.003376	0.001914	-0.006780	-0.768311	0.520996	0.224854	0.421243	-0.592502	-0.506344	-0.463802
23393		9.513246	-0.303401	-2.064432	0.004466	-0.001267	-0.010063	-0.772461	0.524658	0.232910	0.421263	-0.592442	-0.506399	-0.463800
23394		9.536684	-0.295257	-2.098685	0.003230	-0.004609	-0.009766	-0.769043	0.515625	0.227051	0.421208	-0.592457	-0.506464	-0.463759
23395		9.537384	-0.255934	-2.066526	0.006630	-0.000897	-0.007900	-0.766846	0.528076	0.226562	0.421214	-0.592387	-0.506543	-0.463757
23396		9.504708	-0.298532	-2.020622	-0.003143	0.001570	-0.008667	-0.768066	0.520020	0.234863	0.421231	-0.592407	-0.506492	-0.463772
23397		9.519125	-0.300738	-2.071226	-0.004291	-0.003268	-0.009733	-0.765381	0.527588	0.228271	0.421094	-0.592469	-0.506514	-0.463792
23398		9.541780	-0.291563	-2.072356	0.003185	-0.008046	-0.008486	-0.770996	0.520508	0.229980	0.421085	-0.592528	-0.506547	-0.463690
23399		9.544759	-0.301671	-2.021946	0.004217	0.001448	-0.006771	-0.766357	0.523193	0.223877	0.421099	-0.592492	-0.506574	-0.463693
23400		9.516641	-0.302408	-2.050524	-0.002076	-0.000851	-0.007342	-0.779297	0.523193	0.233887	0.421114	-0.592492	-0.506552	-0.463704
23401		9.528546	-0.283733	-2.090740	0.005670	-0.003128	-0.009878	-0.766846	0.531982	0.226074	0.421066	-0.592456	-0.506647	-0.463691
23402		9.560841	-0.292473	-2.061567	0.002170	0.003405	-0.009278	-0.771240	0.526611	0.230713	0.421155	-0.592444	-0.506603	-0.463673
23403		9.512317	-0.282044	-2.016514	-0.002132	0.005473	-0.008771	-0.768066	0.521484	0.234863	0.421159	-0.592435	-0.506558	-0.463729
23404		9.487030	-0.304022	-2.072412	-0.000226	-0.003006	-0.009250	-0.775635	0.529053	0.237549	0.421068	-0.592483	-0.506588	-0.463718
23405		9.524641	-0.317667	-2.033207	0.003344	-0.009260	-0.010419	-0.771240	0.526367	0.233887	0.420968	-0.592554	-0.506667	-0.463632
23406		9.561963	-0.331032	-1.977076	-0.000868	-0.002718	-0.007154	-0.767578	0.526611	0.236816	0.420917	-0.592614	-0.506661	-0.463608
23407		9.547102	-0.278232	-2.046360	0.006654	0.003944	-0.010697	-0.768311	0.523926	0.222900	0.420928	-0.592607	-0.506678	-0.463588
23408		9.534732	-0.274899	-2.096894	0.008297	-0.000052	-0.007085	-0.772705	0.528076	0.227783	0.421035	-0.592539	-0.506708	-0.463545
23409		9.494623	-0.292488	-2.086055	0.000746	-0.002541	-0.008071	-0.773193	0.534180	0.236816	0.421043	-0.592547	-0.506710	-0.463525
23410		9.514967	-0.289514	-2.046638	-0.001924	-0.001058	-0.013091	-0.769531	0.517578	0.237793	0.420973	-0.592605	-0.506703	-0.463522
23411		9.530295	-0.310314	-2.023490	0.001444	-0.002171	-0.008432	-0.772949	0.525879	0.232178	0.420871	-0.592634	-0.506756	-0.463520
23412		9.544669	-0.313384	-2.074132	0.013492	-0.000531	-0.007356	-0.768799	0.524414	0.233643	0.420951	-0.592583	-0.506827	-0.463435
23413		9.529134	-0.287912	-2.080485	-0.000498	0.002485	-0.008977	-0.764893	0.528809	0.227295	0.420921	-0.592600	-0.506809	-0.463461
23414		9.521451	-0.259505	-2.097984	-0.002015	0.000434	-0.011729	-0.762939	0.532715	0.228027	0.420919	-0.592617	-0.506777	-0.463476
23415		9.530889	-0.302900	-2.040248	0.001090	-0.002166	-0.007100	-0.773682	0.528320	0.236084	0.420963	-0.592691	-0.506717	-0.463406
23416		9.509682	-0.327494	-2.000421	-0.007716	0.001757	-0.010501	-0.773438	0.518311	0.227051	0.420863	-0.592747	-0.506670	-0.463477
23417		9.538378	-0.294827	-2.017051	0.002646	0.003960	-0.011754	-0.774902	0.528564	0.225342	0.420868	-0.592635	-0.506724	-0.463556
23418		9.547099	-0.319554	-2.032180	0.011635	0.002643	-0.009265	-0.773926	0.518555	0.231445	0.420999	-0.592529	-0.506770	-0.463523
23419		9.536072	-0.307740	-2.054308	0.007330	0.004703	-0.008759	-0.773682	0.523682	0.239990	0.421029	-0.592435	-0.506825	-0.463555
23420		9.495252	-0.267450	-2.049754	0.000422	0.001916	-0.011842	-0.771729	0.519531	0.227783	0.420936	-0.592448	-0.506851	-0.463596
23421		9.516901	-0.266361	-2.077650	0.005390	-0.003211	-0.011425	-0.771484	0.534668	0.227295	0.420918	-0.592388	-0.506942	-0.463590
23422		9.547722	-0.310521	-2.030655	-0.004569	0.002212	-0.009464	-0.771973	0.518799	0.231445	0.420937	-0.592423	-0.506857	-0.463620
23423		9.530114	-0.291353	-2.013638	-0.007351	0.005944	-0.008512	-0.773682	0.524414	0.226562	0.420872	-0.592413	-0.506808	-0.463745
23424		9.546012	-0.285242	-2.035138	-0.001624	0.001844	-0.006718	-0.773926	0.529541	0.231934	0.420889	-0.592397	-0.506776	-0.463785
23425		9.519519	-0.277791	-2.052391	0.001407	0.000995	-0.009152	-0.766602	0.521240	0.227783	0.420892	-0.592405	-0.506761	-0.463787
23426		9.509826	-0.284420	-2.017360	-0.002185	0.008253	-0.011804	-0.774414	0.517334	0.226318	0.420900	-0.592348	-0.506724	-0.463895
23427		9.522134	-0.292507	-2.026763	-0.004015	0.003042	-0.012508	-0.769775	0.523438	0.230957	0.420845	-0.592270	-0.506750	-0.464016
23428		9.527155	-0.331846	-2.030631	0.004782	0.000524	-0.010613	-0.769531	0.525146	0.229004	0.420847	-0.592245	-0.506780	-0.464012
23429		9.544443	-0.317781	-2.041742	0.004420	0.000907	-0.006974	-0.761230	0.518799	0.226562	0.420890	-0.592240	-0.506772	-0.463989
23430		9.545144	-0.278466	-2.008152	-0.007013	0.006315	-0.007543	-0.770996	0.533203	0.230469	0.420876	-0.592256	-0.506677	-0.464085
23431		9.530146	-0.252970	-2.030019	0.003914	0.007974	-0.010322	-0.771240	0.521973	0.230713	0.420961	-0.592225	-0.506620	-0.464110
23432		9.543555	-0.291132	-2.060990	0.006287	0.003594	-0.011679	-0.770752	0.526611	0.237061	0.420980	-0.592156	-0.506661	-0.464136
23433		9.502802	-0.317312	-2.094678	-0.004861	-0.002719	-0.008214	-0.766846	0.522705	0.233398	0.420873	-0.592262	-0.506618	-0.464144
23434		9.489135	-0.301697	-1.999977	-0.006567	-0.001409	-0.005934	-0.768555	0.527832	0.228271	0.420788	-0.592363	-0.506549	-0.464168
23435		9.537482	-0.296661	-1.932213	-0.002167	-0.004952	-0.007803	-0.768066	0.525635	0.227783	0.420755	-0.592432	-0.506521	-0.464139
23436		9.551943	-0.298764	-1.982958	0.005048	0.001642	-0.012892	-0.772461	0.524902	0.232666	0.420784	-0.592383	-0.506547	-0.464148
23437		9.561085	-0.295739	-2.043679	0.012891	0.007695	-0.011648	-0.771973	0.526367	0.229736	0.420878	-0.592272	-0.506592	-0.464155
23438		9.515600	-0.280484	-2.072168	0.008356	0.000259	-0.007658	-0.770752	0.523682	0.225342	0.420938	-0.592247	-0.506611	-0.464111
23439		9.522245	-0.247329	-2.062137	-0.000142	-0.004118	-0.008316	-0.770020	0.525879	0.228516	0.420923	-0.592258	-0.506621	-0.464101
23440		9.514796	-0.275471	-2.039552	0.003064	-0.002358	-0.011664	-0.771729	0.528564	0.232910	0.420910	-0.592250	-0.506651	-0.464090
23441		9.515244	-0.301468	-2.027909	0.003971	-0.002166	-0.009913	-0.770264	0.535400	0.225098	0.420897	-0.592275	-0.506662	-0.464058
23442		9.561376	-0.313260	-2.015504	0.007797	0.000069	-0.010746	-0.769287	0.530029	0.229004	0.420995	-0.592252	-0.506657	-0.464003
23443		9.547604	-0.279789	-2.027335	0.005266	0.005283	-0.009765	-0.770996	0.520020	0.230957	0.421069	-0.592223	-0.506624	-0.464010
23444		9.517755	-0.260365	-2.078169	0.002412	0.003518	-0.007752	-0.763184	0.529541	0.228027	0.421074	-0.592195	-0.506620	-0.464046
23445		9.497121	-0.285680	-2.054706	0.000709	0.000249	-0.011105	-0.771240	0.526855	0.226562	0.421081	-0.592228	-0.506581	-0.464039
23446		9.542941	-0.296582	-2.025359	0.000317	-0.001796	-0.009996	-0.771240	0.521729	0.226074	0.421074	-0.592232	-0.506579	-0.464044
23447		9.552047	-0.283686	-2.008294	-0.000547	0.004259	-0.008196	-0.766113	0.523682	0.227051	0.421094	-0.592193	-0.506550	-0.464105
23448		9.529854	-0.289656	-2.024412	0.002820	0.004173	-0.007349	-0.771973	0.528809	0.239746	0.421147	-0.592177	-0.506511	-0.464121
23449		9.513293	-0.300408	-2.029201	0.002922	0.002301	-0.011021	-0.766602	0.521729	0.222900	0.421104	-0.592210	-0.506498	-0.464131
23450		9.546591	-0.271745	-2.001234	0.002585	-0.003285	-0.011501	-0.771484	0.525146	0.228027	0.421102	-0.592181	-0.506539	-0.464126
23451		9.518290	-0.299733	-1.984507	0.000872	-0.001600	-0.006911	-0.759766	0.524902	0.232910	0.421102	-0.592202	-0.506523	-0.464117
23452		9.525908	-0.333674	-2.028407	0.006650	0.001201	-0.007689	-0.768555	0.516602	0.228760	0.421134	-0.592241	-0.506495	-0.464069
23453		9.550839	-0.279454	-2.001203	0.000221	-0.000303	-0.008634	-0.767090	0.520264	0.224609	0.421096	-0.592227	-0.506512	-0.464102
23454		9.548203	-0.256326	-1.990499	-0.003878	0.001558	-0.006017	-0.770508	0.520508	0.231445	0.421093	-0.592240	-0.506456	-0.464149
23455		9.528903	-0.284272	-2.034903	0.001195	0.000169	-0.007452	-0.773926	0.527588	0.230713	0.421068	-0.592249	-0.506451	-0.464167
23456		9.516275	-0.308456	-2.040483	-0.001751	-0.004306	-0.007401	-0.768555	0.520752	0.224365	0.421019	-0.592310	-0.506430	-0.464157
23457		9.555675	-0.313744	-1.989296	-0.000476	-0.000674	-0.008274	-0.766846	0.522705	0.229736	0.421017	-0.592297	-0.506424	-0.464180
23458		9.528054	-0.277800	-2.002682	0.007356	-0.003632	-0.007557	-0.765381	0.537842	0.228027	0.421033	-0.592309	-0.506455	-0.464118
23459		9.525366	-0.293055	-2.042305	-0.001304	-0.001604	-0.006773	-0.773682	0.526611	0.222900	0.421061	-0.592414	-0.506347	-0.464076
23460		9.540313	-0.285983	-2.031227	-0.001803	-0.001143	-0.008121	-0.769287	0.525391	0.228516	0.421071	-0.592407	-0.506325	-0.464100
23461		9.556521	-0.270063	-1.991594	-0.006297	0.003502	-0.007197	-0.767090	0.522217	0.221436	0.421047	-0.592443	-0.506234	-0.464174
23462		9.543496	-0.303074	-2.040350	0.000525	0.006680	-0.009672	-0.768066	0.524658	0.231445	0.421113	-0.592370	-0.506197	-0.464248
23463		9.521974	-0.309689	-2.090518	0.004288	-0.000385	-0.010460	-0.768555	0.521729	0.221680	0.421105	-0.592370	-0.506208	-0.464242
23464		9.498414	-0.313978	-2.057754	0.000322	-0.006626	-0.007197	-0.769531	0.530273	0.229004	0.421095	-0.592386	-0.506229	-0.464209
23465		9.511755	-0.304795	-1.980295	0.000672	-0.006628	-0.008533	-0.762939	0.527100	0.224854	0.421064	-0.592456	-0.506221	-0.464157
23466		9.577664	-0.315158	-1.912431	-0.003897	-0.006082	-0.008057	-0.765381	0.523682	0.230713	0.421023	-0.592541	-0.506179	-0.464132
23467		9.553019	-0.338093	-1.985622	0.002721	0.004918	-0.010608	-0.771484	0.535645	0.224365	0.421040	-0.592518	-0.506152	-0.464175
23468		9.555357	-0.301619	-2.053717	0.017957	-0.000243	-0.011095	-0.770020	0.534424	0.227539	0.421205	-0.592432	-0.506215	-0.464066
23469		9.543002	-0.288452	-2.026246	0.005215	-0.001581	-0.007196	-0.776611	0.519043	0.224854	0.421266	-0.592463	-0.506182	-0.464007
23470		9.491933	-0.258863	-2.005687	-0.004640	0.000522	-0.007397	-0.769775	0.529297	0.220947	0.421229	-0.592439	-0.506167	-0.464087
23471		9.512707	-0.294263	-2.033029	0.001723	-0.006633	-0.012540	-0.779297	0.532715	0.227051	0.421223	-0.592433	-0.506208	-0.464057
23472		9.551855	-0.336442	-2.015506	0.005305	-0.006890	-0.009580	-0.773682	0.524414	0.227051	0.421230	-0.592436	-0.506254	-0.463995
23473		9.546386	-0.292823	-2.012525	0.013178	-0.003967	-0.007623	-0.773438	0.525146	0.227295	0.421302	-0.592384	-0.506335	-0.463908
23474		9.529897	-0.240052	-2.049182	0.005177	-0.003627	-0.007422	-0.761963	0.532959	0.228516	0.421318	-0.592378	-0.506363	-0.463870
23475		9.518974	-0.256859	-2.061294	0.003409	-0.006801	-0.007896	-0.767090	0.521973	0.227539	0.421324	-0.592470	-0.506340	-0.463774
23476		9.521995	-0.266332	-2.011609	-0.001374	-0.006082	-0.009532	-0.767822	0.529297	0.230469	0.421256	-0.592510	-0.506355	-0.463766
23477		9.553984	-0.311067	-1.998538	-0.004068	0.003398	-0.010220	-0.770996	0.524902	0.226318	0.421232	-0.592541	-0.506281	-0.463830
23478		9.516038	-0.293753	-2.038802	0.014856	-0.000049	-0.010410	-0.765381	0.530273	0.230225	0.421333	-0.592446	-0.506364	-0.463770
23479		9.551408	-0.296923	-2.083696	0.006401	-0.005479	-0.007231	-0.771484	0.528564	0.232666	0.421352	-0.592504	-0.506364	-0.463678
23480		9.532296	-0.277011	-2.017475	-0.005496	0.000976	-0.007410	-0.771729	0.519531	0.229492	0.421301	-0.592570	-0.506284	-0.463728
23481		9.526658	-0.269849	-2.028975	0.003641	-0.000475	-0.010678	-0.766602	0.521240	0.224121	0.421280	-0.592527	-0.506327	-0.463754
23482		9.525211	-0.340785	-2.027253	0.005270	-0.005115	-0.008789	-0.757812	0.526611	0.220703	0.421289	-0.592515	-0.506374	-0.463711
23483		9.545860	-0.338392	-2.004732	-0.000109	0.001370	-0.009393	-0.764893	0.526367	0.230225	0.421336	-0.592521	-0.506321	-0.463718
23484		9.539490	-0.302998	-2.028304	0.000612	0.000354	-0.008239	-0.765869	0.523193	0.229736	0.421332	-0.592556	-0.506277	-0.463724
23485		9.527789	-0.290649	-2.034529	0.003855	-0.000653	-0.008564	-0.769531	0.529297	0.222412	0.421335	-0.592562	-0.506276	-0.463715
23486		9.516023	-0.278378	-2.041032	0.005775	-0.002131	-0.008735	-0.770264	0.522705	0.231689	0.421398	-0.592539	-0.506288	-0.463673
23487		9.542989	-0.282035	-2.040875	-0.002633	-0.002460	-0.008933	-0.774170	0.525391	0.230469	0.421326	-0.592580	-0.506272	-0.463705
23488		9.536327	-0.310567	-2.034618	-0.001496	0.000241	-0.010980	-0.771973	0.521240	0.225830	0.421280	-0.592576	-0.506265	-0.463760
23489		9.512831	-0.287402	-2.047199	0.009554	-0.001922	-0.009799	-0.767334	0.519531	0.228760	0.421323	-0.592505	-0.506339	-0.463729
23490		9.543984	-0.304660	-2.047006	0.003628	-0.006973	-0.005783	-0.773193	0.526611	0.221924	0.421295	-0.592546	-0.506366	-0.463674
23491		9.534896	-0.276390	-2.032165	-0.000401	-0.001791	-0.007336	-0.771484	0.521240	0.230957	0.421316	-0.592537	-0.506353	-0.463680
23492		9.524502	-0.255914	-2.027813	0.006056	-0.002407	-0.009504	-0.771973	0.530762	0.229004	0.421304	-0.592517	-0.506398	-0.463668
23493		9.538840	-0.284918	-2.015533	0.002088	-0.000387	-0.010333	-0.765869	0.529297	0.226562	0.421310	-0.592520	-0.506386	-0.463672
23494		9.552776	-0.286052	-2.031893	0.001834	0.001941	-0.009344	-0.771973	0.515625	0.230225	0.421346	-0.592521	-0.506346	-0.463682
23495		9.553118	-0.284539	-2.048941	0.001867	-0.003269	-0.008844	-0.770752	0.519775	0.231689	0.421288	-0.592509	-0.506388	-0.463703
23496		9.514830	-0.294368	-2.026991	0.000321	0.000633	-0.007477	-0.767090	0.531738	0.232666	0.421258	-0.592516	-0.506369	-0.463743
23497		9.476364	-0.303537	-1.987544	0.005832	0.001594	-0.010605	-0.772705	0.523438	0.225586	0.421287	-0.592524	-0.506346	-0.463731
23498		9.545412	-0.344606	-2.007899	-0.001026	-0.006086	-0.010873	-0.771973	0.524414	0.225586	0.421227	-0.592532	-0.506382	-0.463737
23499		9.564672	-0.323293	-2.059637	0.004666	0.000286	-0.010075	-0.769775	0.516846	0.231445	0.421257	-0.592483	-0.506406	-0.463745
23500		9.549756	-0.289327	-2.038222	0.012439	0.000909	-0.007777	-0.770508	0.521484	0.226807	0.421310	-0.592417	-0.506464	-0.463719
23501		9.501457	-0.281490	-2.028078	0.004288	-0.001761	-0.008961	-0.764893	0.528320	0.221924	0.421316	-0.592392	-0.506491	-0.463715
23502		9.542345	-0.287845	-2.044242	0.001801	-0.000864	-0.014193	-0.770752	0.519043	0.225830	0.421328	-0.592357	-0.506510	-0.463728
23503		9.510607	-0.302747	-2.043925	0.001164	0.003235	-0.011074	-0.771240	0.526123	0.227783	0.421328	-0.592294	-0.506519	-0.463798
23504		9.528977	-0.317070	-2.059367	0.002959	0.001584	-0.007791	-0.767090	0.522461	0.232422	0.421359	-0.592282	-0.506496	-0.463810
23505		9.527552	-0.285697	-2.037604	-0.005287	0.000401	-0.007609	-0.771973	0.526367	0.228760	0.421289	-0.592349	-0.506421	-0.463872
23506		9.540573	-0.258558	-2.066246	0.002960	0.001207	-0.010103	-0.765869	0.520020	0.229736	0.421300	-0.592328	-0.506415	-0.463894
23507		9.519977	-0.283631	-2.026042	0.000537	0.000076	-0.007675	-0.766113	0.528076	0.227295	0.421279	-0.592348	-0.506386	-0.463920
23508		9.527242	-0.278166	-2.003205	-0.008345	0.002232	-0.008998	-0.764404	0.526123	0.228760	0.421234	-0.592405	-0.506284	-0.464000
23509		9.549952	-0.267504	-1.984917	0.004770	0.008108	-0.011501	-0.767334	0.526611	0.221436	0.421297	-0.592350	-0.506243	-0.464057
23510		9.541414	-0.276019	-2.000461	0.011993	0.001283	-0.012013	-0.773193	0.522461	0.231934	0.421405	-0.592249	-0.506306	-0.464018
23511		9.542690	-0.313347	-2.083430	0.005005	0.000671	-0.009105	-0.769043	0.522949	0.223145	0.421403	-0.592229	-0.506315	-0.464036
23512		9.519026	-0.279465	-1.999759	-0.003410	0.004135	-0.008285	-0.761230	0.520020	0.223877	0.421416	-0.592211	-0.506258	-0.464110
23513		9.520657	-0.268865	-1.987878	0.002070	0.003059	-0.011637	-0.774170	0.535156	0.229980	0.421434	-0.592169	-0.506250	-0.464155
23514		9.559078	-0.291475	-2.024848	0.004489	0.004571	-0.011754	-0.773193	0.523438	0.231689	0.421482	-0.592139	-0.506220	-0.464183
23515		9.539170	-0.290106	-2.063061	-0.004718	0.009146	-0.009208	-0.769775	0.527588	0.217529	0.421464	-0.592124	-0.506123	-0.464323
23516		9.503347	-0.292563	-2.062138	-0.004448	0.003379	-0.008899	-0.775391	0.523926	0.222168	0.421502	-0.592098	-0.506067	-0.464384
23517		9.522452	-0.297319	-2.032937	-0.003462	0.000038	-0.008732	-0.761230	0.519775	0.224854	0.421488	-0.592082	-0.506049	-0.464437
23518		9.542916	-0.293980	-1.992727	-0.002340	0.003121	-0.008470	-0.766602	0.529541	0.223877	0.421485	-0.592091	-0.505988	-0.464495
23519		9.532671	-0.310360	-2.002642	0.003226	0.004755	-0.009858	-0.772705	0.520508	0.223877	0.421555	-0.592057	-0.505948	-0.464517
23520		9.544133	-0.327642	-2.040117	0.003856	0.004478	-0.011963	-0.761719	0.525391	0.226074	0.421587	-0.591965	-0.505971	-0.464581
23521		9.527477	-0.300725	-2.012279	0.009248	0.001837	-0.010338	-0.763184	0.527588	0.239990	0.421658	-0.591930	-0.505979	-0.464553
23522		9.545570	-0.277382	-1.995292	0.004212	0.001415	-0.009692	-0.764648	0.514648	0.226318	0.421623	-0.591999	-0.505916	-0.464564
23523		9.551944	-0.280667	-1.999572	-0.001321	0.007317	-0.009161	-0.769287	0.521973	0.229248	0.421624	-0.591957	-0.505864	-0.464673
23524		9.518617	-0.276623	-2.037769	0.003798	0.009691	-0.012472	-0.770508	0.526855	0.230225	0.421661	-0.591876	-0.505834	-0.464776
23525		9.546474	-0.279801	-2.052259	0.001965	0.004179	-0.012591	-0.774902	0.527588	0.224121	0.421655	-0.591852	-0.505807	-0.464841
23526		9.545853	-0.276061	-2.018478	-0.005110	-0.004265	-0.008257	-0.769287	0.514404	0.224609	0.421602	-0.591900	-0.505777	-0.464861
23527		9.504559	-0.264615	-1.986038	-0.012069	0.002647	-0.006208	-0.767578	0.519775	0.227051	0.421518	-0.591940	-0.505680	-0.464992
23528		9.506801	-0.281817	-1.945170	0.004234	0.003093	-0.011785	-0.770752	0.515381	0.229736	0.421527	-0.591888	-0.505689	-0.465040
23529		9.552229	-0.300996	-1.960582	0.004493	-0.004723	-0.011696	-0.773926	0.521240	0.230469	0.421461	-0.591874	-0.505753	-0.465048
23530		9.578922	-0.277238	-2.006290	0.008774	0.001292	-0.007858	-0.770020	0.521240	0.234375	0.421499	-0.591837	-0.505769	-0.465044
23531		9.568252	-0.256431	-1.983842	-0.002388	0.004889	-0.007684	-0.761963	0.526611	0.222656	0.421457	-0.591872	-0.505676	-0.465138
23532		9.525177	-0.262732	-2.006302	-0.003282	0.001247	-0.008140	-0.769531	0.518066	0.222900	0.421464	-0.591911	-0.505596	-0.465169
23533		9.498380	-0.291958	-2.022170	0.004575	0.003097	-0.013126	-0.764893	0.525635	0.221680	0.421485	-0.591819	-0.505638	-0.465221
23534		9.514851	-0.312683	-2.014986	0.004309	-0.000067	-0.011060	-0.773438	0.521240	0.231689	0.421524	-0.591790	-0.505646	-0.465214
23535		9.569068	-0.321536	-2.013560	0.004063	-0.000804	-0.006458	-0.766113	0.523682	0.228271	0.421514	-0.591809	-0.505627	-0.465219
23536		9.536160	-0.272609	-2.010154	0.000146	0.001474	-0.007866	-0.767334	0.519775	0.223877	0.421509	-0.591839	-0.505567	-0.465251
23537		9.529044	-0.236608	-2.016922	0.003740	0.000112	-0.011842	-0.766846	0.517822	0.228271	0.421512	-0.591795	-0.505594	-0.465275
23538		9.531223	-0.291155	-1.992823	0.004714	-0.004520	-0.007264	-0.768799	0.515137	0.223877	0.421490	-0.591821	-0.505608	-0.465247
23539		9.536555	-0.293689	-1.965000	-0.001194	-0.001057	-0.007932	-0.764893	0.522949	0.236084	0.421460	-0.591817	-0.505603	-0.465285
23540		9.540311	-0.276908	-1.993574	0.002092	0.001679	-0.010128	-0.764404	0.527832	0.223389	0.421411	-0.591866	-0.505539	-0.465337
23541		9.555884	-0.270713	-2.016150	0.006437	-0.003379	-0.007017	-0.767578	0.522461	0.225586	0.421464	-0.591888	-0.505531	-0.465269
23542		9.533172	-0.277206	-2.016879	-0.001317	-0.001237	-0.004474	-0.770508	0.528076	0.222656	0.421462	-0.591941	-0.505467	-0.465273
23543		9.517608	-0.279608	-1.994796	-0.002392	-0.001359	-0.011237	-0.773438	0.524170	0.225830	0.421440	-0.591947	-0.505449	-0.465304
23544		9.518437	-0.315516	-2.044833	0.010435	-0.004077	-0.010592	-0.769043	0.526123	0.219238	0.421473	-0.591902	-0.505526	-0.465248
23545		9.548979	-0.293962	-1.994984	0.007918	-0.003729	-0.006797	-0.765137	0.528076	0.221191	0.421553	-0.591878	-0.505561	-0.465168
23546		9.543300	-0.251483	-2.008226	-0.001990	0.000430	-0.003890	-0.768066	0.517822	0.221436	0.421598	-0.591928	-0.505472	-0.465161
23547		9.559016	-0.245586	-2.030016	-0.007658	0.005003	-0.006847	-0.768799	0.519043	0.222656	0.421584	-0.591926	-0.505388	-0.465268
23548		9.500307	-0.292466	-2.028763	-0.005341	0.001394	-0.011462	-0.777344	0.529785	0.227295	0.421533	-0.591911	-0.505364	-0.465358
23549		9.515108	-0.320451	-2.016195	0.000285	-0.002163	-0.012343	-0.772461	0.517578	0.230469	0.421498	-0.591908	-0.505374	-0.465384
23550		9.570268	-0.319875	-1.987131	0.002231	-0.000823	-0.007660	-0.767090	0.524414	0.231201	0.421465	-0.591916	-0.505364	-0.465414
23551		9.555277	-0.286855	-1.982649	0.001231	0.002891	-0.005515	-0.771973	0.522949	0.221436	0.421476	-0.591961	-0.505274	-0.465445
23552		9.507825	-0.280510	-2.005295	-0.001537	0.006103	-0.009772	-0.766602	0.525879	0.226074	0.421510	-0.591904	-0.505236	-0.465528
23553		9.526052	-0.293729	-2.003834	0.004971	-0.001723	-0.011652	-0.773438	0.522461	0.227539	0.421514	-0.591895	-0.505251	-0.465518
23554		9.549649	-0.274765	-1.975850	0.004642	0.000324	-0.010092	-0.766846	0.521484	0.227783	0.421520	-0.591865	-0.505264	-0.465538
23555		9.557658	-0.270479	-1.986196	-0.001481	0.006759	-0.008030	-0.770996	0.526367	0.226807	0.421531	-0.591861	-0.505176	-0.465628
23556		9.542875	-0.273338	-1.979018	-0.011244	0.007646	-0.007284	-0.768799	0.526855	0.224121	0.421495	-0.591905	-0.505021	-0.465773
23557		9.507692	-0.277393	-2.012434	-0.005181	0.000934	-0.008774	-0.769775	0.523438	0.231201	0.421470	-0.591940	-0.504949	-0.465829
23558		9.518914	-0.284048	-1.972637	0.005361	-0.003108	-0.011470	-0.770752	0.525391	0.224854	0.421435	-0.591950	-0.504967	-0.465828
23559		9.555380	-0.303443	-1.927424	-0.001541	-0.009351	-0.010369	-0.760742	0.526367	0.218994	0.421355	-0.592010	-0.504990	-0.465800
23560		9.568127	-0.313280	-1.973394	0.000897	-0.003352	-0.007728	-0.769531	0.522949	0.234863	0.421383	-0.592040	-0.504967	-0.465761
23561		9.576618	-0.274176	-2.019924	0.010239	0.000976	-0.007645	-0.766113	0.533203	0.228027	0.421413	-0.592042	-0.504952	-0.465748
23562		9.537702	-0.257282	-2.026496	0.004877	0.002200	-0.007753	-0.772217	0.528076	0.225586	0.421471	-0.592067	-0.504884	-0.465737
23563		9.489799	-0.250262	-2.032697	0.005683	0.002764	-0.011579	-0.772949	0.522705	0.229004	0.421515	-0.592016	-0.504887	-0.465758
23564		9.521531	-0.302147	-2.030061	0.002391	-0.002783	-0.014234	-0.769043	0.516113	0.231445	0.421454	-0.591999	-0.504927	-0.465793
23565		9.544121	-0.328264	-2.029055	0.000281	-0.001406	-0.007717	-0.771729	0.527344	0.231201	0.421397	-0.592032	-0.504900	-0.465832
23566		9.546365	-0.309934	-1.990011	0.006927	0.002054	-0.004435	-0.774170	0.519775	0.229492	0.421457	-0.592052	-0.504842	-0.465815
23567		9.522933	-0.252257	-2.020315	0.004125	0.001164	-0.009135	-0.769775	0.516357	0.222412	0.421454	-0.592025	-0.504844	-0.465849
23568		9.532265	-0.240154	-2.037916	0.007110	-0.005777	-0.012240	-0.776367	0.523193	0.224609	0.421441	-0.591972	-0.504947	-0.465816
23569		9.560413	-0.260363	-1.947183	-0.003837	-0.002408	-0.009945	-0.771973	0.520020	0.220703	0.421385	-0.591982	-0.504940	-0.465862
23570		9.540911	-0.286378	-1.940509	-0.005272	0.006136	-0.009288	-0.775635	0.527588	0.228760	0.421390	-0.591939	-0.504886	-0.465970
23571		9.566473	-0.270497	-1.995732	0.008534	0.003564	-0.009773	-0.771484	0.518311	0.227539	0.421453	-0.591886	-0.504887	-0.465980
23572		9.550534	-0.282695	-2.017741	0.008737	-0.000711	-0.008092	-0.765137	0.522705	0.228271	0.421485	-0.591850	-0.504918	-0.465963
23573		9.536620	-0.277667	-2.001451	-0.001548	-0.001439	-0.008917	-0.771484	0.525391	0.222900	0.421438	-0.591903	-0.504865	-0.465996
23574		9.552263	-0.260751	-1.962801	-0.004074	-0.003903	-0.009971	-0.768066	0.523193	0.220215	0.421384	-0.591936	-0.504849	-0.466020
23575		9.556776	-0.271455	-1.962749	0.000171	-0.000292	-0.008670	-0.768555	0.516846	0.223877	0.421403	-0.591925	-0.504836	-0.466031
23576		9.535707	-0.279917	-2.030366	0.002922	0.001617	-0.007812	-0.769287	0.529297	0.227051	0.421424	-0.591895	-0.504829	-0.466058
23577		9.542506	-0.273915	-1.990655	-0.007480	0.000327	-0.007491	-0.771973	0.514404	0.222900	0.421375	-0.591974	-0.504719	-0.466120
23578		9.534727	-0.274493	-1.979769	-0.001556	-0.002734	-0.004504	-0.772949	0.527344	0.223145	0.421354	-0.591992	-0.504705	-0.466132
23579		9.530518	-0.297049	-1.996733	0.006660	-0.004279	-0.009538	-0.773193	0.526367	0.225586	0.421384	-0.591975	-0.504749	-0.466079
23580		9.537206	-0.301771	-2.036976	-0.000656	-0.005331	-0.007601	-0.767334	0.526611	0.225586	0.421350	-0.592023	-0.504735	-0.466064
23581		9.531750	-0.285990	-2.004846	0.001978	-0.003979	-0.005596	-0.772217	0.520996	0.227295	0.421357	-0.592079	-0.504699	-0.466024
23582		9.524954	-0.278694	-1.984170	0.007662	-0.009283	-0.007270	-0.770752	0.524658	0.226562	0.421340	-0.592106	-0.504760	-0.465940
23583		9.561233	-0.308661	-2.001154	-0.004950	-0.007175	-0.008108	-0.770996	0.515381	0.222412	0.421252	-0.592190	-0.504731	-0.465944
23584		9.545779	-0.312069	-1.997316	-0.000949	-0.006727	-0.004736	-0.770508	0.523926	0.231201	0.421216	-0.592227	-0.504741	-0.465919
23585		9.522750	-0.282109	-2.000444	0.008011	-0.007228	-0.008395	-0.766113	0.520508	0.223877	0.421198	-0.592262	-0.504774	-0.465855
23586		9.542647	-0.288904	-2.023380	0.006663	-0.002226	-0.009324	-0.777344	0.522949	0.237305	0.421226	-0.592237	-0.504807	-0.465826
23587		9.539543	-0.266354	-2.030561	0.003570	-0.004141	-0.008840	-0.770264	0.523926	0.229736	0.421157	-0.592283	-0.504799	-0.465839
23588		9.530095	-0.311065	-2.013854	-0.000910	-0.010545	-0.005748	-0.773438	0.520752	0.229980	0.421075	-0.592393	-0.504784	-0.465789
23589		9.508286	-0.298423	-1.926694	0.004346	-0.008966	-0.008695	-0.769775	0.518066	0.230713	0.421017	-0.592431	-0.504831	-0.465743
23590		9.570958	-0.295378	-1.910287	0.005842	-0.005590	-0.010353	-0.778809	0.518555	0.226807	0.420974	-0.592438	-0.504875	-0.465725
23591		9.552052	-0.298188	-2.035803	0.007161	-0.004724	-0.008193	-0.777100	0.524902	0.227295	0.420978	-0.592401	-0.504947	-0.465690
23592		9.538671	-0.294749	-2.053872	-0.002075	-0.002283	-0.005858	-0.771240	0.535156	0.233887	0.420955	-0.592437	-0.504910	-0.465705
23593		9.527211	-0.273279	-2.015818	-0.002249	-0.001825	-0.008555	-0.769043	0.524902	0.225098	0.420909	-0.592528	-0.504818	-0.465731
23594		9.528619	-0.299369	-2.004098	0.003679	-0.003579	-0.009991	-0.772217	0.523926	0.221191	0.420909	-0.592526	-0.504839	-0.465709
23595		9.499093	-0.309244	-2.045010	0.000580	-0.007545	-0.009725	-0.773438	0.520020	0.222656	0.420881	-0.592534	-0.504889	-0.465671
23596		9.548786	-0.304728	-2.062903	0.014104	-0.008132	-0.011561	-0.765869	0.522461	0.228516	0.420922	-0.592457	-0.505043	-0.465565
23597		9.558169	-0.282774	-2.019532	0.002884	-0.002474	-0.008260	-0.777100	0.524902	0.224609	0.420912	-0.592484	-0.505025	-0.465559
23598		9.518948	-0.265711	-2.026904	0.004312	-0.001425	-0.009566	-0.769775	0.531006	0.228516	0.420935	-0.592443	-0.505061	-0.465552
23599		9.541910	-0.292843	-2.043368	0.011650	-0.007894	-0.010649	-0.770020	0.528076	0.224854	0.420960	-0.592448	-0.505130	-0.465447
23600		9.527411	-0.287238	-2.011604	0.006519	-0.006871	-0.008626	-0.768555	0.524658	0.225098	0.420977	-0.592461	-0.505173	-0.465369
23601		9.537448	-0.266588	-2.001848	0.005163	-0.001873	-0.009556	-0.770752	0.526611	0.225830	0.421002	-0.592444	-0.505192	-0.465348
23602		9.550618	-0.266577	-1.985369	0.006525	-0.004822	-0.008408	-0.778564	0.525635	0.220703	0.421025	-0.592446	-0.505224	-0.465290
23603		9.547121	-0.290291	-2.035901	0.000033	-0.000853	-0.007531	-0.761963	0.518311	0.222900	0.421051	-0.592416	-0.505233	-0.465294
23604		9.520957	-0.274258	-2.008675	0.002539	0.000864	-0.011121	-0.774658	0.528809	0.230469	0.421061	-0.592381	-0.505241	-0.465322
23605		9.534505	-0.310257	-1.990677	0.005373	-0.006522	-0.010190	-0.770996	0.524658	0.228516	0.421035	-0.592404	-0.505275	-0.465279
23606		9.537945	-0.294383	-2.037662	0.003670	-0.005248	-0.007896	-0.768799	0.522461	0.229980	0.421019	-0.592435	-0.505282	-0.465245
23607		9.534388	-0.271707	-2.028137	-0.000250	-0.002249	-0.004662	-0.762207	0.522705	0.226074	0.421001	-0.592498	-0.505222	-0.465248
23608		9.544738	-0.252237	-2.035022	-0.002313	-0.003782	-0.005882	-0.771729	0.526611	0.222900	0.420972	-0.592571	-0.505165	-0.465243
23609		9.553856	-0.276232	-2.034955	0.000008	-0.005326	-0.010289	-0.761963	0.528564	0.219482	0.420947	-0.592579	-0.505192	-0.465225
23610		9.528070	-0.297471	-2.024518	-0.005343	-0.005426	-0.005965	-0.771729	0.528076	0.227051	0.420931	-0.592657	-0.505143	-0.465195
23611		9.528054	-0.295581	-2.024871	-0.004644	0.002774	-0.007777	-0.772949	0.520752	0.222412	0.420922	-0.592680	-0.505063	-0.465260
23612		9.521885	-0.288353	-2.019767	-0.001177	-0.004504	-0.006640	-0.770020	0.526855	0.229248	0.420903	-0.592695	-0.505070	-0.465251
23613		9.534247	-0.298016	-2.048908	0.006510	-0.008908	-0.008852	-0.769287	0.524902	0.229492	0.420884	-0.592732	-0.505115	-0.465171
23614		9.547263	-0.297871	-2.033294	0.000981	-0.004836	-0.009108	-0.771484	0.531006	0.230957	0.420843	-0.592772	-0.505110	-0.465163
23615		9.519659	-0.290406	-2.017993	-0.000036	-0.003178	-0.007179	-0.773193	0.524414	0.229248	0.420824	-0.592832	-0.505063	-0.465154
23616		9.547016	-0.294342	-2.034969	0.009549	-0.003164	-0.008333	-0.765869	0.530762	0.232178	0.420861	-0.592809	-0.505106	-0.465105
23617		9.557763	-0.311098	-2.040438	0.009829	-0.003438	-0.009104	-0.768799	0.520020	0.231445	0.420897	-0.592825	-0.505116	-0.465040
23618		9.525405	-0.290760	-2.026089	0.005708	-0.008179	-0.009440	-0.766846	0.520508	0.228760	0.420847	-0.592857	-0.505160	-0.464996
23619		9.475683	-0.293353	-2.045339	0.012690	-0.006345	-0.005419	-0.769043	0.520508	0.229004	0.420900	-0.592860	-0.505212	-0.464889
23620		9.545935	-0.312764	-1.927216	0.004162	-0.013884	-0.007420	-0.776123	0.524414	0.221680	0.420827	-0.592934	-0.505272	-0.464794
23621		9.569271	-0.305157	-1.996337	0.008955	0.000351	-0.013324	-0.769287	0.527344	0.225830	0.420888	-0.592817	-0.505368	-0.464784
23622		9.538284	-0.287183	-2.048237	0.022540	-0.001207	-0.011340	-0.770020	0.524414	0.229248	0.421040	-0.592694	-0.505497	-0.464663
23623		9.512328	-0.273266	-2.056224	0.010041	-0.011801	-0.007855	-0.761230	0.522705	0.229492	0.421028	-0.592730	-0.505576	-0.464543
23624		9.499478	-0.260561	-2.048063	-0.003718	-0.009414	-0.010219	-0.770264	0.526855	0.231445	0.420913	-0.592828	-0.505562	-0.464536
23625		9.546789	-0.260952	-2.009713	-0.000009	-0.007377	-0.010509	-0.768311	0.515869	0.232910	0.420837	-0.592886	-0.505568	-0.464525
23626		9.545169	-0.313591	-2.065068	0.013363	-0.002231	-0.007681	-0.770508	0.524170	0.223877	0.420877	-0.592852	-0.505615	-0.464480
23627		9.528299	-0.324671	-2.037005	0.008466	-0.001778	-0.005841	-0.769775	0.522949	0.229736	0.420955	-0.592822	-0.505643	-0.464419
23628		9.523590	-0.276009	-2.091206	0.000691	-0.010330	-0.006670	-0.763428	0.525635	0.239746	0.420886	-0.592903	-0.505653	-0.464366
23629		9.536758	-0.277194	-2.093013	0.021106	-0.008007	-0.008378	-0.770508	0.520508	0.225098	0.420935	-0.592920	-0.505722	-0.464225
23630		9.516076	-0.301512	-2.002916	0.004306	-0.000660	-0.004944	-0.774658	0.523926	0.226562	0.420980	-0.592907	-0.505718	-0.464205
23631		9.513321	-0.280656	-2.043593	-0.004163	-0.002170	-0.009175	-0.765137	0.533203	0.229492	0.420928	-0.592925	-0.505700	-0.464250
23632		9.539968	-0.294329	-2.105170	0.008355	-0.002332	-0.004695	-0.766602	0.522217	0.226074	0.421004	-0.592960	-0.505669	-0.464169
23633		9.535422	-0.316443	-2.088037	-0.000193	-0.003642	-0.003134	-0.771484	0.523438	0.233643	0.421007	-0.593017	-0.505625	-0.464141
23634		9.495576	-0.298831	-2.061425	-0.005576	0.000871	-0.007429	-0.769531	0.521973	0.220459	0.420940	-0.593074	-0.505536	-0.464226
23635		9.507371	-0.305843	-2.039035	-0.002406	-0.006877	-0.010162	-0.772949	0.527100	0.218750	0.420891	-0.593082	-0.505579	-0.464213
23636		9.548441	-0.347667	-2.038265	-0.002485	-0.006676	-0.004371	-0.767822	0.526367	0.237549	0.420896	-0.593119	-0.505584	-0.464156
23637		9.538340	-0.319216	-2.006685	-0.002024	-0.001641	-0.004110	-0.762939	0.524658	0.228516	0.420850	-0.593224	-0.505475	-0.464183
23638		9.519653	-0.266336	-2.026403	-0.004393	-0.001617	-0.008980	-0.771973	0.527588	0.229980	0.420799	-0.593276	-0.505419	-0.464224
23639		9.544595	-0.286438	-2.065153	0.003430	-0.002637	-0.007496	-0.769775	0.525391	0.228271	0.420805	-0.593292	-0.505411	-0.464206
23640		9.530599	-0.316009	-1.996706	-0.003014	-0.000464	-0.007397	-0.766357	0.517334	0.227539	0.420781	-0.593323	-0.505361	-0.464243
23641		9.537390	-0.320547	-2.035611	-0.003428	0.002590	-0.009686	-0.769775	0.532715	0.235840	0.420747	-0.593315	-0.505318	-0.464332
23642		9.507326	-0.293545	-2.059168	-0.003308	0.001480	-0.008732	-0.768066	0.522461	0.226807	0.420708	-0.593375	-0.505221	-0.464395
23643		9.513283	-0.296246	-2.047868	-0.002268	-0.003513	-0.006455	-0.767578	0.516602	0.233887	0.420677	-0.593418	-0.505191	-0.464401
23644		9.534409	-0.294356	-2.059710	-0.008382	-0.003384	-0.007919	-0.761963	0.526123	0.233398	0.420548	-0.593506	-0.505116	-0.464487
23645		9.561447	-0.295780	-2.042279	-0.013128	0.003661	-0.009468	-0.770996	0.531494	0.235352	0.420446	-0.593595	-0.504960	-0.464634
23646		9.522586	-0.279334	-2.065120	0.002282	0.003852	-0.008406	-0.770996	0.527832	0.227783	0.420467	-0.593606	-0.504889	-0.464680
23647		9.529497	-0.319145	-2.068914	-0.004049	-0.003279	-0.008225	-0.770996	0.529541	0.231201	0.420422	-0.593651	-0.504855	-0.464699
23648		9.511335	-0.302221	-2.087258	-0.005253	-0.001170	-0.008995	-0.773438	0.526367	0.233154	0.420367	-0.593703	-0.504792	-0.464751
23649		9.514411	-0.273682	-2.021165	-0.000117	-0.003834	-0.008932	-0.769531	0.524414	0.235596	0.420317	-0.593741	-0.504776	-0.464765
23650		9.528229	-0.309819	-2.003791	0.000003	-0.006992	-0.008197	-0.776123	0.526611	0.233154	0.420239	-0.593818	-0.504757	-0.464758
23651		9.545405	-0.332006	-2.032160	-0.002059	-0.004440	-0.008976	-0.769531	0.523926	0.225830	0.420173	-0.593862	-0.504740	-0.464780
23652		9.547856	-0.278620	-2.062670	0.001123	0.002149	-0.010188	-0.762939	0.532959	0.231201	0.420193	-0.593821	-0.504736	-0.464818
23653		9.547987	-0.276488	-2.062353	0.005753	0.000313	-0.009160	-0.767822	0.526855	0.223877	0.420239	-0.593830	-0.504707	-0.464796
23654		9.510703	-0.288706	-2.073984	-0.000119	-0.003834	-0.008934	-0.766602	0.521240	0.234375	0.420234	-0.593840	-0.504717	-0.464778
23655		9.513760	-0.306149	-2.051132	-0.004244	-0.000778	-0.010711	-0.770020	0.527588	0.231445	0.420150	-0.593881	-0.504664	-0.464858
23656		9.511135	-0.319800	-2.056496	0.004161	-0.001955	-0.008446	-0.768066	0.526367	0.231934	0.420160	-0.593890	-0.504658	-0.464844
23657		9.561646	-0.305542	-2.028872	0.016305	-0.005275	-0.009810	-0.764160	0.524902	0.231201	0.420227	-0.593850	-0.504747	-0.464739
23658		9.528137	-0.259406	-2.076743	0.001816	0.000868	-0.008456	-0.770264	0.520264	0.236084	0.420234	-0.593862	-0.504705	-0.464762
23659		9.512187	-0.271760	-2.098979	0.001817	-0.001179	-0.008674	-0.765869	0.521973	0.230469	0.420194	-0.593884	-0.504678	-0.464800
23660		9.515905	-0.279909	-2.031725	0.004668	-0.006874	-0.009850	-0.763672	0.521240	0.230225	0.420162	-0.593904	-0.504717	-0.464761
23661		9.538696	-0.305233	-2.014469	-0.004229	-0.002452	-0.008607	-0.768799	0.527100	0.223633	0.420100	-0.593957	-0.504669	-0.464802
23662		9.549312	-0.285581	-2.037229	0.001634	0.005794	-0.008401	-0.764893	0.525391	0.233398	0.420174	-0.593900	-0.504638	-0.464840
23663		9.521541	-0.289010	-2.081929	0.007075	-0.000851	-0.007223	-0.762939	0.532959	0.231689	0.420208	-0.593911	-0.504619	-0.464816
23664		9.529073	-0.285290	-2.093848	0.011690	-0.005104	-0.008737	-0.768311	0.522705	0.237549	0.420263	-0.593924	-0.504650	-0.464717
23665		9.514173	-0.277648	-2.010558	-0.001836	-0.002950	-0.008956	-0.769287	0.524658	0.226807	0.420183	-0.593987	-0.504599	-0.464763
23666		9.520597	-0.281557	-2.033173	-0.000808	-0.000131	-0.008131	-0.770508	0.519775	0.236572	0.420183	-0.593989	-0.504576	-0.464786
23667		9.529434	-0.315222	-2.077214	0.005695	-0.004051	-0.009027	-0.764404	0.524414	0.235352	0.420150	-0.594004	-0.504589	-0.464783
23668		9.542602	-0.314113	-2.043421	-0.004236	0.001637	-0.008173	-0.771729	0.524902	0.233643	0.420100	-0.594061	-0.504492	-0.464861
23669		9.542192	-0.276332	-2.061288	0.002435	0.003027	-0.008036	-0.767334	0.533447	0.228027	0.420116	-0.594051	-0.504448	-0.464907
23670		9.500466	-0.276702	-2.089878	0.005011	-0.002392	-0.008441	-0.767090	0.524414	0.229736	0.420156	-0.594059	-0.504447	-0.464861
23671		9.495290	-0.306569	-2.100261	-0.001789	-0.000625	-0.009316	-0.773438	0.527100	0.230469	0.420126	-0.594078	-0.504414	-0.464900
23672		9.524714	-0.291071	-2.060979	-0.008711	0.000206	-0.011363	-0.772705	0.521729	0.223633	0.420039	-0.594109	-0.504357	-0.465000
23673		9.521915	-0.304052	-2.049425	0.000926	-0.002683	-0.006007	-0.764404	0.518799	0.230469	0.420056	-0.594103	-0.504369	-0.464981
23674		9.539977	-0.317123	-2.032594	0.007306	-0.005487	-0.007859	-0.770752	0.529053	0.234375	0.420059	-0.594110	-0.504404	-0.464929
23675		9.536460	-0.294742	-2.039809	0.001004	-0.000454	-0.009265	-0.761963	0.519775	0.232422	0.420042	-0.594133	-0.504368	-0.464956
23676		9.525163	-0.240127	-2.087734	0.007002	-0.003543	-0.009195	-0.765869	0.530518	0.229980	0.420042	-0.594138	-0.504387	-0.464929
23677		9.536528	-0.291499	-2.057994	0.002041	-0.003774	-0.009093	-0.769531	0.527100	0.231689	0.420035	-0.594170	-0.504378	-0.464904
23678		9.526470	-0.308335	-2.069423	-0.003377	-0.002901	-0.008599	-0.766846	0.520996	0.230713	0.419981	-0.594221	-0.504336	-0.464933
23679		9.513639	-0.295121	-2.042851	-0.003175	-0.005402	-0.006113	-0.770020	0.524170	0.239014	0.419921	-0.594292	-0.504300	-0.464936
23680		9.519353	-0.298267	-2.032886	0.007207	-0.008087	-0.006929	-0.770996	0.522705	0.233398	0.419887	-0.594352	-0.504311	-0.464877
23681		9.546914	-0.291710	-1.989796	-0.000874	-0.010545	-0.005747	-0.771729	0.525635	0.232178	0.419805	-0.594447	-0.504308	-0.464832
23682		9.568070	-0.290787	-2.019298	0.001251	-0.002675	-0.007356	-0.769287	0.525879	0.232910	0.419791	-0.594472	-0.504291	-0.464832
23683		9.527690	-0.283701	-2.053815	0.009197	0.002943	-0.009278	-0.771240	0.526855	0.229736	0.419859	-0.594420	-0.504296	-0.464833
23684		9.516964	-0.310623	-2.109614	0.008315	-0.007128	-0.009800	-0.769775	0.527832	0.234863	0.419867	-0.594411	-0.504367	-0.464758
23685		9.505412	-0.289825	-2.089427	0.005464	-0.005534	-0.009058	-0.770508	0.519531	0.227295	0.419850	-0.594440	-0.504383	-0.464721
23686		9.525841	-0.285829	-2.050831	0.003871	-0.003717	-0.007904	-0.761230	0.527344	0.232178	0.419854	-0.594425	-0.504418	-0.464697
23687		9.529447	-0.305535	-2.061807	0.001371	-0.001739	-0.006184	-0.770264	0.528809	0.231445	0.419860	-0.594477	-0.504364	-0.464685
23688		9.537539	-0.302712	-2.106790	0.004838	0.002444	-0.011297	-0.782959	0.530273	0.229004	0.419891	-0.594434	-0.504365	-0.464711
23689		9.498381	-0.286894	-2.130064	0.002021	0.000321	-0.008663	-0.765137	0.516846	0.229492	0.419912	-0.594399	-0.504375	-0.464725
23690		9.500158	-0.311784	-2.083799	-0.000923	-0.000692	-0.006985	-0.764160	0.526611	0.230713	0.419892	-0.594415	-0.504343	-0.464757
23691		9.493647	-0.303814	-2.062179	-0.005141	-0.004352	-0.008260	-0.759766	0.521484	0.237549	0.419824	-0.594489	-0.504294	-0.464777
23692		9.536214	-0.302173	-2.101835	0.001169	-0.001284	-0.008891	-0.770020	0.526123	0.234131	0.419783	-0.594538	-0.504241	-0.464810
23693		9.531843	-0.322409	-2.067790	0.010471	-0.005009	-0.009744	-0.767822	0.524658	0.224854	0.419803	-0.594525	-0.504297	-0.464748
23694		9.526760	-0.307820	-2.069591	0.008206	-0.005631	-0.008436	-0.768066	0.519775	0.232178	0.419845	-0.594498	-0.504369	-0.464665
23695		9.532861	-0.265805	-2.049247	0.005717	0.000339	-0.009184	-0.767822	0.519775	0.229492	0.419862	-0.594468	-0.504379	-0.464677
23696		9.509264	-0.279705	-2.042890	0.005057	0.001896	-0.011498	-0.771973	0.521484	0.230469	0.419882	-0.594408	-0.504404	-0.464710
23697		9.526974	-0.301420	-2.069550	0.001764	0.000496	-0.010796	-0.760986	0.527344	0.236084	0.419870	-0.594376	-0.504413	-0.464752
23698		9.534541	-0.297340	-2.081199	0.005378	-0.003661	-0.005367	-0.775146	0.518066	0.231445	0.419882	-0.594439	-0.504370	-0.464706
23699		9.523184	-0.276981	-2.059880	-0.004357	0.001062	-0.007024	-0.765381	0.520996	0.231201	0.419839	-0.594452	-0.504319	-0.464784
23700		9.524399	-0.266553	-2.048895	0.004964	-0.000707	-0.010564	-0.771973	0.529297	0.230469	0.419843	-0.594427	-0.504336	-0.464794
23701		9.539083	-0.302920	-2.047442	0.002807	-0.002819	-0.010624	-0.766113	0.531494	0.236816	0.419834	-0.594422	-0.504357	-0.464786
23702		9.522806	-0.313587	-2.035960	0.000624	0.001208	-0.010036	-0.766113	0.527832	0.230225	0.419819	-0.594451	-0.504296	-0.464828
23703		9.524695	-0.305280	-2.075342	0.002232	0.001819	-0.008648	-0.767578	0.532227	0.227783	0.419847	-0.594444	-0.504266	-0.464846
23704		9.497855	-0.300562	-2.109786	0.006710	-0.003250	-0.008437	-0.764160	0.524170	0.240967	0.419895	-0.594438	-0.504293	-0.464781
23705		9.525413	-0.292101	-2.031196	0.004886	-0.000886	-0.007087	-0.769531	0.519287	0.224609	0.419884	-0.594485	-0.504236	-0.464792
23706		9.524195	-0.297791	-2.024966	-0.009859	0.003303	-0.008060	-0.775635	0.521484	0.231201	0.419839	-0.594492	-0.504166	-0.464899
23707		9.528031	-0.284036	-2.120904	0.007923	0.000694	-0.009922	-0.767090	0.521484	0.226074	0.419876	-0.594428	-0.504206	-0.464904
23708		9.547567	-0.333075	-2.101527	0.009770	-0.001292	-0.008946	-0.766602	0.532227	0.240234	0.419942	-0.594368	-0.504266	-0.464856
23709		9.498433	-0.324862	-2.040798	-0.005877	-0.002991	-0.007096	-0.767578	0.523438	0.234619	0.419855	-0.594489	-0.504154	-0.464901
23710		9.494821	-0.302447	-2.047747	0.003495	0.000001	-0.008456	-0.771240	0.534424	0.230713	0.419855	-0.594495	-0.504129	-0.464921
23711		9.535068	-0.305051	-1.996847	0.007976	-0.005065	-0.008245	-0.770508	0.529541	0.238037	0.419893	-0.594501	-0.504164	-0.464840
23712		9.569037	-0.314341	-2.035540	0.002263	0.004145	-0.009013	-0.773682	0.531738	0.231934	0.419904	-0.594503	-0.504097	-0.464900
23713		9.519638	-0.283675	-2.120598	0.006495	0.007719	-0.010647	-0.766357	0.530762	0.231445	0.419986	-0.594425	-0.504077	-0.464949
23714		9.529530	-0.306664	-2.101734	0.000435	-0.001956	-0.007949	-0.762939	0.521973	0.240723	0.419979	-0.594463	-0.504040	-0.464946
23715		9.516374	-0.292224	-2.040753	0.005113	-0.001432	-0.007286	-0.764404	0.530518	0.230225	0.419963	-0.594508	-0.503992	-0.464956
23716		9.507813	-0.300819	-2.040061	-0.001415	0.004022	-0.011400	-0.766846	0.529053	0.229736	0.419965	-0.594498	-0.503941	-0.465022
23717		9.515071	-0.306571	-2.112509	0.006260	-0.000191	-0.010738	-0.768799	0.533203	0.224609	0.420000	-0.594467	-0.503960	-0.465009
23718		9.534387	-0.310009	-2.067041	0.015531	-0.001743	-0.008473	-0.764404	0.524902	0.234863	0.420133	-0.594394	-0.504043	-0.464892
23719		9.525885	-0.275011	-2.074109	0.000505	0.002694	-0.008674	-0.772949	0.521240	0.228027	0.420127	-0.594409	-0.503979	-0.464947
23720		9.514197	-0.264846	-2.113328	-0.000233	0.004068	-0.007511	-0.769043	0.524170	0.225342	0.420148	-0.594378	-0.503943	-0.465007
23721		9.494952	-0.289890	-2.055925	0.007167	-0.004341	-0.008832	-0.766846	0.525391	0.227051	0.420180	-0.594351	-0.504003	-0.464948
23722		9.523141	-0.327959	-2.037726	0.005775	-0.003460	-0.010201	-0.772461	0.525391	0.232422	0.420196	-0.594330	-0.504049	-0.464912
23723		9.560438	-0.311718	-2.043769	-0.001202	0.001520	-0.008910	-0.774902	0.522461	0.227295	0.420175	-0.594335	-0.504006	-0.464969
23724		9.544597	-0.279759	-2.056135	0.008104	0.002301	-0.007007	-0.772949	0.524170	0.226318	0.420253	-0.594270	-0.504027	-0.464958
23725		9.491821	-0.307823	-2.088941	0.008443	0.000263	-0.008572	-0.767822	0.521240	0.231445	0.420319	-0.594209	-0.504071	-0.464931
23726		9.518626	-0.308498	-2.055259	0.000205	-0.005879	-0.010512	-0.774170	0.521973	0.230957	0.420250	-0.594240	-0.504086	-0.464936
23727		9.549276	-0.286231	-2.039788	-0.002009	-0.001760	-0.007021	-0.769775	0.527588	0.235352	0.420212	-0.594268	-0.504054	-0.464970
23728		9.533484	-0.299187	-2.061932	0.002748	0.001378	-0.007299	-0.772949	0.519043	0.230469	0.420223	-0.594284	-0.504003	-0.464995
23729		9.527353	-0.292025	-2.056204	-0.003598	0.001996	-0.008558	-0.771973	0.523926	0.226807	0.420184	-0.594285	-0.503956	-0.465079
23730		9.532495	-0.302826	-2.055114	-0.006993	0.002072	-0.006483	-0.770996	0.525146	0.229004	0.420158	-0.594311	-0.503882	-0.465151
23731		9.531223	-0.307701	-2.031476	-0.004751	0.004751	-0.007582	-0.771729	0.520264	0.228760	0.420152	-0.594314	-0.503803	-0.465237
