// Start Time: Unknown
// Update Rate: 40.0Hz
// Filter Profile: human (46.1)
// Firmware Version: 4.6.0
PacketCounter	SampleTimeFine	Acc_X	Acc_Y	Acc_Z	Gyr_X	Gyr_Y	Gyr_Z	Mag_X	Mag_Y	Mag_Z	Quat_q0	Quat_q1	Quat_q2	Quat_q3
23208		9.342935	1.218249	2.401751	-0.004711	-0.000280	-0.001964	-0.790771	0.182617	0.003174	0.317806	-0.525058	-0.317507	-0.722843
23209		9.386749	1.241309	2.395121	-0.001011	-0.001601	-0.002259	-0.783203	0.187012	0.006836	0.317773	-0.525068	-0.317519	-0.722845
23210		9.413386	1.257972	2.394290	0.004986	-0.000791	-0.006606	-0.785645	0.190918	0.003174	0.317746	-0.525035	-0.317608	-0.722842
23211		9.384314	1.242305	2.419312	0.005959	0.008913	-0.007214	-0.784180	0.188721	0.004395	0.317754	-0.524903	-0.317675	-0.722905
23212		9.361757	1.244555	2.424044	0.003068	0.012910	-0.004990	-0.778809	0.179932	0.002686	0.317779	-0.524754	-0.317686	-0.722998
23213		9.330670	1.242366	2.432065	-0.001107	0.010552	-0.002110	-0.776367	0.186523	0.004639	0.317792	-0.524652	-0.317651	-0.723081
23214		9.351642	1.234575	2.391391	-0.010904	0.008686	-0.000463	-0.781250	0.184814	0.006348	0.317748	-0.524609	-0.317524	-0.723188
23215		9.371184	1.231416	2.414018	-0.009966	-0.001366	-0.000612	-0.775391	0.178955	0.000244	0.317667	-0.524654	-0.317448	-0.723223
23216		9.388771	1.219300	2.419085	-0.005779	0.005070	-0.002044	-0.779541	0.189209	0.000977	0.317626	-0.524620	-0.317395	-0.723290
23217		9.355113	1.210104	2.440957	0.003976	0.006337	-0.004044	-0.781738	0.190430	-0.001465	0.317638	-0.524529	-0.317437	-0.723333
23218		9.370024	1.240471	2.458708	0.004133	0.010466	-0.005741	-0.782715	0.183350	-0.002197	0.317655	-0.524391	-0.317470	-0.723411
23219		9.359287	1.269717	2.402558	-0.000536	0.010786	-0.007352	-0.782959	0.189453	0.002441	0.317627	-0.524255	-0.317469	-0.723522
23220		9.367761	1.238140	2.453778	-0.016711	-0.003103	-0.002894	-0.781738	0.190918	0.008057	0.317472	-0.524330	-0.317355	-0.723585
23221		9.323233	1.195833	2.368622	-0.020029	-0.013814	-0.001716	-0.777832	0.189941	0.000488	0.317265	-0.524519	-0.317244	-0.723588
23222		9.389743	1.165881	2.451661	0.003572	-0.021722	-0.005961	-0.781494	0.185303	-0.000732	0.317149	-0.524676	-0.317403	-0.723455
23223		9.359187	1.256707	2.334844	0.024019	-0.023426	-0.011785	-0.787842	0.189453	0.000488	0.317115	-0.524742	-0.317779	-0.723256
23224		9.421146	1.254500	2.370830	0.009573	-0.011022	-0.010523	-0.778320	0.184082	0.003174	0.317041	-0.524770	-0.317980	-0.723180
23225		9.383435	1.255118	2.385940	0.011034	-0.001094	-0.007477	-0.780762	0.191895	-0.003906	0.317032	-0.524726	-0.318144	-0.723145
23226		9.357987	1.270362	2.392494	0.009083	-0.001348	-0.007075	-0.776367	0.180176	0.005127	0.317031	-0.524686	-0.318281	-0.723114
23227		9.374589	1.263363	2.428983	0.006005	0.001973	-0.009390	-0.783691	0.187012	0.007812	0.316965	-0.524626	-0.318417	-0.723127
23228		9.385609	1.209535	2.425153	0.001890	0.001364	-0.011199	-0.778809	0.182373	0.000732	0.316860	-0.524589	-0.318519	-0.723154
23229		9.422957	1.213902	2.408879	0.005148	0.004520	-0.006021	-0.778564	0.189697	0.002686	0.316849	-0.524504	-0.318600	-0.723185
23230		9.368903	1.243761	2.356662	0.007604	0.011977	-0.002165	-0.780518	0.181152	0.000732	0.316941	-0.524379	-0.318624	-0.723224
23231		9.317906	1.235234	2.426513	0.005824	0.011201	-0.006832	-0.783691	0.179688	0.006104	0.316949	-0.524238	-0.318693	-0.723293
23232		9.313073	1.185574	2.477939	0.006599	-0.008225	-0.008998	-0.774658	0.187012	0.006836	0.316844	-0.524277	-0.318863	-0.723236
23233		9.388742	1.252062	2.387195	0.013655	-0.006926	-0.007609	-0.779785	0.186523	-0.007324	0.316852	-0.524289	-0.319037	-0.723147
23234		9.427104	1.287402	2.407604	0.000118	-0.005197	-0.006863	-0.787109	0.187744	-0.004883	0.316818	-0.524274	-0.319079	-0.723154
23235		9.406514	1.268011	2.388892	-0.003521	0.011822	-0.010054	-0.780029	0.183594	0.006348	0.316786	-0.524121	-0.319048	-0.723293
23236		9.348335	1.234637	2.440494	-0.001163	0.014007	-0.008350	-0.781982	0.183838	-0.004395	0.316740	-0.524004	-0.319039	-0.723401
23237		9.331405	1.226060	2.416469	-0.002570	0.004695	-0.003710	-0.779541	0.192383	0.007568	0.316733	-0.523928	-0.319012	-0.723472
23238		9.376693	1.252145	2.387090	0.003993	0.002871	-0.005133	-0.782959	0.181641	0.001953	0.316758	-0.523936	-0.319030	-0.723446
23239		9.388710	1.252502	2.419961	0.010633	-0.001828	-0.007287	-0.786377	0.183594	0.003418	0.316738	-0.523890	-0.319185	-0.723420
23240		9.386319	1.228803	2.445120	0.012391	0.000680	-0.005737	-0.771484	0.189453	-0.002686	0.316756	-0.523836	-0.319331	-0.723387
23241		9.354034	1.241791	2.431895	0.007344	0.005486	-0.003452	-0.781494	0.191162	-0.003906	0.316879	-0.523739	-0.319345	-0.723398
23242		9.363331	1.275283	2.436895	0.003511	0.007897	-0.005063	-0.777100	0.190918	0.005615	0.316979	-0.523621	-0.319322	-0.723449
23243		9.358416	1.241472	2.447464	-0.002354	0.008849	-0.006984	-0.779785	0.196533	0.003906	0.316984	-0.523592	-0.319267	-0.723493
23244		9.349170	1.231311	2.411787	-0.007105	0.007975	-0.001984	-0.781250	0.190186	-0.001953	0.317057	-0.523611	-0.319107	-0.723517
23245		9.376194	1.227548	2.423027	-0.008483	0.000988	-0.000108	-0.784180	0.183350	-0.004639	0.317081	-0.523635	-0.318974	-0.723548
23246		9.382417	1.205221	2.446071	-0.001724	0.000995	-0.002034	-0.787842	0.192627	-0.003662	0.317075	-0.523574	-0.318948	-0.723606
23247		9.350613	1.241156	2.430650	0.007866	0.001063	-0.003164	-0.785400	0.187012	-0.004395	0.317212	-0.523510	-0.318967	-0.723584
23248		9.346947	1.278920	2.433997	0.008966	0.005023	-0.005239	-0.776611	0.180420	0.002686	0.317300	-0.523371	-0.319022	-0.723622
23249		9.379236	1.267197	2.416655	-0.000146	0.006888	-0.010899	-0.773682	0.186279	-0.007568	0.317179	-0.523286	-0.319073	-0.723714
23250		9.389758	1.246088	2.484706	-0.011580	-0.000950	-0.006149	-0.780029	0.180176	0.007568	0.317131	-0.523250	-0.318954	-0.723813
23251		9.313367	1.215045	2.386295	-0.019261	-0.012398	-0.000495	-0.784912	0.181885	-0.006592	0.316861	-0.523513	-0.318859	-0.723783
23252		9.379168	1.204506	2.459568	0.004817	-0.018283	-0.004177	-0.779785	0.184814	0.006348	0.316801	-0.523551	-0.318988	-0.723725
23253		9.389641	1.224826	2.377253	0.020655	-0.015519	-0.011721	-0.769287	0.180664	-0.004639	0.316751	-0.523644	-0.319299	-0.723542
23254		9.403250	1.247978	2.373598	0.006628	-0.001807	-0.010310	-0.779541	0.187256	0.000244	0.316726	-0.523529	-0.319403	-0.723591
23255		9.338695	1.256529	2.389256	0.006308	0.005619	-0.008824	-0.773926	0.183105	-0.005615	0.316782	-0.523439	-0.319450	-0.723611
23256		9.327928	1.269620	2.374073	0.005962	0.002566	-0.007453	-0.787109	0.181641	-0.000977	0.316833	-0.523294	-0.319502	-0.723670
23257		9.380067	1.239078	2.419859	0.004954	0.000962	-0.009708	-0.785400	0.190918	0.001709	0.316757	-0.523206	-0.319613	-0.723718
23258		9.410770	1.224987	2.425203	-0.000947	0.001325	-0.004664	-0.781738	0.187500	0.000732	0.316824	-0.523240	-0.319575	-0.723681
23259		9.406354	1.231203	2.391447	-0.001657	0.017306	-0.005167	-0.786133	0.177002	-0.004150	0.316908	-0.523108	-0.319483	-0.723781
23260		9.326105	1.223442	2.322658	-0.004559	0.038739	-0.009552	-0.785400	0.172363	-0.005859	0.316872	-0.522658	-0.319378	-0.724167
23261		9.311738	1.212981	2.474443	0.002522	0.040666	-0.007794	-0.780762	0.188965	-0.001221	0.316841	-0.522140	-0.319349	-0.724568
23262		9.387152	1.211811	2.507164	0.006633	0.015686	-0.002258	-0.785889	0.183594	-0.002930	0.317043	-0.522020	-0.319299	-0.724588
23263		9.383106	1.289291	2.469226	0.004954	0.018456	-0.001659	-0.783203	0.185791	-0.000244	0.317156	-0.521829	-0.319263	-0.724691
23264		9.362829	1.249446	2.463705	-0.006271	0.012411	-0.004750	-0.779297	0.181641	0.001465	0.317160	-0.521787	-0.319156	-0.724767
23265		9.361831	1.218318	2.428175	-0.003501	0.014799	0.002177	-0.785156	0.187988	-0.002197	0.317172	-0.521755	-0.319046	-0.724833
23266		9.344141	1.241373	2.476074	0.000256	0.011191	0.003086	-0.787842	0.179688	-0.009277	0.317332	-0.521714	-0.318932	-0.724843
23267		9.345598	1.242911	2.454729	-0.005562	0.008657	0.000067	-0.779541	0.193359	-0.003174	0.317327	-0.521546	-0.318854	-0.725000
23268		9.358123	1.215206	2.458913	0.003640	0.003906	-0.002310	-0.784912	0.185547	-0.003662	0.317550	-0.521561	-0.318778	-0.724925
23269		9.368615	1.245974	2.430880	0.005543	0.002394	-0.005336	-0.783447	0.187012	-0.002441	0.317597	-0.521516	-0.318822	-0.724918
23270		9.386253	1.235820	2.435206	0.004800	-0.002593	-0.006073	-0.774902	0.187988	-0.011230	0.317632	-0.521548	-0.318873	-0.724857
23271		9.374569	1.227017	2.453227	0.003949	0.002285	-0.005472	-0.785400	0.184082	-0.002686	0.317807	-0.521413	-0.318832	-0.724895
23272		9.339336	1.233427	2.454926	0.004016	0.001139	-0.009319	-0.774414	0.185547	-0.006592	0.317764	-0.521383	-0.318915	-0.724899
23273		9.370809	1.224741	2.469240	0.004639	0.004325	-0.009645	-0.782227	0.190186	-0.005127	0.317828	-0.521281	-0.318934	-0.724936
23274		9.364640	1.229569	2.458357	-0.006065	0.007256	-0.005862	-0.779541	0.181396	0.002930	0.317929	-0.521250	-0.318809	-0.724970
23275		9.357635	1.228444	2.439222	-0.008987	0.004828	-0.002334	-0.774658	0.188477	-0.003906	0.317794	-0.521363	-0.318744	-0.724976
23276		9.373060	1.215143	2.468568	-0.004575	0.002659	-0.005952	-0.781494	0.184326	-0.004395	0.317858	-0.521392	-0.318646	-0.724970
23277		9.367721	1.176774	2.469041	0.007372	0.000861	-0.006790	-0.775391	0.184082	-0.005371	0.317889	-0.521346	-0.318723	-0.724956
23278		9.364880	1.219885	2.480364	0.015971	0.001696	-0.005598	-0.782227	0.183838	-0.009277	0.318011	-0.521257	-0.318844	-0.724912
23279		9.352371	1.285716	2.525713	0.005711	0.007138	-0.006675	-0.781006	0.181152	-0.000244	0.318089	-0.521078	-0.318864	-0.724998
23280		9.351093	1.283231	2.517364	0.005113	-0.004209	-0.009229	-0.783203	0.188232	-0.001221	0.317963	-0.521142	-0.318998	-0.724949
23281		9.334713	1.199772	2.362232	-0.019534	-0.013187	-0.001936	-0.778564	0.187256	-0.001221	0.317858	-0.521428	-0.318835	-0.724861
23282		9.322820	1.230335	2.489045	-0.009415	-0.018692	-0.005033	-0.775146	0.181641	0.002930	0.317762	-0.521708	-0.318801	-0.724717
23283		9.373890	1.209604	2.501490	0.017113	-0.030457	-0.011401	-0.774902	0.183350	0.002686	0.317598	-0.522001	-0.319151	-0.724424
23284		9.382330	1.240910	2.389501	0.013908	-0.021355	-0.013824	-0.775146	0.188477	-0.001709	0.317473	-0.522210	-0.319426	-0.724206
23285		9.395793	1.223815	2.429102	0.004077	-0.009314	-0.011001	-0.784912	0.187256	-0.007568	0.317503	-0.522306	-0.319475	-0.724102
23286		9.342379	1.261381	2.413922	0.003720	-0.004216	-0.006757	-0.776367	0.181152	-0.003662	0.317594	-0.522246	-0.319489	-0.724099
23287		9.334750	1.264475	2.424488	-0.001123	-0.003421	-0.010628	-0.775879	0.188477	0.001953	0.317488	-0.522232	-0.319532	-0.724137
23288		9.378549	1.207188	2.473967	-0.001290	-0.006995	-0.014318	-0.783691	0.190430	-0.004150	0.317436	-0.522376	-0.319565	-0.724042
23289		9.412629	1.200343	2.462486	-0.003507	-0.006202	-0.005373	-0.780762	0.183105	-0.004639	0.317526	-0.522445	-0.319492	-0.723985
23290		9.391422	1.265419	2.417692	-0.006467	0.001252	-0.002082	-0.782471	0.178955	-0.000244	0.317522	-0.522425	-0.319397	-0.724043
23291		9.342427	1.258673	2.462989	0.004280	0.014099	-0.010923	-0.787354	0.190186	-0.000977	0.317438	-0.522259	-0.319474	-0.724165
23292		9.314648	1.150124	2.472808	0.008418	0.001339	-0.008382	-0.780029	0.187256	-0.003662	0.317570	-0.522251	-0.319529	-0.724089
23293		9.325413	1.229159	2.439750	0.010273	-0.003087	-0.001689	-0.787598	0.189697	-0.005615	0.317737	-0.522254	-0.319563	-0.723999
23294		9.382257	1.280379	2.472240	-0.002239	-0.001566	-0.002918	-0.779297	0.190186	-0.001465	0.317857	-0.522255	-0.319478	-0.723982
23295		9.366808	1.228304	2.458412	-0.005944	0.000889	-0.007671	-0.781250	0.188232	-0.002197	0.317916	-0.522314	-0.319377	-0.723958
23296		9.341705	1.199107	2.478650	-0.001604	0.005125	-0.003733	-0.785889	0.184814	0.004639	0.318017	-0.522305	-0.319293	-0.723957
23297		9.336019	1.226188	2.465048	-0.004531	-0.000816	0.000281	-0.774658	0.192871	-0.006592	0.318004	-0.522454	-0.319277	-0.723863
23298		9.353189	1.226060	2.418343	-0.003784	0.000093	-0.000424	-0.781982	0.189941	-0.004883	0.318214	-0.522482	-0.319072	-0.723840
23299		9.372794	1.224418	2.440045	0.005132	0.001658	-0.005161	-0.781006	0.191162	-0.000488	0.318363	-0.522436	-0.319044	-0.723820
23300		9.368634	1.214637	2.447142	0.009102	0.003396	-0.005243	-0.783936	0.184326	-0.004395	0.318550	-0.522433	-0.319068	-0.723730
23301		9.361817	1.238371	2.425091	0.005640	0.004215	-0.004275	-0.776367	0.184570	0.000732	0.318603	-0.522340	-0.319093	-0.723763
23302		9.350043	1.253128	2.442346	0.004833	0.005611	-0.004762	-0.785645	0.190674	-0.004883	0.318648	-0.522329	-0.319119	-0.723739
23303		9.380401	1.215204	2.451118	0.006156	0.009107	-0.006150	-0.777832	0.184814	-0.002930	0.318823	-0.522209	-0.319090	-0.723761
23304		9.385952	1.218328	2.474910	0.005564	0.018185	-0.003079	-0.778809	0.191162	-0.001953	0.318950	-0.522039	-0.319040	-0.723851
23305		9.333004	1.232231	2.443940	-0.007413	0.018917	-0.002571	-0.785645	0.187500	-0.001953	0.319113	-0.521965	-0.318826	-0.723927
23306		9.328108	1.220935	2.454581	-0.006699	0.012815	-0.002306	-0.787109	0.182373	-0.006592	0.319179	-0.521912	-0.318705	-0.723989
23307		9.349818	1.178377	2.467305	0.000279	0.007703	-0.005317	-0.775879	0.185791	-0.004395	0.319157	-0.521774	-0.318700	-0.724100
23308		9.362546	1.223465	2.465973	0.006046	0.008483	-0.004927	-0.775146	0.181396	0.001709	0.319248	-0.521685	-0.318686	-0.724130
23309		9.347482	1.256273	2.497472	0.009340	0.010507	-0.010901	-0.783936	0.186279	0.003418	0.319217	-0.521606	-0.318818	-0.724142
23310		9.338124	1.272260	2.460320	0.003055	0.013586	-0.013497	-0.785400	0.183838	-0.003418	0.319212	-0.521545	-0.318901	-0.724153
23311		9.391611	1.227840	2.526825	-0.011426	-0.000944	-0.009305	-0.779541	0.185303	-0.008301	0.319070	-0.521581	-0.318858	-0.724208
23312		9.359311	1.188726	2.383989	-0.021482	-0.004186	-0.003703	-0.787354	0.194580	-0.009033	0.318947	-0.521663	-0.318623	-0.724306
23313		9.327779	1.203599	2.501249	0.003136	-0.012643	-0.010135	-0.791016	0.188965	-0.004150	0.319041	-0.521723	-0.318629	-0.724220
23314		9.377847	1.213529	2.421545	0.028677	-0.018350	-0.017776	-0.777832	0.192871	-0.002930	0.319102	-0.521723	-0.319043	-0.724010
23315		9.408600	1.238613	2.370057	0.015913	-0.006437	-0.014200	-0.780029	0.185547	-0.007324	0.319234	-0.521747	-0.319189	-0.723870
23316		9.335434	1.268145	2.385642	0.012203	0.005948	-0.013456	-0.770996	0.186035	-0.006836	0.319277	-0.521579	-0.319282	-0.723931
23317		9.323816	1.249616	2.456454	0.010159	0.008555	-0.012334	-0.788086	0.191895	-0.004639	0.319344	-0.521432	-0.319306	-0.723997
23318		9.361594	1.236724	2.452088	0.005206	0.008709	-0.014993	-0.783447	0.184326	0.000000	0.319443	-0.521314	-0.319343	-0.724022
23319		9.419266	1.237866	2.426929	0.001463	0.010567	-0.012796	-0.793945	0.185791	-0.012451	0.319420	-0.521233	-0.319413	-0.724060
23320		9.409296	1.244075	2.474014	-0.001877	0.017862	-0.008988	-0.780273	0.179199	-0.001465	0.319464	-0.520953	-0.319314	-0.724285
23321		9.340130	1.249147	2.417191	-0.000950	0.024120	-0.010681	-0.784912	0.186768	-0.006348	0.319421	-0.520741	-0.319313	-0.724458
23322		9.296243	1.245027	2.487196	-0.002614	0.026314	-0.012007	-0.784180	0.184814	-0.005615	0.319490	-0.520486	-0.319210	-0.724656
23323		9.336187	1.221797	2.512618	0.003153	0.007818	-0.013377	-0.780762	0.185059	-0.005127	0.319480	-0.520376	-0.319266	-0.724714
23324		9.369490	1.280348	2.458432	0.007719	0.013936	-0.011503	-0.781250	0.185059	-0.012207	0.319548	-0.520218	-0.319314	-0.724777
23325		9.409129	1.264507	2.524528	-0.005747	0.019092	-0.012878	-0.780518	0.179199	-0.008789	0.319539	-0.519984	-0.319170	-0.725012
23326		9.368078	1.247763	2.488606	-0.007763	0.024641	-0.014161	-0.784912	0.184082	0.000244	0.319438	-0.519719	-0.319073	-0.725289
23327		9.349097	1.218899	2.502666	-0.002678	0.026905	-0.010073	-0.774414	0.195557	-0.012451	0.319488	-0.519554	-0.319040	-0.725399
23328		9.311033	1.251120	2.540023	-0.003569	0.022421	-0.005755	-0.778076	0.182129	-0.007080	0.319741	-0.519392	-0.318749	-0.725532
23329		9.346612	1.274603	2.517668	0.000214	0.016489	-0.009378	-0.781738	0.186523	-0.004883	0.319749	-0.519243	-0.318717	-0.725649
23330		9.380192	1.249879	2.522164	0.013471	0.017103	-0.013825	-0.783203	0.182129	-0.004150	0.319872	-0.519060	-0.318830	-0.725676
23331		9.368485	1.264568	2.509527	0.013679	0.016031	-0.013491	-0.777832	0.191650	-0.003418	0.319932	-0.518872	-0.318997	-0.725711
23332		9.330556	1.298711	2.544945	0.007977	0.021122	-0.011400	-0.780273	0.181885	-0.015625	0.320134	-0.518743	-0.318983	-0.725721
23333		9.312545	1.299223	2.564133	0.003415	0.022027	-0.014247	-0.778076	0.182861	-0.009277	0.320139	-0.518427	-0.318933	-0.725965
23334		9.330812	1.245346	2.554696	-0.001652	0.026229	-0.013919	-0.778076	0.182617	-0.012451	0.320151	-0.518180	-0.318859	-0.726169
23335		9.345022	1.250315	2.546738	-0.011423	0.026582	-0.007808	-0.781494	0.181641	-0.011475	0.320156	-0.517963	-0.318634	-0.726420
23336		9.332216	1.293499	2.575652	-0.006158	0.024829	-0.008276	-0.782959	0.180420	-0.010254	0.320171	-0.517743	-0.318500	-0.726630
23337		9.321210	1.239779	2.579571	0.002446	0.022212	-0.013857	-0.781738	0.182129	-0.012207	0.320162	-0.517499	-0.318520	-0.726799
23338		9.290680	1.261159	2.554128	0.017700	0.014348	-0.014587	-0.782715	0.179199	-0.015625	0.320243	-0.517258	-0.318681	-0.726864
23339		9.337306	1.294032	2.604630	0.022270	0.019923	-0.014605	-0.783936	0.186768	-0.012451	0.320341	-0.516899	-0.318864	-0.726995
23340		9.316703	1.293585	2.546217	0.021800	0.021485	-0.015615	-0.780518	0.178223	-0.008057	0.320538	-0.516600	-0.319013	-0.727056
23341		9.318796	1.268385	2.587015	-0.009345	0.003438	-0.011427	-0.784668	0.184814	-0.017578	0.320377	-0.516627	-0.319012	-0.727108
23342		9.260674	1.264809	2.571454	-0.001357	-0.017658	-0.008165	-0.780518	0.182129	-0.012207	0.320317	-0.516746	-0.319041	-0.727037
23343		9.337462	1.256959	2.575509	0.020966	-0.033504	-0.011010	-0.783447	0.183838	-0.008301	0.320270	-0.516959	-0.319396	-0.726751
23344		9.369855	1.309481	2.426829	0.029525	-0.019082	-0.013611	-0.784668	0.185547	-0.012695	0.320333	-0.517034	-0.319807	-0.726489
23345		9.345010	1.303236	2.532435	0.016289	-0.005627	-0.012695	-0.781006	0.184814	-0.008057	0.320401	-0.517001	-0.319995	-0.726400
23346		9.295378	1.293609	2.565420	0.017716	-0.002042	-0.009905	-0.788574	0.174805	-0.004150	0.320504	-0.516993	-0.320188	-0.726275
23347		9.307482	1.299727	2.505207	0.009818	-0.005587	-0.009790	-0.783203	0.181885	-0.012451	0.320419	-0.517021	-0.320464	-0.726171
23348		9.362009	1.297117	2.524180	0.010810	-0.006316	-0.012072	-0.783447	0.183838	-0.008057	0.320410	-0.517005	-0.320621	-0.726117
23349		9.364780	1.266421	2.552172	0.005540	-0.005740	-0.006584	-0.777100	0.179443	-0.010010	0.320440	-0.517081	-0.320706	-0.726011
23350		9.332755	1.302142	2.534678	0.000479	-0.003900	-0.003519	-0.775879	0.180420	-0.015869	0.320419	-0.517144	-0.320713	-0.725973
23351		9.277213	1.288067	2.546909	0.001840	-0.007989	-0.005840	-0.770020	0.192139	-0.015625	0.320387	-0.517176	-0.320712	-0.725965
23352		9.300271	1.270371	2.553546	-0.006768	-0.009513	-0.007426	-0.779053	0.184326	-0.007324	0.320423	-0.517319	-0.320535	-0.725925
23353		9.351003	1.314314	2.521907	0.013014	-0.019989	-0.007904	-0.787354	0.187988	-0.003174	0.320434	-0.517501	-0.320736	-0.725701
23354		9.406444	1.286728	2.541005	-0.001123	-0.009318	-0.005793	-0.787354	0.174805	-0.009033	0.320459	-0.517688	-0.320783	-0.725537
23355		9.339608	1.301594	2.527068	-0.016061	-0.000773	-0.003685	-0.778564	0.179932	-0.009521	0.320292	-0.517737	-0.320713	-0.725606
23356		9.294662	1.267997	2.516658	-0.010950	0.000943	-0.001512	-0.778809	0.184570	-0.008301	0.320239	-0.517800	-0.320584	-0.725642
23357		9.321782	1.288379	2.524992	-0.010405	-0.002919	0.000697	-0.788818	0.180176	-0.014160	0.320245	-0.517938	-0.320431	-0.725608
23358		9.338534	1.266904	2.511751	-0.008829	-0.008081	-0.001293	-0.783936	0.186768	-0.008057	0.320181	-0.518005	-0.320365	-0.725618
23359		9.377067	1.246217	2.495927	0.000909	-0.006049	-0.002855	-0.781494	0.178711	-0.006592	0.320240	-0.518110	-0.320355	-0.725522
23360		9.350009	1.285980	2.531543	0.006126	-0.003703	-0.001894	-0.783691	0.174072	-0.020264	0.320258	-0.518153	-0.320443	-0.725444
23361		9.355493	1.307510	2.540919	-0.001752	-0.003137	-0.001905	-0.777832	0.184814	-0.005127	0.320190	-0.518064	-0.320415	-0.725549
23362		9.315740	1.319254	2.538130	-0.006751	0.001073	-0.003152	-0.787842	0.176270	-0.009277	0.320194	-0.518164	-0.320317	-0.725519
23363		9.311078	1.279329	2.539623	-0.013626	0.006201	-0.003311	-0.779541	0.178223	-0.006836	0.320089	-0.518140	-0.320221	-0.725626
23364		9.351814	1.264181	2.511969	-0.022489	0.005153	0.001718	-0.785889	0.182617	-0.001953	0.319981	-0.518232	-0.319981	-0.725713
23365		9.366260	1.268443	2.531964	-0.012083	0.008073	0.001020	-0.778809	0.185791	-0.008545	0.319984	-0.518309	-0.319843	-0.725718
23366		9.314426	1.216325	2.544290	0.002289	0.001615	0.001360	-0.772705	0.183594	-0.009033	0.320099	-0.518353	-0.319769	-0.725669
23367		9.305621	1.260706	2.542443	0.016449	-0.004937	-0.000900	-0.785645	0.181152	-0.015869	0.320231	-0.518387	-0.319859	-0.725546
23368		9.335892	1.302193	2.583690	0.016068	0.000768	-0.003610	-0.782715	0.184570	-0.014648	0.320354	-0.518253	-0.319976	-0.725536
23369		9.327067	1.275548	2.487136	0.014927	-0.005028	-0.002603	-0.782227	0.188477	-0.008789	0.320487	-0.518216	-0.320068	-0.725463
23370		9.340662	1.254874	2.528386	-0.027575	-0.017687	0.004022	-0.780273	0.181396	-0.008057	0.320381	-0.518566	-0.319782	-0.725386
23371		9.311411	1.244331	2.519247	-0.009279	-0.035279	0.002787	-0.772949	0.191162	-0.008789	0.320235	-0.518970	-0.319792	-0.725157
23372		9.384615	1.201479	2.560791	0.011411	-0.045327	-0.003462	-0.788086	0.190186	-0.007080	0.320224	-0.519402	-0.319960	-0.724779
23373		9.345933	1.261816	2.443922	0.017848	-0.033031	-0.005208	-0.773682	0.181885	-0.013916	0.320281	-0.519660	-0.320220	-0.724454
23374		9.353714	1.289479	2.455469	0.004849	-0.025373	-0.005719	-0.783203	0.184326	-0.004150	0.320197	-0.519824	-0.320304	-0.724336
23375		9.347493	1.268430	2.463388	0.008746	-0.020683	-0.006627	-0.776855	0.182373	-0.006836	0.320166	-0.520002	-0.320480	-0.724144
23376		9.335466	1.273535	2.457225	0.001030	-0.023565	-0.001967	-0.781738	0.182617	-0.009521	0.320098	-0.520232	-0.320541	-0.723982
23377		9.359944	1.267651	2.509706	0.001397	-0.020461	-0.004896	-0.780518	0.187500	-0.008057	0.320028	-0.520382	-0.320614	-0.723872
23378		9.351097	1.231731	2.493200	-0.004443	-0.018977	-0.006485	-0.783691	0.184570	-0.011963	0.319959	-0.520570	-0.320605	-0.723772
23379		9.358139	1.222398	2.460173	0.002915	-0.020359	-0.003192	-0.780273	0.190430	-0.000732	0.319940	-0.520697	-0.320657	-0.723666
23380		9.336304	1.242097	2.447722	0.007811	-0.012890	0.000405	-0.775879	0.184570	-0.005859	0.320056	-0.520880	-0.320705	-0.723461
23381		9.339320	1.256636	2.471170	-0.001512	-0.003605	-0.001210	-0.780273	0.183594	-0.004639	0.320078	-0.520945	-0.320640	-0.723434
23382		9.344717	1.250149	2.472062	0.008121	-0.020347	-0.006780	-0.783936	0.186768	-0.003418	0.320033	-0.521098	-0.320795	-0.723275
23383		9.367257	1.268594	2.423069	0.013603	-0.010855	-0.005788	-0.785645	0.186523	-0.008301	0.320105	-0.521159	-0.320950	-0.723130
23384		9.378867	1.264361	2.445523	-0.003780	-0.005789	-0.004469	-0.785645	0.194580	-0.001465	0.320100	-0.521202	-0.320902	-0.723123
23385		9.362690	1.285400	2.457185	-0.014122	-0.002832	-0.001250	-0.780762	0.186279	-0.006836	0.320142	-0.521361	-0.320711	-0.723074
23386		9.366959	1.249324	2.454242	-0.011426	-0.003364	-0.006524	-0.782227	0.186279	-0.008057	0.320067	-0.521423	-0.320590	-0.723116
23387		9.364558	1.219355	2.470669	-0.005820	-0.006707	-0.002866	-0.782227	0.187012	-0.012451	0.320049	-0.521494	-0.320507	-0.723110
23388		9.370178	1.256825	2.437076	-0.004307	-0.003102	-0.001658	-0.784424	0.179443	-0.004150	0.320076	-0.521498	-0.320386	-0.723149
23389		9.349539	1.262222	2.446500	-0.002369	-0.008658	-0.006089	-0.789795	0.184326	-0.008057	0.319970	-0.521560	-0.320435	-0.723129
23390		9.365125	1.245647	2.464200	-0.001775	-0.010141	-0.008197	-0.785156	0.190674	-0.006348	0.319901	-0.521599	-0.320477	-0.723113
23391		9.368135	1.254055	2.447331	0.002806	-0.003404	-0.005996	-0.780273	0.187500	-0.003662	0.319972	-0.521614	-0.320474	-0.723072
23392		9.364049	1.267612	2.451967	-0.003103	0.002715	-0.004240	-0.781982	0.181396	-0.006348	0.320007	-0.521623	-0.320399	-0.723083
23393		9.346830	1.276592	2.416015	-0.016487	0.001968	-0.003920	-0.784912	0.182129	0.001221	0.319891	-0.521648	-0.320229	-0.723192
23394		9.348203	1.234128	2.428567	-0.009093	-0.005821	-0.006595	-0.783447	0.175781	-0.005127	0.319774	-0.521758	-0.320221	-0.723167
23395		9.395799	1.206171	2.461269	-0.001513	-0.003603	-0.001208	-0.779297	0.190430	-0.003662	0.319702	-0.521770	-0.320231	-0.723186
23396		9.352203	1.246699	2.419924	0.003886	-0.004098	-0.002560	-0.781982	0.181396	0.004395	0.319801	-0.521829	-0.320216	-0.723106
23397		9.355612	1.267235	2.453077	0.003349	-0.001975	-0.008948	-0.775391	0.190918	-0.004883	0.319745	-0.521873	-0.320325	-0.723052
23398		9.357514	1.247732	2.431504	0.001947	0.003838	-0.009731	-0.781738	0.179443	-0.000488	0.319801	-0.521837	-0.320285	-0.723070
23399		9.394833	1.243085	2.498765	-0.016510	-0.002143	-0.003777	-0.777344	0.183594	-0.007324	0.319647	-0.521937	-0.320167	-0.723119
23400		9.326611	1.255894	2.384477	-0.019239	-0.014504	0.000002	-0.793213	0.184082	0.003174	0.319510	-0.522142	-0.319980	-0.723114
23401		9.353825	1.187220	2.460841	-0.003983	-0.025171	-0.007235	-0.781250	0.191650	0.000244	0.319361	-0.522405	-0.320115	-0.722930
23402		9.384371	1.205560	2.397855	0.023235	-0.027540	-0.011406	-0.785645	0.185059	0.000000	0.319417	-0.522585	-0.320438	-0.722632
23403		9.405324	1.275564	2.375205	0.013122	-0.016888	-0.006198	-0.781982	0.180420	0.004150	0.319435	-0.522693	-0.320639	-0.722457
23404		9.370738	1.289092	2.413926	0.008030	-0.010389	-0.008616	-0.787842	0.191406	0.009766	0.319375	-0.522774	-0.320814	-0.722348
23405		9.339610	1.254160	2.401345	0.010343	-0.012279	-0.006781	-0.782715	0.187012	0.005371	0.319441	-0.522937	-0.320989	-0.722122
23406		9.378125	1.242965	2.423988	0.009861	-0.013669	-0.005390	-0.780273	0.185547	0.009033	0.319473	-0.523078	-0.321143	-0.721938
23407		9.410078	1.252933	2.422948	0.002207	-0.020636	-0.002121	-0.779785	0.183838	-0.003662	0.319439	-0.523349	-0.321251	-0.721708
23408		9.408549	1.246967	2.433141	0.001493	-0.022116	-0.003325	-0.782227	0.188232	-0.000977	0.319372	-0.523530	-0.321309	-0.721581
23409		9.374281	1.236584	2.350701	0.002149	0.000990	-0.004733	-0.785156	0.192627	0.010986	0.319428	-0.523522	-0.321285	-0.721572
23410		9.345004	1.267806	2.372039	0.010604	0.010077	-0.008011	-0.781494	0.178467	0.010254	0.319583	-0.523480	-0.321367	-0.721497
23411		9.343734	1.203716	2.443219	-0.005929	-0.005565	-0.006302	-0.786865	0.181396	0.002930	0.319464	-0.523599	-0.321421	-0.721440
23412		9.361942	1.255637	2.367118	0.007203	-0.006054	-0.011507	-0.782715	0.182861	0.005371	0.319410	-0.523598	-0.321589	-0.721390
23413		9.418130	1.226231	2.355440	0.001532	-0.004528	-0.008918	-0.776855	0.186768	-0.001221	0.319357	-0.523647	-0.321668	-0.721342
23414		9.398274	1.265783	2.381853	-0.008175	0.009795	-0.006304	-0.775879	0.189697	0.001953	0.319347	-0.523599	-0.321509	-0.721452
23415		9.354685	1.226181	2.434017	-0.004982	0.011224	-0.003776	-0.790283	0.189209	0.008789	0.319407	-0.523571	-0.321353	-0.721515
23416		9.340076	1.225390	2.426466	-0.009026	0.001203	-0.001835	-0.786377	0.180664	0.000244	0.319430	-0.523672	-0.321276	-0.721467
23417		9.380088	1.259284	2.392420	-0.011122	-0.002649	-0.005103	-0.786377	0.187012	-0.001709	0.319322	-0.523718	-0.321211	-0.721510
23418		9.397476	1.244256	2.387331	-0.001686	-0.008325	-0.007129	-0.786621	0.178467	0.003662	0.319284	-0.523782	-0.321219	-0.721477
23419		9.398714	1.250883	2.393387	0.002484	-0.012283	-0.008655	-0.784180	0.183594	0.011719	0.319180	-0.523858	-0.321366	-0.721402
23420		9.384819	1.251824	2.382146	-0.000116	-0.004688	-0.007488	-0.781250	0.177490	0.002930	0.319135	-0.523960	-0.321448	-0.721312
23421		9.380200	1.237427	2.380137	-0.001140	0.001874	-0.008452	-0.782471	0.193604	0.001709	0.319053	-0.523926	-0.321483	-0.721357
23422		9.361816	1.234184	2.419674	-0.007029	0.007407	-0.008600	-0.785400	0.180176	0.005127	0.319072	-0.523918	-0.321347	-0.721415
23423		9.385697	1.234666	2.363386	-0.011879	0.007541	-0.005522	-0.787109	0.185059	0.000244	0.318996	-0.523903	-0.321252	-0.721501
23424		9.375025	1.229663	2.391261	-0.007120	-0.000831	-0.006753	-0.781982	0.190186	0.001221	0.318943	-0.523925	-0.321197	-0.721534
23425		9.362839	1.215725	2.401025	-0.001689	-0.000713	-0.007762	-0.778076	0.178711	0.004639	0.318946	-0.523957	-0.321152	-0.721528
23426		9.350201	1.226351	2.408536	0.007235	-0.000768	-0.009387	-0.789307	0.178711	0.002930	0.318906	-0.523934	-0.321266	-0.721512
23427		9.380341	1.261684	2.409991	0.005218	0.005350	-0.010325	-0.779785	0.181396	0.004883	0.318886	-0.523824	-0.321374	-0.721553
23428		9.377493	1.278577	2.392359	-0.001293	0.007091	-0.010485	-0.779785	0.187988	0.002930	0.318832	-0.523771	-0.321374	-0.721616
23429		9.384861	1.262450	2.424988	-0.023507	0.001111	-0.004917	-0.771973	0.182617	0.001709	0.318707	-0.523896	-0.321116	-0.721695
23430		9.318804	1.220956	2.375378	-0.014844	-0.013117	-0.004046	-0.782471	0.191650	0.004150	0.318541	-0.524105	-0.320985	-0.721675
23431		9.383789	1.180429	2.432801	0.011336	-0.023506	-0.006041	-0.783447	0.181396	0.002930	0.318562	-0.524321	-0.321139	-0.721440
23432		9.394838	1.257955	2.361717	0.027694	-0.021937	-0.008371	-0.785156	0.186035	0.011719	0.318608	-0.524395	-0.321504	-0.721203
23433		9.408406	1.280937	2.355952	0.013633	-0.010174	-0.005472	-0.779785	0.182129	0.007324	0.318662	-0.524502	-0.321687	-0.721020
23434		9.355734	1.274362	2.353678	0.017822	0.001686	-0.007924	-0.780029	0.186279	0.006104	0.318738	-0.524440	-0.321862	-0.720953
23435		9.353217	1.246516	2.370734	0.021803	0.001135	-0.005261	-0.781738	0.186035	0.002930	0.318891	-0.524387	-0.322031	-0.720849
23436		9.391398	1.264039	2.403119	0.011179	0.003915	-0.003047	-0.783936	0.186768	0.005615	0.319008	-0.524335	-0.322074	-0.720815
23437		9.393338	1.251157	2.422401	0.005884	0.000357	-0.004662	-0.784912	0.186279	0.005127	0.319067	-0.524345	-0.322109	-0.720766
23438		9.408647	1.227040	2.401734	0.005513	0.003700	-0.004629	-0.782959	0.185059	0.005371	0.319135	-0.524319	-0.322132	-0.720745
23439		9.388874	1.227137	2.350780	0.006817	0.021246	-0.002295	-0.782959	0.187744	0.002197	0.319293	-0.524140	-0.322081	-0.720828
23440		9.310668	1.248367	2.419523	0.015781	0.022972	-0.001305	-0.786133	0.188965	0.005859	0.319542	-0.523907	-0.322074	-0.720890
23441		9.322454	1.224612	2.457890	0.004461	0.007887	-0.001278	-0.778076	0.191406	-0.000732	0.319666	-0.523879	-0.322045	-0.720869
23442		9.380687	1.269518	2.394608	0.012041	0.001408	-0.006369	-0.781006	0.192383	0.000732	0.319770	-0.523845	-0.322077	-0.720833
23443		9.416762	1.248962	2.403597	0.004990	0.000545	-0.005844	-0.785400	0.179932	0.005615	0.319838	-0.523856	-0.322058	-0.720803
23444		9.368849	1.262315	2.413939	0.000568	0.009070	-0.005156	-0.776611	0.190918	0.001221	0.319854	-0.523779	-0.322066	-0.720849
23445		9.323264	1.237188	2.446847	0.000104	0.011781	-0.003914	-0.781982	0.187256	-0.002441	0.319936	-0.523723	-0.321941	-0.720908
23446		9.341050	1.219477	2.412193	-0.000947	0.001362	-0.006205	-0.784668	0.183594	-0.001465	0.319937	-0.523709	-0.321890	-0.720942
23447		9.389124	1.213836	2.411542	0.004643	0.000386	-0.005315	-0.779297	0.183594	0.001953	0.319962	-0.523670	-0.321920	-0.720945
23448		9.387912	1.263215	2.407347	0.007308	0.001605	-0.006414	-0.781494	0.186279	0.014404	0.319990	-0.523637	-0.321971	-0.720934
23449		9.365370	1.288963	2.407678	0.006121	0.001664	-0.008636	-0.776855	0.183350	-0.000732	0.320003	-0.523680	-0.322062	-0.720856
23450		9.366916	1.241146	2.380111	0.002868	0.003133	-0.012008	-0.782715	0.186523	0.001709	0.319953	-0.523618	-0.322086	-0.720913
23451		9.377811	1.238110	2.405409	0.002824	0.004264	-0.008188	-0.772461	0.184814	0.005371	0.319969	-0.523575	-0.322092	-0.720934
23452		9.370138	1.269171	2.424063	-0.001831	0.002711	-0.005134	-0.781982	0.177490	0.001465	0.319946	-0.523617	-0.322027	-0.720943
23453		9.377923	1.274305	2.422839	-0.010568	0.011054	-0.008499	-0.778076	0.179688	-0.000488	0.319849	-0.523530	-0.321931	-0.721092
23454		9.378226	1.220171	2.389433	-0.014026	0.011820	-0.007539	-0.783203	0.183838	0.005371	0.319748	-0.523461	-0.321764	-0.721261
23455		9.356112	1.204491	2.436813	-0.007703	0.004724	-0.004799	-0.783447	0.190186	0.001465	0.319707	-0.523486	-0.321673	-0.721302
23456		9.363549	1.232950	2.433090	-0.005734	0.005623	-0.004842	-0.780518	0.180664	-0.001953	0.319721	-0.523494	-0.321554	-0.721343
23457		9.352469	1.245149	2.417999	0.005318	0.002496	-0.011029	-0.781250	0.184570	0.004395	0.319690	-0.523409	-0.321621	-0.721389
23458		9.378756	1.224621	2.463146	0.005889	0.005692	-0.011368	-0.777344	0.196777	0.000488	0.319683	-0.523346	-0.321677	-0.721412
23459		9.363685	1.278410	2.459542	0.001458	0.007168	-0.008129	-0.783447	0.189209	-0.004639	0.319748	-0.523333	-0.321583	-0.721435
23460		9.360709	1.244884	2.344634	-0.024066	-0.006264	-0.004465	-0.781738	0.185791	-0.000732	0.319601	-0.523484	-0.321335	-0.721501
23461		9.336566	1.200648	2.437303	-0.015950	-0.016617	-0.005776	-0.775635	0.182617	-0.005127	0.319428	-0.523703	-0.321232	-0.721464
23462		9.398351	1.193943	2.464364	0.011300	-0.028223	-0.004638	-0.781006	0.184082	0.006104	0.319379	-0.523893	-0.321400	-0.721273
23463		9.384909	1.272558	2.326171	0.019818	-0.026057	-0.008474	-0.781250	0.184570	-0.002197	0.319358	-0.524076	-0.321694	-0.721019
23464		9.401968	1.269805	2.390104	0.007468	-0.013523	-0.008245	-0.781738	0.191650	0.002441	0.319327	-0.524143	-0.321805	-0.720934
23465		9.359661	1.239855	2.353497	0.012352	-0.006043	-0.004687	-0.773682	0.189941	-0.000732	0.319423	-0.524190	-0.321886	-0.720822
23466		9.327337	1.259130	2.378864	0.014938	-0.004291	-0.002319	-0.775879	0.185059	0.007080	0.319549	-0.524209	-0.321946	-0.720725
23467		9.384072	1.265242	2.414255	0.004822	-0.005376	-0.005178	-0.782959	0.196533	0.000000	0.319540	-0.524293	-0.321982	-0.720652
23468		9.404660	1.204896	2.389177	0.004957	-0.007082	-0.003633	-0.780518	0.196289	0.002930	0.319622	-0.524381	-0.321972	-0.720556
23469		9.421577	1.213384	2.382327	0.005818	0.002066	0.001072	-0.787109	0.181396	0.001953	0.319780	-0.524422	-0.321903	-0.720487
23470		9.371833	1.260283	2.339900	0.005130	0.014051	0.001677	-0.784668	0.188965	-0.003906	0.319916	-0.524286	-0.321862	-0.720544
23471		9.302699	1.232086	2.399848	0.006981	0.016096	-0.001821	-0.790039	0.194580	0.004150	0.320083	-0.524110	-0.321798	-0.720626
23472		9.373802	1.191282	2.452506	0.004615	0.005065	-0.003553	-0.781250	0.185059	0.000732	0.320202	-0.524094	-0.321782	-0.720592
23473		9.401032	1.255578	2.393081	0.012535	0.010432	-0.001127	-0.785645	0.188477	0.002686	0.320357	-0.523971	-0.321806	-0.720602
23474		9.416145	1.259421	2.381568	-0.003379	0.016645	-0.003113	-0.773193	0.197754	0.001709	0.320436	-0.523864	-0.321680	-0.720701
23475		9.360323	1.248795	2.409242	-0.008886	0.022350	-0.005365	-0.778320	0.183350	-0.000244	0.320515	-0.523771	-0.321421	-0.720849
23476		9.331024	1.194403	2.391816	-0.003788	0.020558	-0.001172	-0.780029	0.189209	0.003174	0.320589	-0.523620	-0.321258	-0.720998
23477		9.374927	1.233315	2.415919	-0.010469	0.023382	-0.003239	-0.781006	0.185059	-0.001221	0.320641	-0.523500	-0.321029	-0.721164
23478		9.397769	1.241474	2.403967	-0.000185	0.022858	-0.009204	-0.777100	0.194092	0.003174	0.320687	-0.523280	-0.320943	-0.721341
23479		9.389370	1.204977	2.465441	0.007295	0.020437	-0.011301	-0.782227	0.188721	0.001953	0.320792	-0.523110	-0.320912	-0.721432
23480		9.380676	1.229484	2.447397	0.005778	0.022664	-0.008478	-0.782959	0.185303	-0.000244	0.320901	-0.522904	-0.320874	-0.721550
23481		9.339993	1.247145	2.458332	0.002355	0.019915	-0.007028	-0.775391	0.185059	-0.005127	0.320974	-0.522719	-0.320818	-0.721676
23482		9.333413	1.244296	2.409209	0.000096	0.013615	-0.010129	-0.770020	0.191406	-0.006836	0.320972	-0.522577	-0.320755	-0.721808
23483		9.389236	1.227520	2.451695	0.000383	0.013744	-0.009095	-0.775146	0.185791	0.000732	0.321011	-0.522460	-0.320646	-0.721924
23484		9.386054	1.255898	2.486198	-0.004071	0.023433	-0.006159	-0.778809	0.182129	-0.000732	0.321056	-0.522300	-0.320493	-0.722088
23485		9.362311	1.243942	2.445183	-0.010267	0.025873	-0.004961	-0.780029	0.190430	-0.006592	0.321067	-0.522121	-0.320288	-0.722303
23486		9.334742	1.227795	2.451366	-0.011654	0.019952	-0.004968	-0.779541	0.185547	-0.000977	0.321096	-0.521998	-0.320054	-0.722482
23487		9.369811	1.206305	2.465377	-0.003845	0.018260	-0.005670	-0.788086	0.185791	0.000244	0.321129	-0.521874	-0.319932	-0.722612
23488		9.360302	1.232336	2.478687	0.003587	0.015805	-0.006195	-0.786133	0.183594	-0.004639	0.321204	-0.521733	-0.319913	-0.722688
23489		9.343347	1.259917	2.502167	0.009505	0.009133	-0.008275	-0.777588	0.180908	-0.001953	0.321266	-0.521592	-0.319984	-0.722732
23490		9.352181	1.291828	2.475910	-0.000546	0.014509	-0.008364	-0.785400	0.188965	-0.011475	0.321255	-0.521464	-0.319934	-0.722851
23491		9.376532	1.215224	2.542509	-0.021651	0.003604	-0.006604	-0.782959	0.176758	-0.003662	0.321144	-0.521488	-0.319702	-0.722985
23492		9.310115	1.199993	2.399632	-0.031072	-0.006055	-0.001798	-0.780518	0.190430	-0.008301	0.320898	-0.521664	-0.319442	-0.723082
23493		9.308722	1.165199	2.507396	-0.008701	-0.013384	-0.004934	-0.778320	0.186768	-0.001221	0.320817	-0.521825	-0.319372	-0.723033
23494		9.399161	1.191738	2.436643	0.014998	-0.021258	-0.010877	-0.781494	0.175049	-0.003906	0.320770	-0.521970	-0.319601	-0.722848
23495		9.415013	1.238454	2.373422	0.014118	-0.007532	-0.011789	-0.783691	0.180664	0.001953	0.320714	-0.521930	-0.319819	-0.722805
23496		9.377887	1.255346	2.447138	0.014394	0.006694	-0.008574	-0.779297	0.192139	-0.000244	0.320763	-0.521823	-0.319950	-0.722803
23497		9.300185	1.269864	2.470966	0.012203	0.008026	-0.006611	-0.784180	0.184326	-0.005127	0.320879	-0.521753	-0.319988	-0.722785
23498		9.350479	1.272731	2.456914	0.011543	0.009526	-0.011775	-0.783447	0.186035	-0.007568	0.320929	-0.521590	-0.320087	-0.722837
23499		9.399183	1.221544	2.462929	0.004332	0.010903	-0.010916	-0.782715	0.176758	0.001221	0.320960	-0.521440	-0.320101	-0.722925
23500		9.393366	1.243804	2.511258	-0.003104	0.014515	-0.008135	-0.780518	0.180420	-0.005859	0.320910	-0.521325	-0.320047	-0.723054
23501		9.352748	1.260978	2.521495	-0.010189	0.020681	-0.010187	-0.776367	0.186768	-0.009766	0.320856	-0.521148	-0.319898	-0.723271
23502		9.313560	1.240051	2.453598	-0.001121	0.024923	-0.016572	-0.781738	0.179443	-0.006348	0.320861	-0.520877	-0.319824	-0.723497
23503		9.330756	1.192481	2.508269	-0.004287	0.016973	-0.014659	-0.782959	0.190430	-0.005859	0.320787	-0.520691	-0.319776	-0.723685
23504		9.350316	1.264940	2.471296	0.006989	0.015710	-0.014034	-0.778076	0.182373	-0.002197	0.320842	-0.520512	-0.319797	-0.723780
23505		9.398704	1.271584	2.491382	-0.002853	0.014120	-0.016264	-0.786621	0.187012	-0.008789	0.320746	-0.520386	-0.319762	-0.723928
23506		9.351578	1.230720	2.468071	-0.012289	0.020935	-0.013598	-0.778076	0.181152	-0.000732	0.320697	-0.520209	-0.319604	-0.724147
23507		9.351386	1.214147	2.483548	-0.005256	0.018293	-0.012027	-0.777588	0.185547	-0.005859	0.320628	-0.520082	-0.319504	-0.724313
23508		9.322595	1.246965	2.483981	-0.003246	0.018013	-0.007053	-0.775391	0.186035	-0.006348	0.320657	-0.519954	-0.319377	-0.724448
23509		9.329778	1.224156	2.478567	-0.003706	0.014287	-0.010185	-0.780762	0.187012	-0.010742	0.320640	-0.519853	-0.319275	-0.724573
23510		9.381898	1.241294	2.491530	0.003423	0.011123	-0.012077	-0.785645	0.183838	-0.003418	0.320666	-0.519713	-0.319275	-0.724662
23511		9.379348	1.263480	2.483596	0.011786	0.013820	-0.010832	-0.780762	0.182373	-0.015137	0.320729	-0.519550	-0.319348	-0.724719
23512		9.332357	1.263807	2.514834	0.006127	0.018289	-0.012241	-0.770752	0.178955	-0.012207	0.320795	-0.519295	-0.319364	-0.724866
23513		9.314674	1.264217	2.533001	-0.000211	0.015384	-0.017329	-0.786133	0.195312	-0.007324	0.320723	-0.519098	-0.319352	-0.725043
23514		9.317560	1.255587	2.531573	0.002292	0.012391	-0.013596	-0.784180	0.182129	-0.003906	0.320764	-0.518993	-0.319327	-0.725111
23515		9.362656	1.266348	2.515344	-0.003716	0.013133	-0.012440	-0.780273	0.187256	-0.015381	0.320699	-0.518896	-0.319272	-0.725234
23516		9.347503	1.267228	2.509165	-0.013012	0.012338	-0.010720	-0.781494	0.183105	-0.015869	0.320652	-0.518801	-0.319109	-0.725394
23517		9.326131	1.249435	2.524820	-0.011856	0.010519	-0.011100	-0.773193	0.180176	-0.011719	0.320584	-0.518701	-0.318983	-0.725551
23518		9.330176	1.243851	2.530965	-0.004235	0.006971	-0.009713	-0.777344	0.190918	-0.011719	0.320526	-0.518639	-0.318918	-0.725650
23519		9.356851	1.260517	2.499962	0.009391	0.006247	-0.011519	-0.784668	0.180908	-0.013184	0.320597	-0.518547	-0.318968	-0.725662
23520		9.366013	1.294799	2.573306	0.015063	0.010671	-0.011581	-0.772705	0.184326	-0.012451	0.320681	-0.518346	-0.319099	-0.725712
23521		9.333539	1.317894	2.579575	0.012202	0.023553	-0.014009	-0.776611	0.185059	0.002930	0.320781	-0.518062	-0.319132	-0.725855
23522		9.311332	1.251047	2.623752	-0.011347	0.007162	-0.005443	-0.778564	0.174561	-0.013184	0.320681	-0.518153	-0.318947	-0.725916
23523		9.278375	1.271169	2.457790	-0.015978	-0.009213	-0.003430	-0.780029	0.182373	-0.006348	0.320521	-0.518284	-0.318829	-0.725945
23524		9.325092	1.231119	2.564002	0.005843	-0.019708	-0.004595	-0.782959	0.187256	-0.007812	0.320460	-0.518481	-0.318928	-0.725788
23525		9.381688	1.250240	2.544735	0.019861	-0.025532	-0.009038	-0.786377	0.186523	-0.007568	0.320461	-0.518654	-0.319199	-0.725544
23526		9.351735	1.276513	2.451250	0.018698	-0.004779	-0.009359	-0.783691	0.174316	-0.016357	0.320533	-0.518635	-0.319389	-0.725442
23527		9.297639	1.290002	2.539281	0.021422	0.008321	-0.008609	-0.778076	0.179199	-0.010010	0.320664	-0.518401	-0.319594	-0.725462
23528		9.289752	1.285970	2.512323	0.010833	0.016370	-0.007492	-0.781738	0.176270	-0.011963	0.320756	-0.518206	-0.319624	-0.725547
23529		9.349345	1.286402	2.557213	0.007581	0.014270	-0.008831	-0.785156	0.179688	-0.006592	0.320803	-0.518014	-0.319661	-0.725647
23530		9.384296	1.261966	2.560872	0.003647	0.008273	-0.007081	-0.782959	0.177246	-0.007080	0.320807	-0.517942	-0.319660	-0.725697
23531		9.367430	1.260190	2.576949	0.002545	0.007733	-0.003957	-0.770752	0.187256	-0.013916	0.320819	-0.517886	-0.319633	-0.725744
23532		9.308791	1.269946	2.522013	0.002362	0.010013	-0.003590	-0.780518	0.176025	-0.014160	0.320919	-0.517812	-0.319553	-0.725788
23533		9.245537	1.260001	2.557539	0.007412	0.009430	-0.004370	-0.774170	0.183838	-0.016113	0.320993	-0.517674	-0.319581	-0.725841
23534		9.296487	1.216663	2.579974	-0.001152	0.000657	-0.001876	-0.782471	0.181641	-0.005859	0.321046	-0.517678	-0.319520	-0.725842
23535		9.349510	1.289591	2.600984	0.011512	-0.014110	-0.002374	-0.776855	0.182861	-0.010742	0.321049	-0.517817	-0.319631	-0.725692
23536		9.385146	1.303897	2.555029	0.000305	-0.002198	-0.003476	-0.776367	0.180420	-0.012695	0.321051	-0.517863	-0.319598	-0.725673
23537		9.320115	1.245455	2.549019	-0.006657	0.007554	-0.003457	-0.777832	0.179932	-0.009766	0.321046	-0.517828	-0.319476	-0.725753
23538		9.313138	1.255950	2.578885	-0.005408	0.003977	-0.000742	-0.779785	0.175537	-0.016113	0.321039	-0.517850	-0.319358	-0.725793
23539		9.312925	1.255599	2.579824	-0.005867	0.002568	0.000637	-0.775391	0.180908	-0.001709	0.321055	-0.517834	-0.319268	-0.725838
23540		9.340794	1.240727	2.540490	-0.002125	-0.008690	-0.000377	-0.776855	0.187500	-0.015625	0.320969	-0.518022	-0.319191	-0.725775
23541		9.355151	1.271004	2.553746	0.005907	-0.012015	-0.001057	-0.777588	0.181885	-0.012451	0.321045	-0.518120	-0.319238	-0.725651
23542		9.368834	1.296835	2.558539	0.000212	-0.008163	-0.002829	-0.780518	0.185059	-0.014893	0.321034	-0.518203	-0.319238	-0.725596
23543		9.326562	1.288738	2.520390	-0.004789	-0.003979	-0.005647	-0.784668	0.184814	-0.011719	0.321017	-0.518244	-0.319201	-0.725591
23544		9.317501	1.264661	2.557093	-0.007909	-0.003078	-0.005241	-0.781006	0.182617	-0.019775	0.320967	-0.518307	-0.319126	-0.725601
23545		9.333127	1.247823	2.576225	-0.011954	-0.007920	-0.006934	-0.776855	0.188721	-0.014648	0.320897	-0.518364	-0.319073	-0.725614
23546		9.350499	1.227731	2.562697	-0.018679	-0.008130	-0.005090	-0.780518	0.177734	-0.015869	0.320798	-0.518512	-0.318909	-0.725624
23547		9.340642	1.225316	2.496035	-0.024047	-0.008271	-0.005684	-0.778564	0.180908	-0.013672	0.320605	-0.518642	-0.318735	-0.725693
23548		9.327709	1.212360	2.536341	-0.015129	-0.010617	-0.002925	-0.788086	0.188232	-0.007080	0.320491	-0.518792	-0.318617	-0.725688
23549		9.322669	1.215154	2.521946	-0.005554	-0.009669	-0.003607	-0.782471	0.177490	-0.006592	0.320443	-0.518939	-0.318567	-0.725626
23550		9.359282	1.251658	2.541751	0.005479	-0.011571	-0.005896	-0.777588	0.184082	-0.003906	0.320368	-0.519037	-0.318648	-0.725554
23551		9.382757	1.297091	2.570280	0.000058	0.001290	-0.008106	-0.781006	0.185547	-0.012207	0.320310	-0.519068	-0.318612	-0.725573
23552		9.313379	1.280338	2.574136	-0.006436	-0.005321	-0.006488	-0.774170	0.186279	-0.007568	0.320265	-0.519132	-0.318568	-0.725567
23553		9.277683	1.214852	2.443425	-0.029959	-0.012870	0.000619	-0.784424	0.185303	-0.006592	0.320073	-0.519428	-0.318264	-0.725573
23554		9.311089	1.200139	2.545319	-0.012374	-0.030043	-0.000201	-0.779785	0.182373	-0.006104	0.319912	-0.519796	-0.318212	-0.725403
23555		9.395871	1.198593	2.577125	0.003982	-0.036557	-0.000565	-0.778564	0.189697	-0.007324	0.319810	-0.520153	-0.318334	-0.725138
23556		9.378441	1.254389	2.428210	0.011021	-0.022571	-0.004206	-0.777832	0.185303	-0.007812	0.319830	-0.520344	-0.318479	-0.724929
23557		9.364749	1.246078	2.497709	0.007122	-0.014925	-0.005272	-0.782227	0.185303	0.001709	0.319826	-0.520462	-0.318576	-0.724803
23558		9.344821	1.256519	2.514125	0.007375	-0.005366	-0.003817	-0.779053	0.187256	-0.004883	0.319815	-0.520557	-0.318601	-0.724729
23559		9.332962	1.258352	2.480157	0.008019	0.000242	-0.002748	-0.772705	0.188232	-0.012207	0.319893	-0.520565	-0.318617	-0.724682
23560		9.384870	1.248665	2.515656	0.003204	-0.001410	-0.003874	-0.779053	0.183594	0.001709	0.319975	-0.520561	-0.318620	-0.724647
23561		9.376850	1.216467	2.511673	-0.002123	-0.003361	0.000189	-0.777588	0.194580	-0.002686	0.319936	-0.520689	-0.318524	-0.724614
23562		9.339158	1.212574	2.527539	0.000264	-0.001632	-0.001572	-0.783691	0.187012	-0.007568	0.319989	-0.520781	-0.318444	-0.724560
23563		9.300292	1.220366	2.493322	0.003403	0.008104	-0.000867	-0.785400	0.185059	-0.001709	0.320101	-0.520717	-0.318395	-0.724579
23564		9.287633	1.262580	2.516720	0.009341	0.002027	-0.001033	-0.780762	0.179932	0.000488	0.320179	-0.520716	-0.318411	-0.724537
23565		9.361270	1.219646	2.534202	0.000770	-0.013215	-0.001326	-0.780518	0.188477	-0.002441	0.320095	-0.520895	-0.318410	-0.724446
23566		9.379711	1.254835	2.499819	0.012080	-0.007265	-0.006340	-0.783691	0.182129	-0.003174	0.320124	-0.520954	-0.318508	-0.724348
23567		9.384130	1.244386	2.493905	0.004500	-0.001383	-0.004762	-0.780762	0.177246	-0.006592	0.320119	-0.520971	-0.318530	-0.724329
23568		9.331191	1.263603	2.499077	-0.006970	0.003260	-0.002771	-0.781982	0.183350	-0.008057	0.320076	-0.520968	-0.318438	-0.724390
23569		9.318061	1.222541	2.535351	-0.006816	0.000386	-0.003486	-0.783203	0.180420	-0.010010	0.320053	-0.520991	-0.318355	-0.724420
23570		9.358890	1.205216	2.497092	-0.007695	-0.004147	-0.004884	-0.786133	0.189209	-0.002686	0.319994	-0.521031	-0.318308	-0.724438
23571		9.368727	1.207514	2.461243	0.004473	-0.001980	-0.005112	-0.780762	0.179932	-0.003418	0.320012	-0.521070	-0.318317	-0.724398
23572		9.380953	1.241928	2.508703	0.007410	-0.000601	-0.005160	-0.779541	0.187500	-0.003906	0.320015	-0.521062	-0.318365	-0.724382
23573		9.334811	1.257015	2.494215	0.004890	0.006551	-0.010579	-0.779785	0.188232	-0.009277	0.320018	-0.520995	-0.318376	-0.724423
23574		9.317542	1.235645	2.544116	0.004174	0.004461	-0.012134	-0.777100	0.184814	-0.010742	0.320035	-0.520909	-0.318422	-0.724458
23575		9.359694	1.234948	2.532614	0.001633	0.005605	-0.009657	-0.776123	0.179932	-0.006592	0.320055	-0.520819	-0.318433	-0.724509
23576		9.351866	1.242414	2.554342	-0.005134	0.009499	-0.007939	-0.780029	0.188232	-0.002686	0.320009	-0.520746	-0.318347	-0.724619
23577		9.326790	1.223821	2.524659	-0.013203	0.006893	-0.008144	-0.784424	0.176758	-0.008301	0.319911	-0.520771	-0.318169	-0.724723
23578		9.331397	1.205088	2.480794	-0.010616	0.002791	-0.008225	-0.785645	0.190186	-0.009277	0.319798	-0.520754	-0.318089	-0.724820
23579		9.340942	1.203957	2.538005	-0.002398	-0.001636	-0.007042	-0.780518	0.188477	-0.006104	0.319804	-0.520771	-0.318069	-0.724814
23580		9.331816	1.246626	2.504424	0.004853	0.001801	-0.009229	-0.775635	0.189941	-0.008057	0.319819	-0.520742	-0.318097	-0.724815
23581		9.348263	1.241414	2.541699	0.005596	0.002184	-0.011828	-0.778320	0.179443	-0.004883	0.319837	-0.520692	-0.318146	-0.724822
23582		9.350321	1.251002	2.527531	0.002131	0.008225	-0.010332	-0.780762	0.186768	-0.003662	0.319796	-0.520604	-0.318139	-0.724906
23583		9.356889	1.242828	2.600974	-0.018824	0.000641	-0.003422	-0.782959	0.176270	-0.012695	0.319679	-0.520719	-0.317911	-0.724976
23584		9.300074	1.231197	2.452912	-0.015839	-0.018041	-0.005009	-0.780762	0.188477	-0.002686	0.319505	-0.520897	-0.317860	-0.724947
23585		9.328697	1.163953	2.529486	-0.005133	-0.023645	-0.004749	-0.778076	0.182129	-0.007812	0.319373	-0.521178	-0.317856	-0.724804
23586		9.372083	1.235949	2.480174	0.021072	-0.030782	-0.007404	-0.789062	0.181396	0.004150	0.319367	-0.521360	-0.318169	-0.724539
23587		9.411690	1.263863	2.422525	0.012711	-0.022883	-0.007512	-0.781738	0.186768	-0.001221	0.319253	-0.521568	-0.318339	-0.724365
23588		9.367149	1.246883	2.489347	0.013085	-0.007324	-0.008263	-0.786865	0.179199	-0.004883	0.319263	-0.521610	-0.318461	-0.724277
23589		9.311874	1.248065	2.458748	0.014117	-0.003356	-0.003079	-0.780762	0.177979	-0.001709	0.319337	-0.521585	-0.318584	-0.724208
23590		9.353998	1.253741	2.485890	0.011685	-0.000975	-0.001458	-0.790771	0.178467	-0.005371	0.319388	-0.521580	-0.318643	-0.724163
23591		9.397106	1.235469	2.515445	0.003143	-0.002597	-0.004569	-0.787354	0.188232	-0.004883	0.319381	-0.521576	-0.318684	-0.724151
23592		9.387717	1.194690	2.494822	0.007532	0.001260	-0.005669	-0.779053	0.197998	0.000977	0.319448	-0.521545	-0.318727	-0.724125
23593		9.358870	1.221544	2.483465	0.007562	0.009482	-0.000265	-0.779785	0.189209	-0.007080	0.319594	-0.521531	-0.318640	-0.724108
23594		9.301659	1.245098	2.454814	0.010733	0.013953	-0.001679	-0.784668	0.184326	-0.013428	0.319783	-0.521384	-0.318632	-0.724134
23595		9.313974	1.172464	2.520302	0.003674	0.005926	-0.004348	-0.784180	0.183105	-0.011475	0.319892	-0.521272	-0.318657	-0.724157
23596		9.351087	1.206440	2.510592	0.013030	0.000260	-0.001642	-0.777588	0.182617	-0.001709	0.320042	-0.521196	-0.318762	-0.724099
23597		9.393878	1.253346	2.469467	0.007188	-0.000756	0.001057	-0.785156	0.185059	-0.007812	0.320100	-0.521235	-0.318744	-0.724053
23598		9.369000	1.262423	2.444412	-0.002379	0.005427	-0.003885	-0.781006	0.193359	-0.004639	0.320131	-0.521193	-0.318684	-0.724096
23599		9.352371	1.210087	2.488880	-0.003067	0.010405	-0.002286	-0.781982	0.188965	-0.005859	0.320211	-0.521156	-0.318554	-0.724144
23600		9.349741	1.208049	2.514828	-0.000848	0.007851	0.002311	-0.779785	0.186523	-0.010254	0.320320	-0.521136	-0.318437	-0.724162
23601		9.357112	1.256346	2.476772	-0.002908	0.004529	0.000950	-0.778809	0.186523	-0.004150	0.320406	-0.521118	-0.318344	-0.724178
23602		9.382572	1.224612	2.505115	0.005947	0.001105	-0.005804	-0.786865	0.191406	-0.013428	0.320433	-0.521109	-0.318360	-0.724165
23603		9.368308	1.225002	2.495801	0.012289	0.001731	-0.005235	-0.773193	0.181152	-0.008301	0.320595	-0.521013	-0.318473	-0.724112
23604		9.345878	1.254339	2.504513	0.003804	0.003611	-0.003157	-0.783203	0.188965	-0.003418	0.320638	-0.520972	-0.318458	-0.724130
23605		9.335027	1.249563	2.532194	0.001161	0.005352	-0.006026	-0.782959	0.187988	-0.005127	0.320655	-0.520948	-0.318415	-0.724158
23606		9.353778	1.216611	2.540890	-0.004839	0.009055	-0.008817	-0.779541	0.184570	-0.001709	0.320629	-0.520892	-0.318329	-0.724248
23607		9.348298	1.196374	2.533574	-0.013301	0.012690	-0.004142	-0.773926	0.184570	-0.007568	0.320561	-0.520876	-0.318104	-0.724388
23608		9.335327	1.212592	2.460831	-0.015366	0.011679	-0.001002	-0.782227	0.188477	-0.008057	0.320541	-0.520859	-0.317862	-0.724516
23609		9.353506	1.219364	2.525434	-0.006159	0.004268	-0.006578	-0.775391	0.188965	-0.013184	0.320525	-0.520847	-0.317777	-0.724569
23610		9.335567	1.174060	2.509098	-0.001507	0.003495	-0.005293	-0.782959	0.190918	-0.008545	0.320583	-0.520803	-0.317744	-0.724589
23611		9.335858	1.230228	2.489715	0.010683	-0.000172	-0.007969	-0.783691	0.182373	-0.010742	0.320662	-0.520758	-0.317840	-0.724544
23612		9.382449	1.263608	2.537189	0.009456	0.008765	-0.011677	-0.783447	0.186279	-0.005859	0.320701	-0.520596	-0.317930	-0.724604
23613		9.399135	1.217738	2.520659	0.003163	0.009337	-0.011551	-0.780273	0.186768	-0.006104	0.320692	-0.520491	-0.317935	-0.724681
23614		9.343404	1.205079	2.444374	-0.023318	0.004968	-0.002626	-0.781250	0.195312	-0.003174	0.320578	-0.520572	-0.317655	-0.724797
23615		9.284347	1.216858	2.520120	-0.010472	-0.012042	-0.001956	-0.783447	0.187988	-0.009277	0.320516	-0.520787	-0.317538	-0.724720
23616		9.364007	1.167824	2.538563	0.017041	-0.025565	-0.008271	-0.777344	0.189697	-0.004395	0.320520	-0.520937	-0.317801	-0.724495
23617		9.393672	1.220190	2.391051	0.028619	-0.014672	-0.013590	-0.781494	0.183594	-0.001221	0.320576	-0.520957	-0.318132	-0.724311
23618		9.383170	1.231126	2.464135	0.027058	-0.001837	-0.009678	-0.778076	0.180420	-0.007812	0.320658	-0.520886	-0.318369	-0.724222
23619		9.340330	1.255308	2.534071	0.024634	0.006460	-0.007163	-0.780273	0.184814	-0.005859	0.320802	-0.520719	-0.318561	-0.724194
23620		9.304322	1.244005	2.477684	0.020308	0.000327	-0.012113	-0.788330	0.188721	-0.012207	0.320860	-0.520624	-0.318760	-0.724149
23621		9.383809	1.222926	2.473602	0.015774	-0.004827	-0.008605	-0.782471	0.188721	-0.009277	0.320962	-0.520568	-0.318950	-0.724061
23622		9.395679	1.225041	2.505728	0.012146	-0.000085	-0.004715	-0.780029	0.188232	-0.006836	0.321075	-0.520522	-0.319043	-0.724002
23623		9.364820	1.250602	2.517080	0.011474	0.004338	-0.005024	-0.773926	0.185791	-0.007080	0.321181	-0.520455	-0.319102	-0.723978
23624		9.324160	1.249976	2.466938	0.005484	0.012786	-0.009176	-0.781738	0.186523	-0.006104	0.321230	-0.520319	-0.319093	-0.724057
23625		9.281583	1.216210	2.527522	0.011261	0.013779	-0.010312	-0.777100	0.176270	-0.008057	0.321307	-0.520149	-0.319144	-0.724123
23626		9.348777	1.191231	2.584477	0.006317	-0.003428	-0.006513	-0.782959	0.185059	-0.010986	0.321269	-0.520149	-0.319200	-0.724115
23627		9.368574	1.299192	2.465237	0.009978	-0.000492	-0.006911	-0.781738	0.183838	-0.007812	0.321333	-0.520096	-0.319297	-0.724082
23628		9.375516	1.258822	2.522265	-0.005009	-0.003484	-0.007853	-0.775635	0.187012	0.002197	0.321252	-0.520145	-0.319260	-0.724099
23629		9.357364	1.208548	2.496844	-0.007828	0.003438	-0.005526	-0.781738	0.182373	-0.011963	0.321156	-0.520221	-0.319101	-0.724157
23630		9.315694	1.242615	2.492935	-0.005348	0.004580	-0.001946	-0.784912	0.187256	-0.008545	0.321179	-0.520194	-0.319012	-0.724206
23631		9.331309	1.225717	2.513285	-0.009547	-0.004483	-0.006050	-0.777832	0.193115	-0.006592	0.321105	-0.520274	-0.318933	-0.724215
23632		9.379648	1.237164	2.469135	-0.005794	-0.006220	-0.008197	-0.780029	0.182129	-0.008301	0.321052	-0.520371	-0.318891	-0.724188
23633		9.384801	1.231670	2.471667	0.002784	-0.005671	-0.008872	-0.783447	0.180420	-0.004395	0.320998	-0.520399	-0.318943	-0.724169
23634		9.366329	1.244548	2.465884	-0.002059	-0.002639	-0.009798	-0.784180	0.184326	-0.015381	0.320883	-0.520432	-0.318931	-0.724201
23635		9.333422	1.235047	2.485731	-0.006736	-0.002480	-0.011432	-0.783447	0.190918	-0.017334	0.320820	-0.520414	-0.318941	-0.724238
23636		9.338277	1.263220	2.504050	-0.009856	-0.001604	-0.011023	-0.781006	0.188721	0.002197	0.320795	-0.520400	-0.318923	-0.724267
23637		9.362670	1.222856	2.515352	-0.015755	0.001474	-0.008481	-0.773193	0.184570	-0.009033	0.320632	-0.520506	-0.318731	-0.724347
23638		9.368054	1.224150	2.436278	-0.019761	-0.000478	-0.005312	-0.781738	0.187012	-0.004395	0.320508	-0.520595	-0.318532	-0.724426
23639		9.353679	1.235504	2.476291	-0.014133	-0.001922	-0.006288	-0.782227	0.184082	-0.007812	0.320392	-0.520692	-0.318385	-0.724472
23640		9.348516	1.189275	2.491188	-0.012070	-0.009821	-0.006373	-0.780762	0.175293	-0.009033	0.320262	-0.520827	-0.318306	-0.724467
23641		9.326489	1.234491	2.453465	0.004574	-0.017844	-0.008294	-0.781250	0.190674	-0.000244	0.320146	-0.520945	-0.318424	-0.724382
23642		9.363551	1.244122	2.465243	0.007281	-0.014770	-0.008327	-0.781494	0.182861	-0.010254	0.320101	-0.521089	-0.318519	-0.724256
23643		9.337965	1.242453	2.512449	0.008413	-0.003490	-0.013453	-0.781006	0.179443	-0.001709	0.320080	-0.521037	-0.318661	-0.724240
23644		9.352299	1.191188	2.538861	-0.025812	-0.021756	-0.003572	-0.775391	0.184570	-0.000732	0.319777	-0.521374	-0.318459	-0.724221
23645		9.320297	1.193177	2.409012	-0.019820	-0.042012	-0.001219	-0.783447	0.190918	0.000732	0.319483	-0.521893	-0.318369	-0.724017
23646		9.374373	1.190786	2.475329	-0.005530	-0.047552	-0.004640	-0.785400	0.188232	-0.003906	0.319261	-0.522394	-0.318458	-0.723714
23647		9.396175	1.195164	2.394473	0.007969	-0.041000	-0.010568	-0.783447	0.188965	-0.000244	0.319121	-0.522720	-0.318712	-0.723428
23648		9.388532	1.250915	2.401245	0.006245	-0.031779	-0.008750	-0.788574	0.188721	0.000977	0.319008	-0.522996	-0.318886	-0.723202
23649		9.366982	1.255547	2.428620	0.005975	-0.026542	-0.010780	-0.783936	0.184082	0.004395	0.318892	-0.523217	-0.319052	-0.723020
23650		9.360388	1.212796	2.370562	0.002498	-0.020532	-0.009290	-0.786621	0.185547	0.003418	0.318747	-0.523417	-0.319136	-0.722902
23651		9.369595	1.231882	2.412086	0.005476	-0.017934	-0.008654	-0.781006	0.185059	-0.006348	0.318655	-0.523577	-0.319241	-0.722780
23652		9.389025	1.235567	2.461688	-0.001853	-0.017351	-0.005036	-0.777832	0.192383	0.000732	0.318611	-0.523721	-0.319296	-0.722671
23653		9.420483	1.213652	2.446206	0.003965	-0.016298	-0.007748	-0.781738	0.186768	-0.001953	0.318582	-0.523872	-0.319382	-0.722537
23654		9.394101	1.209437	2.392455	0.005374	-0.007964	-0.006363	-0.780518	0.182129	0.008057	0.318596	-0.523920	-0.319456	-0.722463
23655		9.329175	1.274990	2.427281	0.008542	-0.001184	-0.003306	-0.781006	0.188477	0.003662	0.318599	-0.523958	-0.319465	-0.722430
23656		9.343255	1.210977	2.406226	-0.002081	-0.005622	-0.005832	-0.781006	0.186768	0.004639	0.318554	-0.524050	-0.319433	-0.722397
23657		9.361163	1.205632	2.439667	0.012541	-0.022180	-0.011243	-0.777832	0.190674	0.000488	0.318475	-0.524215	-0.319630	-0.722225
23658		9.431375	1.220339	2.389310	0.013026	-0.013116	-0.009147	-0.783691	0.179199	0.008789	0.318502	-0.524286	-0.319799	-0.722086
23659		9.393418	1.280037	2.424817	-0.002937	-0.004249	-0.006319	-0.779785	0.182373	0.005371	0.318378	-0.524378	-0.319742	-0.722100
23660		9.350772	1.250962	2.421917	-0.006514	-0.007093	-0.009000	-0.778076	0.182129	0.004395	0.318232	-0.524486	-0.319692	-0.722108
23661		9.351126	1.198637	2.439838	-0.000648	-0.009593	-0.009667	-0.782715	0.188721	-0.005127	0.318115	-0.524585	-0.319713	-0.722078
23662		9.364708	1.218590	2.403763	0.008768	-0.009844	-0.008000	-0.780273	0.186768	0.008301	0.318168	-0.524606	-0.319858	-0.721976
23663		9.396214	1.256820	2.378128	0.012492	-0.011009	-0.008266	-0.778076	0.189209	0.006104	0.318146	-0.524697	-0.319977	-0.721867
23664		9.418264	1.260954	2.372785	0.011906	-0.011806	-0.012213	-0.780273	0.181641	0.011230	0.318108	-0.524773	-0.320130	-0.721761
23665		9.368144	1.234249	2.380105	0.006458	-0.007344	-0.011030	-0.781738	0.185059	0.000977	0.317996	-0.524849	-0.320188	-0.721728
23666		9.352938	1.272242	2.415987	0.007837	-0.006059	-0.012781	-0.785400	0.178711	0.010986	0.317964	-0.524847	-0.320316	-0.721687
23667		9.372238	1.269820	2.427032	0.003204	-0.009466	-0.012333	-0.778320	0.182861	0.007080	0.317801	-0.524940	-0.320370	-0.721667
23668		9.372850	1.231575	2.369632	-0.004264	-0.008287	-0.014038	-0.787109	0.185303	0.007812	0.317623	-0.525034	-0.320374	-0.721675
23669		9.390207	1.247381	2.370018	-0.002215	-0.009158	-0.009442	-0.779297	0.191895	0.000244	0.317505	-0.525146	-0.320374	-0.721646
23670		9.378708	1.241420	2.418328	-0.001089	-0.011001	-0.008270	-0.781738	0.181641	0.001953	0.317475	-0.525249	-0.320409	-0.721569
23671		9.346837	1.245336	2.360934	0.010930	-0.012802	-0.014083	-0.787842	0.185547	0.004150	0.317411	-0.525285	-0.320601	-0.721485
23672		9.362765	1.240264	2.418469	0.016205	-0.009641	-0.015926	-0.787598	0.182617	-0.000244	0.317383	-0.525278	-0.320833	-0.721399
23673		9.398113	1.300804	2.403879	0.004223	-0.001349	-0.008888	-0.778076	0.179199	0.007080	0.317389	-0.525243	-0.320901	-0.721393
23674		9.378332	1.282085	2.416888	-0.021073	-0.001147	-0.006184	-0.785645	0.186279	0.007080	0.317193	-0.525360	-0.320679	-0.721492
23675		9.330413	1.234041	2.311360	-0.009794	-0.019317	-0.007895	-0.776367	0.179688	0.006348	0.317015	-0.525594	-0.320646	-0.721414
23676		9.358204	1.190079	2.408318	-0.002071	-0.031046	-0.003131	-0.780273	0.188965	0.004639	0.316863	-0.525913	-0.320699	-0.721225
23677		9.407776	1.262017	2.344774	0.020718	-0.037668	-0.009931	-0.783447	0.185547	0.008057	0.316828	-0.526172	-0.321039	-0.720900
23678		9.437267	1.289258	2.320211	0.009154	-0.029663	-0.008397	-0.780762	0.179443	0.006104	0.316730	-0.526418	-0.321224	-0.720681
23679		9.390809	1.281179	2.358792	0.009206	-0.013088	-0.009566	-0.783936	0.183594	0.013184	0.316678	-0.526488	-0.321363	-0.720591
23680		9.324340	1.291322	2.311714	0.010952	-0.008787	-0.005473	-0.784424	0.183594	0.010498	0.316667	-0.526572	-0.321441	-0.720499
23681		9.397561	1.274910	2.325809	0.005600	-0.003105	-0.005146	-0.782227	0.183594	0.011963	0.316665	-0.526610	-0.321462	-0.720463
23682		9.434592	1.262754	2.374724	-0.006144	-0.003489	-0.002766	-0.783691	0.186279	0.012207	0.316596	-0.526718	-0.321353	-0.720464
23683		9.410845	1.247309	2.351660	-0.004328	0.000904	-0.001775	-0.784180	0.185303	0.007080	0.316575	-0.526787	-0.321236	-0.720475
23684		9.404374	1.249988	2.341676	-0.003363	0.017298	-0.001771	-0.780762	0.187256	0.013184	0.316654	-0.526673	-0.321089	-0.720588
23685		9.362475	1.247123	2.295092	0.008632	0.023056	-0.001047	-0.785400	0.177979	0.003662	0.316810	-0.526504	-0.320987	-0.720689
23686		9.318222	1.232148	2.379043	-0.001534	0.012209	0.001957	-0.777344	0.187012	0.005127	0.316903	-0.526414	-0.320873	-0.720764
23687		9.398745	1.251341	2.409230	-0.001864	0.011488	0.000588	-0.783447	0.185303	0.006592	0.317003	-0.526358	-0.320746	-0.720818
23688		9.421190	1.275201	2.350534	0.005719	0.005723	-0.000998	-0.795410	0.190674	0.002441	0.317096	-0.526319	-0.320718	-0.720817
23689		9.403783	1.254517	2.309727	-0.002988	0.012780	-0.002478	-0.779053	0.177734	0.003174	0.317191	-0.526223	-0.320620	-0.720890
23690		9.363575	1.247636	2.354644	-0.005446	0.021522	0.003456	-0.777832	0.189453	0.005371	0.317302	-0.526078	-0.320414	-0.721039
23691		9.350169	1.233424	2.401651	-0.008554	0.017634	0.005250	-0.776123	0.181641	0.012939	0.317426	-0.526020	-0.320168	-0.721135
23692		9.388540	1.238435	2.365213	-0.007937	0.016787	0.003513	-0.783447	0.185059	0.010254	0.317452	-0.525992	-0.319903	-0.721261
23693		9.418305	1.247850	2.371974	-0.001115	0.013631	0.000580	-0.782959	0.190918	-0.001465	0.317512	-0.525941	-0.319748	-0.721342
23694		9.398906	1.258157	2.370644	0.000468	0.013801	0.000713	-0.777832	0.181641	0.002441	0.317677	-0.525829	-0.319660	-0.721389
23695		9.359276	1.243359	2.373919	-0.004935	0.013547	0.001709	-0.781738	0.180664	0.004639	0.317753	-0.525755	-0.319497	-0.721482
23696		9.345889	1.217181	2.370224	-0.006548	0.012782	0.001231	-0.789551	0.183105	0.002930	0.317789	-0.525702	-0.319316	-0.721585
23697		9.387364	1.209185	2.351325	-0.005852	0.007830	-0.000349	-0.774902	0.188721	0.008789	0.317814	-0.525674	-0.319183	-0.721653
23698		9.413723	1.214726	2.405057	-0.012094	0.015990	0.003273	-0.789062	0.177979	0.006836	0.317852	-0.525664	-0.318898	-0.721770
23699		9.391632	1.204012	2.371127	-0.020527	0.017840	0.003832	-0.781006	0.184082	0.002930	0.317810	-0.525635	-0.318545	-0.721966
23700		9.362767	1.211262	2.406139	-0.015362	0.014416	0.003868	-0.784180	0.191162	0.000732	0.317837	-0.525611	-0.318264	-0.722094
23701		9.366538	1.197847	2.405035	-0.007803	0.012796	0.000583	-0.781494	0.191406	0.010254	0.317917	-0.525558	-0.318092	-0.722174
23702		9.349704	1.215958	2.387429	0.009749	0.007201	-0.007605	-0.781006	0.192383	0.003662	0.317956	-0.525508	-0.318102	-0.722189
23703		9.392304	1.233513	2.434035	0.008528	0.012009	-0.011170	-0.780029	0.191650	0.002441	0.318018	-0.525372	-0.318137	-0.722245
23704		9.371066	1.211008	2.441086	-0.002687	0.010683	-0.007466	-0.780518	0.185059	0.012695	0.318038	-0.525302	-0.318057	-0.722322
23705		9.353694	1.210892	2.365690	-0.023115	0.004263	-0.000296	-0.784424	0.181396	-0.001953	0.317874	-0.525443	-0.317721	-0.722440
23706		9.324801	1.188936	2.413370	-0.014564	-0.013438	-0.004013	-0.788574	0.184326	0.003662	0.317739	-0.525607	-0.317634	-0.722418
23707		9.395726	1.160588	2.431594	0.014388	-0.027824	-0.007862	-0.781006	0.183350	0.002441	0.317678	-0.525802	-0.317864	-0.722202
23708		9.426023	1.231569	2.316898	0.021553	-0.019008	-0.009544	-0.781250	0.192627	0.011475	0.317692	-0.525876	-0.318140	-0.722020
23709		9.395221	1.233043	2.351136	0.019974	-0.003723	-0.013059	-0.783447	0.184082	0.008545	0.317706	-0.525868	-0.318317	-0.721942
23710		9.332047	1.227465	2.416948	0.018658	0.001535	-0.011630	-0.786621	0.194336	0.005371	0.317732	-0.525791	-0.318472	-0.721919
23711		9.352530	1.248109	2.370935	0.014528	-0.004024	-0.010514	-0.785645	0.192383	0.009277	0.317772	-0.525785	-0.318615	-0.721842
23712		9.424736	1.228544	2.377487	0.007056	-0.002861	-0.012221	-0.787598	0.189209	0.001221	0.317722	-0.525809	-0.318680	-0.721817
23713		9.420587	1.189306	2.401030	0.007890	-0.003133	-0.007941	-0.781006	0.191406	0.002686	0.317754	-0.525800	-0.318767	-0.721772
23714		9.390685	1.211857	2.380256	0.008002	0.004606	-0.007577	-0.777588	0.182129	0.015869	0.317820	-0.525738	-0.318811	-0.721768
23715		9.383110	1.245215	2.376541	-0.001686	0.016541	-0.010062	-0.777832	0.191895	0.002197	0.317743	-0.525650	-0.318677	-0.721926
23716		9.331130	1.212634	2.381431	0.005742	0.013643	-0.010935	-0.782715	0.188965	0.003906	0.317802	-0.525505	-0.318684	-0.722002
23717		9.358130	1.166899	2.452955	-0.005218	-0.005371	-0.005739	-0.784912	0.195557	0.001953	0.317739	-0.525597	-0.318629	-0.721987
23718		9.384802	1.288703	2.346893	0.003426	-0.004664	-0.009554	-0.776855	0.188232	0.008545	0.317731	-0.525635	-0.318679	-0.721941
23719		9.441751	1.210674	2.388293	-0.001399	-0.001622	-0.012009	-0.788818	0.182373	0.002197	0.317627	-0.525678	-0.318662	-0.721963
23720		9.378303	1.177296	2.357666	-0.006343	0.008864	-0.004811	-0.781982	0.186035	0.001465	0.317614	-0.525622	-0.318553	-0.722058
23721		9.321729	1.221527	2.395637	-0.005593	0.012698	-0.000690	-0.779785	0.185303	0.001953	0.317674	-0.525554	-0.318404	-0.722147
23722		9.357478	1.229531	2.413355	-0.007818	0.005185	-0.004442	-0.784424	0.187744	0.002686	0.317649	-0.525551	-0.318286	-0.722212
23723		9.408392	1.211432	2.432946	-0.002855	0.002889	-0.006286	-0.784424	0.182861	-0.000488	0.317632	-0.525547	-0.318230	-0.722246
23724		9.415836	1.237975	2.396552	0.007786	0.007431	-0.005319	-0.788330	0.186035	0.000488	0.317715	-0.525439	-0.318264	-0.722273
23725		9.372150	1.263096	2.376443	0.000826	0.005896	-0.008255	-0.781250	0.182617	0.001953	0.317721	-0.525370	-0.318255	-0.722325
23726		9.353598	1.221509	2.392606	-0.002792	0.001843	-0.011621	-0.787109	0.184814	0.003418	0.317641	-0.525345	-0.318242	-0.722384
23727		9.387590	1.191437	2.408515	-0.002244	-0.004453	-0.009246	-0.782227	0.185059	0.003174	0.317557	-0.525392	-0.318239	-0.722388
23728		9.376525	1.202603	2.391942	-0.009393	-0.000888	-0.005456	-0.786865	0.179443	0.005127	0.317479	-0.525452	-0.318131	-0.722426
23729		9.362601	1.226492	2.357252	-0.020348	0.002033	-0.002437	-0.787842	0.182373	-0.000488	0.317339	-0.525537	-0.317888	-0.722533
23730		9.360670	1.225039	2.381211	-0.011091	-0.004590	-0.009210	-0.783447	0.185059	-0.001953	0.317213	-0.525594	-0.317826	-0.722574
23731		9.371015	1.186017	2.413408	-0.005151	-0.010071	-0.005932	-0.783691	0.180664	0.001953	0.317153	-0.525691	-0.317823	-0.722531
