// Start Time: Unknown
// Update Rate: 40.0Hz
// Filter Profile: human (46.1)
// Firmware Version: 4.3.4
PacketCounter	SampleTimeFine	Acc_X	Acc_Y	Acc_Z	Gyr_X	Gyr_Y	Gyr_Z	Mag_X	Mag_Y	Mag_Z	Quat_q0	Quat_q1	Quat_q2	Quat_q3
23208		9.623216	1.026294	2.401994	0.002361	0.001585	0.002890	-0.954102	0.643311	-0.120605	0.482081	-0.444479	-0.426618	-0.622924
23209		9.637064	1.026350	2.354233	0.005684	-0.000106	0.002449	-0.956299	0.645508	-0.118652	0.482131	-0.444458	-0.426649	-0.622878
23210		9.629627	1.007318	2.378141	0.003459	0.003639	0.004329	-0.956055	0.638916	-0.120605	0.482202	-0.444435	-0.426630	-0.622853
23211		9.616445	0.996530	2.375046	0.004490	0.003651	0.004062	-0.953857	0.639160	-0.116211	0.482278	-0.444402	-0.426621	-0.622824
23212		9.631327	1.040201	2.358400	0.003876	0.001825	0.002998	-0.956055	0.641113	-0.118408	0.482333	-0.444384	-0.426623	-0.622792
23213		9.627452	0.995140	2.363395	-0.000057	0.002934	0.003735	-0.956055	0.641113	-0.111816	0.482375	-0.444387	-0.426588	-0.622782
23214		9.634023	0.991008	2.399612	0.002781	0.001015	0.002920	-0.956299	0.645508	-0.116455	0.482416	-0.444389	-0.426592	-0.622747
23215		9.635893	1.024896	2.378792	0.003033	0.001723	0.001577	-0.949951	0.649658	-0.114258	0.482454	-0.444379	-0.426598	-0.622720
23216		9.630920	0.999453	2.337946	0.004384	0.004486	0.001672	-0.951660	0.639160	-0.114014	0.482513	-0.444343	-0.426600	-0.622698
23217		9.646441	1.016904	2.338347	-0.000070	0.009490	0.002710	-0.956299	0.643311	-0.112061	0.482579	-0.444309	-0.426538	-0.622715
23218		9.627343	0.997992	2.376982	-0.000428	0.009616	0.001663	-0.951660	0.636963	-0.115967	0.482629	-0.444281	-0.426484	-0.622732
23219		9.646481	1.021042	2.350842	0.002092	0.006189	0.001846	-0.951904	0.643311	-0.116211	0.482679	-0.444264	-0.426472	-0.622714
23220		9.635959	0.994096	2.380871	0.000680	0.005117	0.004125	-0.956055	0.641113	-0.120605	0.482730	-0.444287	-0.426444	-0.622677
23221		9.629195	0.980080	2.414077	0.001607	0.005962	0.001471	-0.951904	0.641113	-0.118408	0.482768	-0.444284	-0.426437	-0.622654
23222		9.649477	1.032334	2.357905	0.002805	0.004694	0.002578	-0.953857	0.636963	-0.118164	0.482825	-0.444289	-0.426430	-0.622612
23223		9.630568	1.006120	2.365335	-0.000646	0.004787	0.002328	-0.953857	0.641113	-0.120605	0.482849	-0.444311	-0.426414	-0.622588
23224		9.621991	1.013363	2.374194	-0.003613	0.005109	0.002453	-0.953857	0.641113	-0.116211	0.482863	-0.444353	-0.426367	-0.622579
23225		9.622491	0.978852	2.361748	-0.006262	0.006938	0.001579	-0.954102	0.643311	-0.116211	0.482858	-0.444405	-0.426295	-0.622595
23226		9.611121	1.009903	2.368231	0.000932	0.004581	0.001423	-0.956055	0.638916	-0.114014	0.482883	-0.444443	-0.426286	-0.622555
23227		9.638828	0.976957	2.408674	0.000675	0.001382	0.000047	-0.954102	0.645508	-0.118652	0.482859	-0.444499	-0.426322	-0.622508
23228		9.653846	1.021195	2.391531	0.006227	-0.000324	0.001812	-0.954102	0.643311	-0.118408	0.482902	-0.444542	-0.426365	-0.622415
23229		9.645458	1.045895	2.331623	0.002739	0.002649	0.000875	-0.953857	0.641113	-0.116211	0.482929	-0.444566	-0.426379	-0.622368
23230		9.613449	1.010108	2.335046	0.000218	0.006078	0.000688	-0.951904	0.645508	-0.116455	0.482941	-0.444579	-0.426376	-0.622351
23231		9.610393	1.009378	2.371410	0.000931	0.004581	0.001421	-0.956055	0.641113	-0.120605	0.482969	-0.444618	-0.426362	-0.622311
23232		9.632563	1.016065	2.377005	0.002192	0.004113	0.002873	-0.951660	0.639160	-0.118408	0.482995	-0.444627	-0.426382	-0.622270
23233		9.650982	1.009678	2.379394	0.000257	0.004445	0.002732	-0.954102	0.641113	-0.111816	0.483026	-0.444629	-0.426390	-0.622240
23234		9.648008	1.025569	2.347897	0.003961	0.005060	0.001640	-0.956055	0.641113	-0.118408	0.483029	-0.444664	-0.426420	-0.622192
23235		9.641154	1.004551	2.350999	0.005897	0.005974	0.003139	-0.954102	0.643311	-0.118408	0.483072	-0.444645	-0.426461	-0.622144
23236		9.618511	0.996746	2.347802	-0.000164	0.006264	0.004056	-0.951904	0.641113	-0.118408	0.483108	-0.444674	-0.426429	-0.622117
23237		9.627561	1.000225	2.380032	-0.003067	0.006141	0.003165	-0.956299	0.645508	-0.114258	0.483132	-0.444696	-0.426391	-0.622110
23238		9.648701	1.008974	2.407833	0.002090	0.006194	0.001841	-0.956299	0.643311	-0.116211	0.483122	-0.444762	-0.426373	-0.622082
23239		9.640940	1.014259	2.395259	0.000638	0.006755	0.002073	-0.954102	0.645508	-0.114258	0.483115	-0.444794	-0.426353	-0.622077
23240		9.631330	1.009485	2.365901	0.006863	0.005185	0.002531	-0.954346	0.649658	-0.120850	0.483147	-0.444832	-0.426362	-0.622020
23241		9.630032	0.972730	2.366307	0.001350	0.004012	0.001450	-0.958252	0.641113	-0.114014	0.483185	-0.444874	-0.426306	-0.621999
23242		9.627151	0.996219	2.364507	0.001834	0.002994	0.000468	-0.954102	0.643311	-0.112061	0.483108	-0.444927	-0.426354	-0.621988
23243		9.637252	1.022502	2.336923	0.000346	0.006435	0.000011	-0.947510	0.643311	-0.120605	0.483064	-0.444990	-0.426337	-0.621989
23244		9.627476	1.001207	2.375349	0.005538	0.006102	0.002091	-0.956299	0.645508	-0.114258	0.483205	-0.444915	-0.426336	-0.621933
23245		9.637453	1.003150	2.385521	0.003348	0.004480	0.001934	-0.951904	0.643311	-0.118408	0.483172	-0.444994	-0.426331	-0.621906
23246		9.642976	1.042804	2.338844	0.002764	0.006332	0.000526	-0.949707	0.645508	-0.118652	0.483217	-0.444966	-0.426328	-0.621893
23247		9.613534	0.990650	2.375196	-0.000039	0.005375	0.002023	-0.958252	0.643311	-0.118408	0.483279	-0.444987	-0.426273	-0.621868
23248		9.628194	1.003096	2.367090	0.000217	0.006083	0.000680	-0.954102	0.643311	-0.118408	0.483232	-0.444993	-0.426275	-0.621899
23249		9.624303	1.021325	2.357396	-0.000714	0.003993	0.001976	-0.958008	0.636963	-0.118164	0.483225	-0.445018	-0.426261	-0.621895
23250		9.626704	0.997265	2.361368	0.001247	0.007341	0.001771	-0.958252	0.638916	-0.114014	0.483180	-0.444943	-0.426332	-0.621935
23251		9.652286	0.992859	2.408579	-0.001718	0.006417	0.000535	-0.952148	0.647705	-0.116455	0.483053	-0.444976	-0.426361	-0.621991
23252		9.639272	1.038370	2.360389	0.004863	0.003473	0.000688	-0.949707	0.643311	-0.118408	0.483075	-0.445045	-0.426327	-0.621948
23253		9.634318	1.020283	2.349956	0.000572	0.005959	0.001724	-0.954102	0.645508	-0.118652	0.483139	-0.445036	-0.426294	-0.621927
23254		9.630030	0.982776	2.385981	-0.001911	0.006511	0.002218	-0.958252	0.641113	-0.116211	0.483143	-0.445073	-0.426224	-0.621945
23255		9.618729	1.006471	2.362376	-0.000523	0.005149	0.001645	-0.956299	0.645508	-0.118652	0.483050	-0.445101	-0.426243	-0.621985
23256		9.613863	1.026964	2.374422	0.002506	0.005627	0.001867	-0.954102	0.643311	-0.109863	0.483043	-0.445120	-0.426219	-0.621993
23257		9.628294	0.983734	2.411263	0.001931	0.002163	0.002855	-0.954102	0.643311	-0.116211	0.482925	-0.445288	-0.426217	-0.621965
23258		9.640568	1.019925	2.399381	0.000548	-0.000219	-0.000638	-0.951904	0.645508	-0.116455	0.482852	-0.445352	-0.426245	-0.621957
23259		9.648317	1.030919	2.345441	0.003904	-0.002300	0.002335	-0.958252	0.641113	-0.116211	0.482845	-0.445448	-0.426255	-0.621887
23260		9.624270	1.045080	2.316442	0.002381	0.002777	-0.000173	-0.951904	0.643311	-0.114014	0.482748	-0.445448	-0.426327	-0.621914
23261		9.625569	0.992209	2.349454	0.002989	0.005856	0.002241	-0.954102	0.645508	-0.118652	0.482741	-0.445496	-0.426312	-0.621895
23262		9.637374	1.004292	2.376306	0.000573	0.004713	0.000366	-0.951904	0.641113	-0.118408	0.482739	-0.445510	-0.426279	-0.621908
23263		9.630765	1.014647	2.371285	0.000899	0.002154	0.003118	-0.949463	0.634766	-0.111572	0.482773	-0.445494	-0.426307	-0.621874
23264		9.645682	1.026694	2.362424	0.002476	0.003194	0.003570	-0.953857	0.639160	-0.118408	0.482737	-0.445499	-0.426409	-0.621829
23265		9.635964	0.997933	2.370509	0.006823	0.006823	0.000481	-0.949707	0.641113	-0.114014	0.482776	-0.445371	-0.426503	-0.621825
23266		9.622606	0.987963	2.367737	0.003765	0.003912	0.001963	-0.953857	0.638916	-0.114014	0.482774	-0.445410	-0.426521	-0.621787
23267		9.619719	1.018734	2.395784	0.004604	0.002767	0.002030	-0.956299	0.647461	-0.116455	0.482707	-0.445428	-0.426597	-0.621774
23268		9.628941	1.008155	2.367244	0.002733	0.003902	0.002226	-0.951660	0.636963	-0.111572	0.482668	-0.445516	-0.426541	-0.621779
23269		9.641834	1.017955	2.371982	0.003830	0.003465	0.000950	-0.956055	0.638916	-0.116211	0.482581	-0.445540	-0.426628	-0.621770
23270		9.632362	1.020673	2.372047	0.002733	0.003903	0.002226	-0.958252	0.641113	-0.116211	0.482531	-0.445511	-0.426695	-0.621784
23271		9.611693	1.016193	2.354989	0.003602	0.005192	0.000585	-0.954102	0.643311	-0.122803	0.482453	-0.445491	-0.426742	-0.621826
23272		9.624535	1.025968	2.359949	0.001701	0.003893	0.002488	-0.956055	0.641113	-0.118408	0.482558	-0.445398	-0.426751	-0.621806
23273		9.621432	1.017790	2.366217	-0.001298	0.005849	0.000558	-0.958496	0.645508	-0.120850	0.482523	-0.445362	-0.426754	-0.621856
23274		9.622784	1.003352	2.421595	-0.000555	0.002718	0.003345	-0.947510	0.643311	-0.118408	0.482517	-0.445375	-0.426719	-0.621875
23275		9.645434	1.026568	2.359169	0.004603	0.002768	0.002029	-0.958496	0.645508	-0.112061	0.482633	-0.445359	-0.426720	-0.621796
23276		9.647233	1.028866	2.346530	0.001151	0.004113	0.003125	-0.956055	0.643311	-0.120605	0.482482	-0.445521	-0.426661	-0.621837
23277		9.626302	1.000014	2.367228	0.007337	0.005423	0.002899	-0.954346	0.647461	-0.107666	0.482555	-0.445432	-0.426699	-0.621819
23278		9.628888	1.007336	2.363453	0.003886	0.006768	0.003995	-0.949707	0.639160	-0.114014	0.482420	-0.445670	-0.426587	-0.621831
23279		9.618357	1.004393	2.356047	-0.000465	0.007206	0.003329	-0.956055	0.641113	-0.116211	0.482431	-0.445676	-0.426577	-0.621824
23280		9.637533	1.002824	2.367517	-0.000046	0.006634	0.003362	-0.956055	0.638916	-0.118408	0.482395	-0.445674	-0.426569	-0.621859
23281		9.628741	1.017907	2.406405	0.004633	0.005203	0.000320	-0.949707	0.645508	-0.116455	0.482395	-0.445564	-0.426663	-0.621873
23282		9.623206	1.018876	2.349933	0.007755	0.004852	0.002932	-0.951904	0.643311	-0.114014	0.482477	-0.445586	-0.426641	-0.621809
23283		9.632236	1.015495	2.351962	0.000985	0.006645	0.003097	-0.951904	0.643311	-0.116211	0.482455	-0.445653	-0.426586	-0.621816
23284		9.637300	1.006248	2.381174	-0.003012	0.006960	0.003476	-0.953857	0.636963	-0.115967	0.482455	-0.445699	-0.426507	-0.621837
23285		9.628714	1.005866	2.360510	-0.004397	0.007075	0.002692	-0.954102	0.645508	-0.118652	0.482413	-0.445662	-0.426520	-0.621887
23286		9.614230	0.997365	2.380085	-0.005782	0.007190	0.001907	-0.956055	0.638916	-0.116211	0.482405	-0.445697	-0.426410	-0.621944
23287		9.627185	1.038032	2.378047	-0.001432	0.006751	0.002575	-0.954102	0.643311	-0.118408	0.482352	-0.445669	-0.426424	-0.621995
23288		9.640494	0.989658	2.406820	0.004890	0.001843	0.002735	-0.953857	0.641113	-0.118408	0.482377	-0.445659	-0.426455	-0.621962
23289		9.653516	0.999289	2.411124	0.001992	0.001719	0.001839	-0.956055	0.641113	-0.116211	0.482380	-0.445634	-0.426499	-0.621948
23290		9.645280	0.999822	2.388705	0.003385	-0.000898	-0.000081	-0.954102	0.643311	-0.109863	0.482294	-0.445654	-0.426574	-0.621948
23291		9.624755	1.038693	2.286703	0.006538	0.001184	0.000824	-0.958252	0.641113	-0.116211	0.482159	-0.445792	-0.426591	-0.621942
23292		9.614696	0.986189	2.331988	0.003891	0.004269	0.001287	-0.956055	0.638916	-0.111816	0.482098	-0.445772	-0.426638	-0.621972
23293		9.617116	1.008536	2.387627	0.003019	0.002981	0.002927	-0.954102	0.645508	-0.114258	0.481989	-0.445830	-0.426682	-0.621985
23294		9.659885	1.012108	2.381212	0.001765	0.003448	0.001472	-0.958252	0.641113	-0.114014	0.481930	-0.445924	-0.426630	-0.621998
23295		9.650387	1.014884	2.381355	0.002989	0.004613	0.000877	-0.956299	0.643311	-0.116211	0.481834	-0.445940	-0.426660	-0.622040
23296		9.617639	1.005338	2.368478	-0.003327	0.002952	0.001771	-0.960449	0.643311	-0.120605	0.481761	-0.446002	-0.426617	-0.622083
23297		9.626792	1.002177	2.369897	0.003283	0.002436	0.000233	-0.951904	0.641113	-0.120605	0.481738	-0.445941	-0.426663	-0.622113
23298		9.649121	1.001675	2.345493	0.001889	0.005054	0.002150	-0.954102	0.643311	-0.114014	0.481844	-0.445844	-0.426686	-0.622084
23299		9.629383	1.041026	2.359425	0.002467	0.008520	0.001154	-0.956055	0.643311	-0.120605	0.481818	-0.445865	-0.426642	-0.622119
23300		9.635876	1.011118	2.413017	0.002983	0.005866	0.002227	-0.953857	0.641113	-0.118408	0.481875	-0.445794	-0.426642	-0.622126
23301		9.623635	0.998588	2.388427	0.004309	0.003698	0.001321	-0.954102	0.643311	-0.118408	0.481911	-0.445738	-0.426688	-0.622107
23302		9.647931	1.000892	2.350716	0.002988	0.004615	0.000876	-0.956055	0.641113	-0.120605	0.481934	-0.445711	-0.426689	-0.622107
23303		9.641287	1.011657	2.345817	0.006435	0.004520	0.001136	-0.954102	0.645508	-0.114258	0.481990	-0.445604	-0.426757	-0.622094
23304		9.637131	1.006200	2.373373	0.003215	0.002886	0.001243	-0.951904	0.645508	-0.116455	0.481938	-0.445693	-0.426724	-0.622093
23305		9.621398	0.970138	2.421199	0.014756	0.004146	-0.001973	-0.954102	0.645508	-0.118652	0.481993	-0.445646	-0.426796	-0.622035
23306		9.630252	1.018349	2.368825	0.009880	0.004427	0.001393	-0.951660	0.639160	-0.116211	0.482053	-0.445613	-0.426819	-0.621997
23307		9.636810	1.031991	2.338004	0.011297	0.006749	0.000463	-0.956055	0.641113	-0.111816	0.482121	-0.445509	-0.426915	-0.621953
23308		9.624184	0.995908	2.350782	0.005792	0.000253	0.001792	-0.951660	0.636963	-0.120361	0.482011	-0.445599	-0.426964	-0.621939
23309		9.611975	0.990839	2.355329	0.003083	0.002536	0.001912	-0.949707	0.641113	-0.116211	0.482089	-0.445493	-0.427055	-0.621892
23310		9.632709	1.018786	2.336263	-0.000363	0.002630	0.001652	-0.949707	0.643311	-0.120605	0.482097	-0.445527	-0.427046	-0.621869
23311		9.653860	1.020557	2.334091	0.002595	0.008878	0.000470	-0.958496	0.645264	-0.109863	0.482215	-0.445438	-0.427022	-0.621857
23312		9.598046	1.019237	2.377516	0.003077	0.009109	0.000844	-0.958252	0.643311	-0.112061	0.482077	-0.445550	-0.426949	-0.621934
23313		9.621644	0.997449	2.378681	-0.000143	0.007474	0.000952	-0.954102	0.643311	-0.118408	0.481949	-0.445636	-0.426890	-0.622012
23314		9.656276	1.033286	2.342993	0.001377	0.006460	-0.000284	-0.951904	0.643311	-0.116211	0.481955	-0.445611	-0.426870	-0.622039
23315		9.622814	0.999920	2.368760	-0.009450	0.007767	-0.000094	-0.949707	0.643311	-0.118408	0.481900	-0.445675	-0.426747	-0.622120
23316		9.609255	0.989371	2.367013	-0.007394	0.009041	0.000730	-0.956299	0.643311	-0.116211	0.481927	-0.445683	-0.426634	-0.622170
23317		9.599416	0.999399	2.397629	0.001217	0.002420	0.000753	-0.953857	0.638916	-0.111816	0.481864	-0.445729	-0.426630	-0.622189
23318		9.631500	1.027302	2.365823	-0.000489	0.001024	0.000974	-0.951660	0.636963	-0.122559	0.481758	-0.445809	-0.426656	-0.622197
23319		9.659816	0.991958	2.384964	-0.001554	0.003900	0.000532	-0.949463	0.634766	-0.115967	0.481842	-0.445679	-0.426717	-0.622183
23320		9.641295	1.029054	2.376617	-0.003356	0.004587	-0.000290	-0.956055	0.641113	-0.114014	0.481831	-0.445635	-0.426755	-0.622196
23321		9.638398	1.013587	2.352819	0.001341	0.004027	0.001430	-0.953857	0.641113	-0.114014	0.481759	-0.445680	-0.426749	-0.622224
23322		9.603836	1.033131	2.345820	0.000606	0.007158	-0.001367	-0.956055	0.638916	-0.116211	0.481702	-0.445687	-0.426733	-0.622274
23323		9.618810	0.987816	2.362066	-0.006880	0.006388	0.001803	-0.953857	0.639160	-0.120605	0.481635	-0.445708	-0.426679	-0.622348
23324		9.637096	1.020336	2.387368	-0.003295	0.005392	0.000046	-0.958252	0.643311	-0.118408	0.481661	-0.445636	-0.426684	-0.622376
23325		9.632349	1.033676	2.369684	-0.000496	0.007601	-0.000097	-0.951660	0.639160	-0.118408	0.481635	-0.445611	-0.426646	-0.622440
23326		9.638327	1.022616	2.377370	-0.004336	0.006637	0.001654	-0.951904	0.641113	-0.114014	0.481661	-0.445581	-0.426611	-0.622465
23327		9.611884	1.001851	2.370991	-0.004599	0.005932	0.002997	-0.954102	0.643311	-0.114014	0.481625	-0.445653	-0.426532	-0.622497
23328		9.609005	1.024699	2.369760	-0.001984	0.005730	0.001841	-0.958008	0.636719	-0.111816	0.481575	-0.445723	-0.426462	-0.622532
23329		9.631735	1.004770	2.391676	0.002878	0.002634	0.003597	-0.953857	0.641113	-0.116211	0.481473	-0.445770	-0.426499	-0.622553
23330		9.646744	1.017064	2.382811	0.003631	0.002316	0.001280	-0.951904	0.643311	-0.116211	0.481468	-0.445773	-0.426528	-0.622534
23331		9.651603	1.027698	2.364607	0.007566	0.001196	0.000572	-0.958252	0.643311	-0.118408	0.481496	-0.445775	-0.426575	-0.622479
23332		9.622722	1.031299	2.354569	-0.000051	0.005396	0.001990	-0.953857	0.641113	-0.116211	0.481482	-0.445771	-0.426543	-0.622514
23333		9.615780	1.010228	2.357655	0.005328	0.004967	0.002407	-0.952148	0.649658	-0.120850	0.481510	-0.445749	-0.426564	-0.622495
23334		9.648867	1.024078	2.381237	0.004480	0.007370	0.003680	-0.958008	0.636963	-0.113770	0.481640	-0.445732	-0.426489	-0.622457
23335		9.631985	1.032140	2.367890	0.004130	0.007493	0.002632	-0.958252	0.641113	-0.116211	0.481595	-0.445701	-0.426519	-0.622494
23336		9.638626	0.994416	2.391287	-0.000927	0.004110	0.003629	-0.954102	0.641113	-0.111816	0.481546	-0.445736	-0.426492	-0.622525
23337		9.643631	1.035525	2.366491	-0.000287	0.008384	0.002963	-0.951904	0.641113	-0.116211	0.481499	-0.445788	-0.426428	-0.622568
23338		9.617915	1.020383	2.368734	0.004525	0.008552	0.000615	-0.953857	0.641113	-0.116211	0.481543	-0.445732	-0.426431	-0.622572
23339		9.630127	0.999105	2.382581	0.009544	0.009501	0.001333	-0.953857	0.641113	-0.120605	0.481606	-0.445647	-0.426463	-0.622563
23340		9.622464	1.004587	2.370198	0.003996	0.007143	0.003301	-0.956055	0.641113	-0.114014	0.481696	-0.445566	-0.426471	-0.622545
23341		9.622685	1.016678	2.409944	0.003454	0.006109	0.002589	-0.951904	0.641113	-0.116211	0.481659	-0.445589	-0.426460	-0.622565
23342		9.620986	0.998617	2.364773	0.002973	0.005879	0.002213	-0.956299	0.643311	-0.118408	0.481685	-0.445579	-0.426454	-0.622555
23343		9.625950	1.040081	2.340161	-0.000157	0.008741	0.002284	-0.951660	0.639160	-0.118408	0.481697	-0.445562	-0.426397	-0.622598
23344		9.643336	1.009625	2.381861	-0.001129	0.009537	0.002879	-0.951660	0.639160	-0.114014	0.481753	-0.445506	-0.426362	-0.622618
23345		9.628972	0.993964	2.371584	0.004607	0.007729	0.003001	-0.953857	0.636963	-0.113770	0.481771	-0.445493	-0.426361	-0.622614
23346		9.611798	1.009641	2.388005	-0.001915	0.005285	0.000819	-0.953857	0.641113	-0.116211	0.481697	-0.445515	-0.426356	-0.622660
23347		9.653020	1.034637	2.358389	0.004523	0.008557	0.000609	-0.953857	0.639160	-0.118408	0.481711	-0.445472	-0.426355	-0.622680
23348		9.629477	1.003597	2.393284	0.004318	0.008657	0.002289	-0.953857	0.636963	-0.113770	0.481766	-0.445394	-0.426369	-0.622684
23349		9.644269	0.997386	2.431900	0.004461	0.007753	0.000271	-0.951904	0.643311	-0.116211	0.481732	-0.445360	-0.426397	-0.622715
23350		9.628251	1.030050	2.380088	0.005692	0.002337	0.000760	-0.958252	0.638916	-0.114014	0.481735	-0.445382	-0.426418	-0.622683
23351		9.615898	1.025020	2.384994	0.001684	0.003912	0.002469	-0.958008	0.636963	-0.115967	0.481650	-0.445423	-0.426420	-0.622718
23352		9.612545	0.985371	2.398307	0.002627	-0.000579	0.002248	-0.954102	0.643311	-0.114014	0.481576	-0.445447	-0.426485	-0.622714
23353		9.640292	1.033884	2.376964	0.002942	0.002189	0.002584	-0.953857	0.636963	-0.120361	0.481530	-0.445526	-0.426464	-0.622707
23354		9.643592	1.033742	2.342138	0.004200	0.000466	0.002699	-0.949463	0.639160	-0.118408	0.481579	-0.445467	-0.426554	-0.622650
23355		9.621699	0.999602	2.353846	0.000314	0.003652	0.005080	-0.960449	0.641113	-0.122803	0.481650	-0.445462	-0.426549	-0.622601
23356		9.619640	0.977192	2.413972	-0.001596	0.001471	0.002237	-0.956055	0.638916	-0.120605	0.481640	-0.445438	-0.426566	-0.622615
23357		9.653289	1.040958	2.382527	-0.000410	0.000201	0.003361	-0.960693	0.645264	-0.114258	0.481645	-0.445433	-0.426599	-0.622593
23358		9.641866	1.001491	2.373515	0.001612	0.004365	0.003475	-0.958252	0.638916	-0.118408	0.481568	-0.445516	-0.426543	-0.622631
23359		9.627013	1.019489	2.375712	0.002256	0.002059	0.003889	-0.956055	0.639160	-0.122559	0.481555	-0.445512	-0.426573	-0.622623
23360		9.624875	1.015982	2.389653	-0.000575	0.002738	0.003321	-0.952148	0.647705	-0.120850	0.481601	-0.445462	-0.426597	-0.622607
23361		9.632446	1.001982	2.374287	0.002482	0.000327	0.004264	-0.949707	0.641357	-0.120605	0.481678	-0.445498	-0.426580	-0.622533
23362		9.627392	1.009706	2.346747	0.000408	0.000684	0.001382	-0.960449	0.643311	-0.118408	0.481730	-0.445485	-0.426608	-0.622484
23363		9.626104	1.011611	2.368848	0.002450	0.003217	0.003552	-0.951660	0.636963	-0.113770	0.481709	-0.445500	-0.426603	-0.622492
23364		9.630640	0.990280	2.358757	0.004046	0.001745	0.001316	-0.956299	0.643311	-0.114014	0.481674	-0.445515	-0.426652	-0.622475
23365		9.651150	1.025835	2.369860	0.000918	0.004609	0.001380	-0.953857	0.641113	-0.116211	0.481617	-0.445568	-0.426619	-0.622504
23366		9.639898	1.018215	2.353716	0.001039	0.006220	0.002051	-0.960449	0.641113	-0.118408	0.481618	-0.445566	-0.426598	-0.622519
23367		9.615117	1.007801	2.363919	-0.001457	0.008037	0.003873	-0.954102	0.645508	-0.118652	0.481602	-0.445554	-0.426546	-0.622574
23368		9.625878	0.995567	2.428726	0.002041	0.002534	0.002169	-0.956055	0.641113	-0.116211	0.481623	-0.445577	-0.426534	-0.622550
23369		9.632135	1.003213	2.388900	0.001786	0.000571	0.002170	-0.951660	0.639160	-0.118408	0.481581	-0.445617	-0.426553	-0.622541
23370		9.635020	1.029528	2.337961	0.003626	0.002319	0.001277	-0.956055	0.638916	-0.111816	0.481613	-0.445584	-0.426603	-0.622506
23371		9.655506	1.007848	2.373011	0.003200	0.003266	-0.002161	-0.949707	0.639160	-0.114014	0.481505	-0.445609	-0.426637	-0.622549
23372		9.640517	1.027009	2.375298	0.006905	0.004761	0.001506	-0.958252	0.641113	-0.118408	0.481534	-0.445589	-0.426677	-0.622513
23373		9.617169	1.014847	2.362783	0.000121	0.001611	0.000670	-0.956299	0.643311	-0.114014	0.481489	-0.445598	-0.426693	-0.622530
23374		9.626337	1.030605	2.317940	0.004658	0.002328	0.001017	-0.958252	0.643311	-0.116211	0.481443	-0.445641	-0.426705	-0.622527
23375		9.610116	0.993908	2.366048	-0.000954	0.005752	0.001558	-0.953857	0.641113	-0.118408	0.481399	-0.445669	-0.426659	-0.622572
23376		9.616705	0.995578	2.411003	0.002472	0.000701	0.000865	-0.952148	0.647705	-0.114258	0.481401	-0.445667	-0.426698	-0.622545
23377		9.634831	1.034877	2.350398	0.003996	-0.000319	-0.000362	-0.951660	0.639160	-0.116211	0.481367	-0.445748	-0.426698	-0.622513
23378		9.627262	1.009112	2.343918	0.003237	0.000005	0.001950	-0.953857	0.641113	-0.114014	0.481370	-0.445761	-0.426747	-0.622468
23379		9.623048	1.003594	2.370763	0.006455	0.001642	0.001844	-0.951904	0.641113	-0.116211	0.481360	-0.445781	-0.426790	-0.622433
23380		9.639423	1.013888	2.339966	0.005150	0.001301	0.000048	-0.954102	0.645508	-0.112061	0.481366	-0.445775	-0.426843	-0.622396
23381		9.609788	1.012456	2.321367	0.000303	0.004029	0.001674	-0.953857	0.639160	-0.118408	0.481313	-0.445862	-0.426787	-0.622413
23382		9.623888	1.000700	2.351016	-0.002600	0.005162	0.002112	-0.951904	0.643311	-0.111816	0.481324	-0.445846	-0.426769	-0.622429
23383		9.640494	1.004359	2.405544	0.000437	0.004381	0.001001	-0.953857	0.641113	-0.116211	0.481282	-0.445910	-0.426731	-0.622441
23384		9.642815	0.999401	2.363122	0.005331	0.003718	0.001053	-0.956299	0.643311	-0.114014	0.481298	-0.445888	-0.426767	-0.622420
23385		9.618630	1.040015	2.318328	0.005465	0.004070	0.000380	-0.956299	0.643311	-0.116211	0.481270	-0.445899	-0.426782	-0.622423
23386		9.617875	0.989783	2.373544	0.001037	0.006225	0.002043	-0.953857	0.639160	-0.118408	0.481264	-0.445907	-0.426748	-0.622445
23387		9.635306	1.017382	2.390319	0.000916	0.004613	0.001374	-0.956055	0.638916	-0.116211	0.481286	-0.445870	-0.426765	-0.622443
23388		9.632267	1.028091	2.349908	-0.002963	0.000327	0.000103	-0.954102	0.643311	-0.116211	0.481213	-0.445908	-0.426777	-0.622464
23389		9.629277	1.020019	2.355266	0.000467	0.001491	0.001716	-0.951904	0.643311	-0.116211	0.481195	-0.445951	-0.426770	-0.622452
23390		9.614855	1.012190	2.373316	0.003071	0.002545	0.001907	-0.954102	0.645508	-0.114258	0.481216	-0.445968	-0.426776	-0.622420
23391		9.641717	0.997982	2.368196	0.002592	0.002314	0.001533	-0.953857	0.638916	-0.114014	0.481195	-0.446023	-0.426760	-0.622407
23392		9.632357	1.019599	2.321821	0.002441	0.003592	0.000148	-0.953857	0.641113	-0.116211	0.481168	-0.446019	-0.426789	-0.622411
23393		9.632155	1.019398	2.322747	0.001261	0.004493	0.002420	-0.953857	0.636963	-0.113770	0.481180	-0.446020	-0.426782	-0.622406
23394		9.636526	1.018311	2.381319	0.005736	0.004405	0.002433	-0.956299	0.643311	-0.118408	0.481190	-0.445993	-0.426831	-0.622384
23395		9.630526	1.021360	2.346037	0.002665	0.001860	0.000526	-0.951660	0.639160	-0.116211	0.481186	-0.445990	-0.426855	-0.622373
23396		9.631653	1.018472	2.325234	-0.000264	0.005516	0.003643	-0.953857	0.636963	-0.115967	0.481219	-0.445985	-0.426837	-0.622363
23397		9.634722	0.999152	2.337788	-0.000549	0.006443	0.002930	-0.949707	0.641113	-0.111816	0.481229	-0.445963	-0.426828	-0.622378
23398		9.628013	0.990650	2.379446	0.002069	0.006235	0.001781	-0.954102	0.645508	-0.120850	0.481233	-0.445984	-0.426805	-0.622375
23399		9.648023	1.013424	2.352942	0.004418	0.005325	0.001978	-0.956055	0.638916	-0.118408	0.481312	-0.445937	-0.426812	-0.622343
23400		9.619910	1.022259	2.351570	0.003788	0.006372	0.000218	-0.956299	0.645508	-0.116455	0.481332	-0.445866	-0.426847	-0.622354
23401		9.624962	0.987733	2.396624	0.002366	0.004048	0.001153	-0.951904	0.645508	-0.112061	0.481326	-0.445883	-0.426835	-0.622354
23402		9.640498	1.031364	2.380128	0.001484	0.002762	0.002796	-0.953857	0.641113	-0.116211	0.481310	-0.445964	-0.426800	-0.622334
23403		9.629931	1.015958	2.333453	-0.002303	0.002979	0.001476	-0.958496	0.645508	-0.116455	0.481283	-0.445994	-0.426781	-0.622345
23404		9.617831	0.984532	2.354878	0.001528	0.005199	0.001071	-0.953857	0.638916	-0.107422	0.481264	-0.446008	-0.426756	-0.622368
23405		9.625187	1.010066	2.362353	-0.000597	0.004377	0.001253	-0.956055	0.641113	-0.114014	0.481172	-0.446084	-0.426728	-0.622404
23406		9.637221	1.014594	2.359105	0.003743	0.003937	0.001941	-0.953857	0.636963	-0.107422	0.481156	-0.446093	-0.426741	-0.622401
23407		9.654233	1.011143	2.383379	0.003473	0.003602	-0.000112	-0.958252	0.641113	-0.120605	0.481073	-0.446130	-0.426769	-0.622419
23408		9.618276	1.020697	2.358920	0.003952	0.003833	0.000262	-0.958252	0.641113	-0.116211	0.481093	-0.446069	-0.426815	-0.622415
23409		9.624051	1.036519	2.349309	0.003352	0.001988	-0.000779	-0.951660	0.639160	-0.118408	0.481050	-0.446063	-0.426858	-0.622423
23410		9.634771	1.005121	2.345478	0.005044	0.004649	0.000337	-0.951660	0.639160	-0.118408	0.481105	-0.445995	-0.426912	-0.622392
23411		9.631489	0.997365	2.351830	0.005089	0.006718	0.002009	-0.956055	0.638916	-0.116211	0.481182	-0.445921	-0.426945	-0.622363
23412		9.617764	1.052661	2.354822	0.005104	0.005456	0.000669	-0.953857	0.639160	-0.116211	0.481190	-0.445875	-0.426983	-0.622364
23413		9.633829	1.004998	2.349398	0.002545	0.006472	0.002149	-0.956055	0.638916	-0.111816	0.481215	-0.445844	-0.426986	-0.622365
23414		9.616634	1.020639	2.365631	-0.001032	0.006217	0.002547	-0.953857	0.641113	-0.114014	0.481165	-0.445881	-0.426945	-0.622405
23415		9.612528	1.007171	2.363944	0.003921	0.006361	0.002937	-0.958252	0.638916	-0.116211	0.481184	-0.445878	-0.426936	-0.622399
23416		9.617418	1.016938	2.346769	0.001661	0.005187	0.003791	-0.958252	0.641113	-0.118408	0.481181	-0.445875	-0.426931	-0.622408
23417		9.621364	1.002987	2.367110	0.001137	0.002885	0.001746	-0.947510	0.641357	-0.118408	0.481168	-0.445873	-0.426942	-0.622411
23418		9.640556	1.001960	2.377927	0.002783	0.003476	0.001190	-0.956299	0.645508	-0.116455	0.481236	-0.445845	-0.426970	-0.622359
23419		9.645191	1.038306	2.344204	0.002828	0.005547	0.002860	-0.953857	0.641113	-0.116211	0.481257	-0.445856	-0.426945	-0.622353
23420		9.637278	1.012126	2.339294	0.001168	0.006585	0.001356	-0.956055	0.636963	-0.113770	0.481269	-0.445839	-0.426930	-0.622365
23421		9.619520	0.996379	2.363635	-0.000495	0.007258	0.003249	-0.960449	0.638916	-0.114014	0.481248	-0.445842	-0.426900	-0.622401
23422		9.630640	1.034110	2.374744	-0.003234	0.005853	0.003729	-0.956055	0.641113	-0.116211	0.481185	-0.445885	-0.426843	-0.622458
23423		9.637160	1.015004	2.352379	-0.001377	0.006339	0.001495	-0.951660	0.634766	-0.120361	0.481169	-0.445888	-0.426809	-0.622491
23424		9.635459	1.016802	2.375704	-0.001528	0.007252	0.003505	-0.951904	0.643311	-0.114014	0.481233	-0.445821	-0.426808	-0.622489
23425		9.613403	1.040378	2.364159	-0.000810	0.004486	0.002923	-0.956299	0.643311	-0.118408	0.481231	-0.445870	-0.426765	-0.622485
23426		9.638772	1.028275	2.381484	0.003859	0.005556	0.002603	-0.951660	0.639160	-0.111816	0.481270	-0.445844	-0.426769	-0.622471
23427		9.649714	1.014444	2.332182	-0.000348	0.005983	0.004633	-0.954102	0.641113	-0.109619	0.481266	-0.445887	-0.426722	-0.622476
23428		9.629775	0.995579	2.369938	-0.004834	0.007703	0.002552	-0.951904	0.641113	-0.116211	0.481198	-0.445962	-0.426623	-0.622542
23429		9.631108	1.004972	2.388012	-0.002322	0.004248	0.002804	-0.953857	0.639160	-0.124756	0.481202	-0.445989	-0.426591	-0.622543
23430		9.619236	1.030816	2.385210	-0.000871	0.003680	0.002589	-0.956055	0.638916	-0.114014	0.481272	-0.445926	-0.426617	-0.622515
23431		9.647368	1.013489	2.359300	-0.000214	0.006335	0.003960	-0.956299	0.643311	-0.116211	0.481257	-0.445943	-0.426580	-0.622540
23432		9.636727	1.036760	2.335561	0.000117	0.007846	0.002946	-0.954346	0.651855	-0.116699	0.481271	-0.445941	-0.426534	-0.622563
23433		9.637622	0.988647	2.378250	-0.002291	0.007952	0.002410	-0.951660	0.639160	-0.114014	0.481300	-0.445979	-0.426438	-0.622578
23434		9.609464	0.996720	2.377361	-0.003939	0.007362	0.002964	-0.954102	0.645508	-0.122803	0.481289	-0.446002	-0.426374	-0.622613
23435		9.609711	1.027302	2.371061	-0.003025	0.005754	0.002044	-0.954102	0.643311	-0.112061	0.481339	-0.445982	-0.426337	-0.622615
23436		9.638963	1.002115	2.408190	0.003369	0.006955	0.000169	-0.956299	0.643311	-0.114014	0.481323	-0.445983	-0.426325	-0.622635
23437		9.646037	1.015448	2.377632	0.007587	0.004896	0.000201	-0.951660	0.636963	-0.111572	0.481322	-0.445961	-0.426363	-0.622626
23438		9.631688	1.027014	2.349890	0.004984	0.003843	0.000006	-0.954102	0.645508	-0.114258	0.481295	-0.445952	-0.426407	-0.622622
23439		9.635397	1.013769	2.370581	0.000405	0.007286	0.000261	-0.951904	0.641113	-0.114014	0.481285	-0.445962	-0.426366	-0.622651
23440		9.605013	1.020015	2.382775	0.005220	0.007076	0.001332	-0.956299	0.645508	-0.114258	0.481314	-0.445932	-0.426376	-0.622644
23441		9.618644	0.995940	2.374360	0.004155	0.003366	0.001981	-0.958252	0.643311	-0.114258	0.481303	-0.445962	-0.426376	-0.622631
23442		9.635054	1.044924	2.366469	0.007150	0.006740	0.001492	-0.956055	0.638916	-0.118408	0.481309	-0.445936	-0.426391	-0.622635
23443		9.639332	1.023924	2.357485	-0.000688	0.006473	0.000182	-0.954102	0.643311	-0.116211	0.481299	-0.445899	-0.426387	-0.622671
23444		9.608180	1.024781	2.361384	0.003076	0.007521	0.002844	-0.953857	0.641113	-0.114014	0.481335	-0.445882	-0.426365	-0.622670
23445		9.607088	1.019117	2.354554	0.003717	0.005210	0.003272	-0.954102	0.645508	-0.118652	0.481347	-0.445889	-0.426363	-0.622658
23446		9.629116	1.025284	2.361159	0.000932	0.007966	0.004357	-0.956055	0.638916	-0.116211	0.481404	-0.445882	-0.426311	-0.622654
23447		9.620533	1.006003	2.386495	-0.001808	0.006561	0.004834	-0.956055	0.641113	-0.111816	0.481405	-0.445895	-0.426265	-0.622676
23448		9.626300	1.020343	2.377914	0.000735	0.006807	0.004698	-0.953857	0.639160	-0.116211	0.481390	-0.445933	-0.426215	-0.622695
23449		9.634556	1.011089	2.371926	-0.000134	0.004256	0.005006	-0.956055	0.641113	-0.118408	0.481402	-0.445953	-0.426195	-0.622684
23450		9.641977	0.996969	2.357737	0.007948	0.008121	0.004246	-0.954102	0.643311	-0.120605	0.481480	-0.445884	-0.426218	-0.622658
23451		9.611614	1.002463	2.370077	-0.002987	0.007835	0.003696	-0.953857	0.636963	-0.111572	0.481519	-0.445874	-0.426157	-0.622677
23452		9.627535	0.993020	2.387111	0.003356	0.006597	0.003556	-0.956299	0.647461	-0.118652	0.481511	-0.445874	-0.426152	-0.622686
23453		9.641769	0.999737	2.371069	-0.000143	0.005888	0.002942	-0.953613	0.632568	-0.115967	0.481526	-0.445893	-0.426104	-0.622694
23454		9.641411	1.025389	2.355890	0.002087	0.003355	0.002488	-0.949707	0.645508	-0.116455	0.481516	-0.445867	-0.426150	-0.622689
23455		9.619103	0.991577	2.367893	-0.001909	0.003681	0.002834	-0.953857	0.636963	-0.113770	0.481528	-0.445915	-0.426108	-0.622674
23456		9.626543	1.016633	2.375350	0.001786	0.005550	0.003105	-0.953857	0.636963	-0.120361	0.481518	-0.445915	-0.426106	-0.622683
23457		9.643269	0.999849	2.361805	0.004074	0.003827	0.002982	-0.956055	0.641113	-0.114014	0.481562	-0.445863	-0.426157	-0.622651
23458		9.636771	1.010425	2.356970	0.005356	0.007432	0.000653	-0.953857	0.641113	-0.116211	0.481557	-0.445831	-0.426167	-0.622671
23459		9.621117	0.997842	2.367569	0.000909	0.004629	0.001352	-0.953857	0.639160	-0.116211	0.481547	-0.445833	-0.426165	-0.622679
23460		9.618048	1.002178	2.411634	-0.001348	0.001827	0.004265	-0.951660	0.636963	-0.113770	0.481529	-0.445879	-0.426153	-0.622668
23461		9.631672	1.029697	2.370042	0.000719	0.001839	0.003757	-0.951904	0.641113	-0.118408	0.481508	-0.445918	-0.426160	-0.622651
23462		9.647731	1.007470	2.347917	0.000555	0.004386	0.003700	-0.958252	0.641113	-0.120605	0.481544	-0.445916	-0.426155	-0.622628
23463		9.630544	1.022964	2.363873	0.000052	0.007051	0.002595	-0.953857	0.641113	-0.116211	0.481564	-0.445879	-0.426141	-0.622649
23464		9.635633	1.006478	2.363303	0.000471	0.006474	0.002639	-0.953857	0.638916	-0.114014	0.481572	-0.445875	-0.426118	-0.622661
23465		9.623977	0.980107	2.393225	0.000294	0.004046	0.001649	-0.954102	0.643311	-0.114014	0.481535	-0.445896	-0.426112	-0.622679
23466		9.626761	1.013683	2.372636	0.002503	0.002780	0.002531	-0.956543	0.649658	-0.114502	0.481520	-0.445933	-0.426110	-0.622666
23467		9.639039	0.991855	2.385434	-0.002230	0.002534	0.000450	-0.956055	0.641113	-0.114014	0.481462	-0.446009	-0.426064	-0.622687
23468		9.649739	0.999222	2.403341	0.004192	0.000833	-0.000686	-0.956055	0.638916	-0.120605	0.481408	-0.446025	-0.426114	-0.622683
23469		9.634827	1.032106	2.350132	0.005782	0.000613	-0.001568	-0.951904	0.643311	-0.116211	0.481405	-0.445970	-0.426217	-0.622654
23470		9.607775	1.007585	2.333923	0.000452	0.003130	-0.000356	-0.958252	0.643311	-0.112061	0.481390	-0.445981	-0.426225	-0.622653
23471		9.630790	1.006376	2.402716	0.004146	0.004999	-0.000085	-0.949951	0.647705	-0.116455	0.481342	-0.445992	-0.426229	-0.622680
23472		9.628909	1.022730	2.370624	0.004389	0.001994	-0.001029	-0.953857	0.639160	-0.122559	0.481355	-0.445999	-0.426263	-0.622642
23473		9.639391	1.017746	2.350809	0.004899	0.005934	-0.001057	-0.954102	0.643311	-0.116211	0.481406	-0.445897	-0.426331	-0.622628
23474		9.636767	1.015378	2.365503	0.002138	0.005798	0.000751	-0.958496	0.645508	-0.116455	0.481412	-0.445886	-0.426328	-0.622634
23475		9.619590	1.005462	2.397670	0.004204	0.005810	0.000243	-0.951904	0.645508	-0.120850	0.481408	-0.445868	-0.426335	-0.622645
23476		9.613203	1.016232	2.392328	0.004928	0.001408	0.001737	-0.953857	0.639160	-0.118408	0.481461	-0.445854	-0.426385	-0.622579
23477		9.616081	1.037269	2.332967	0.004928	0.001408	0.001737	-0.958252	0.643311	-0.116211	0.481474	-0.445837	-0.426446	-0.622540
23478		9.630763	0.991665	2.348636	-0.000540	0.003574	0.003619	-0.956299	0.645508	-0.114258	0.481454	-0.445877	-0.426417	-0.622546
23479		9.633740	1.011671	2.382387	0.002581	0.002324	0.001527	-0.953857	0.641113	-0.116211	0.481430	-0.445916	-0.426421	-0.622535
23480		9.632012	1.027184	2.350134	0.001945	0.003010	0.003156	-0.952148	0.647705	-0.116455	0.481436	-0.445932	-0.426428	-0.622514
23481		9.611800	0.996217	2.349191	0.001836	0.007996	0.001361	-0.949707	0.643311	-0.114014	0.481477	-0.445919	-0.426396	-0.622513
23482		9.628378	1.018711	2.357925	0.004684	0.004415	0.002679	-0.954102	0.643311	-0.116211	0.481512	-0.445924	-0.426407	-0.622474
23483		9.643624	1.004622	2.365940	0.002697	0.003944	0.002184	-0.953857	0.639160	-0.116211	0.481522	-0.445931	-0.426414	-0.622458
23484		9.632707	1.009888	2.387316	0.001685	0.002669	0.001107	-0.958496	0.649658	-0.114502	0.481504	-0.445934	-0.426438	-0.622453
23485		9.639445	1.017552	2.347787	0.001209	0.002436	0.000733	-0.956299	0.647461	-0.114258	0.481466	-0.445987	-0.426424	-0.622454
23486		9.631639	1.004176	2.380503	-0.003226	0.004609	0.002359	-0.956299	0.645508	-0.114258	0.481433	-0.446051	-0.426360	-0.622478
23487		9.635226	1.016733	2.384770	0.004007	0.004652	0.000584	-0.956299	0.645508	-0.112061	0.481423	-0.446055	-0.426367	-0.622477
23488		9.635639	1.009136	2.356242	0.001439	0.007305	-0.000018	-0.951904	0.641113	-0.120605	0.481395	-0.446063	-0.426336	-0.622514
23489		9.641497	0.998442	2.363661	0.003392	0.004069	0.000883	-0.949463	0.639160	-0.120361	0.481432	-0.446022	-0.426374	-0.622489
23490		9.629552	1.025360	2.360985	0.002691	0.007203	-0.001946	-0.956299	0.643311	-0.116211	0.481467	-0.445940	-0.426411	-0.622496
23491		9.628467	1.020284	2.354006	0.001662	0.003940	0.002436	-0.956055	0.641113	-0.116211	0.481462	-0.445955	-0.426407	-0.622491
23492		9.617556	0.999174	2.391885	0.000291	0.004051	0.001642	-0.956055	0.641113	-0.116211	0.481442	-0.445967	-0.426403	-0.622502
23493		9.625778	1.016784	2.369344	0.001720	0.004750	0.002764	-0.951904	0.641113	-0.116211	0.481442	-0.445970	-0.426399	-0.622502
23494		9.654789	1.017596	2.390073	0.002335	0.005334	0.002464	-0.956299	0.643311	-0.114014	0.481467	-0.445960	-0.426401	-0.622488
23495		9.649948	0.999105	2.379876	0.002335	0.005334	0.002464	-0.949707	0.643311	-0.114014	0.481462	-0.445973	-0.426388	-0.622492
23496		9.602790	1.008667	2.367439	0.002718	0.002676	0.000852	-0.953857	0.636963	-0.118164	0.481463	-0.445992	-0.426406	-0.622465
23497		9.608900	0.997643	2.373937	0.002719	0.001048	0.002917	-0.954102	0.645508	-0.118652	0.481464	-0.445993	-0.426450	-0.622433
23498		9.645715	0.998797	2.324204	-0.000803	0.004865	-0.000500	-0.956055	0.638916	-0.116211	0.481457	-0.445991	-0.426440	-0.622447
23499		9.646083	1.003563	2.426474	0.001380	0.006498	-0.000350	-0.953857	0.641113	-0.120605	0.481437	-0.445959	-0.426447	-0.622482
23500		9.643484	1.014881	2.386310	0.010985	0.002724	-0.001172	-0.956055	0.641113	-0.116211	0.481482	-0.445875	-0.426562	-0.622427
23501		9.629400	1.014038	2.320155	0.009369	0.005846	-0.001030	-0.954102	0.643311	-0.116211	0.481501	-0.445804	-0.426631	-0.622415
23502		9.622090	1.006740	2.361554	0.002274	0.006154	0.000067	-0.956299	0.645508	-0.118652	0.481505	-0.445786	-0.426633	-0.622425
23503		9.620980	1.001766	2.354672	0.001322	0.005688	-0.000681	-0.951660	0.639160	-0.114014	0.481503	-0.445767	-0.426633	-0.622440
23504		9.643705	1.013955	2.369425	-0.000327	0.005099	-0.000129	-0.951660	0.639160	-0.118408	0.481476	-0.445771	-0.426628	-0.622462
23505		9.642488	1.035057	2.346610	0.001273	0.009860	-0.000092	-0.951904	0.643311	-0.114014	0.481507	-0.445704	-0.426617	-0.622492
23506		9.636528	1.024781	2.367363	0.000658	0.009277	0.000207	-0.952148	0.647705	-0.116455	0.481519	-0.445684	-0.426582	-0.622522
23507		9.610603	1.022664	2.407421	-0.001885	0.007404	0.002404	-0.954102	0.645508	-0.118652	0.481545	-0.445703	-0.426523	-0.622528
23508		9.620326	1.011486	2.380185	0.001576	0.006033	0.001365	-0.951660	0.639160	-0.111816	0.481572	-0.445691	-0.426513	-0.622523
23509		9.641547	1.039361	2.362156	0.007556	0.006180	0.001524	-0.956299	0.643311	-0.112061	0.481595	-0.445660	-0.426547	-0.622504
23510		9.634316	1.018533	2.365547	0.003479	0.006968	0.002860	-0.949707	0.641113	-0.111816	0.481599	-0.445667	-0.426526	-0.622509
23511		9.623206	1.023459	2.387535	0.001633	0.005217	0.003757	-0.956055	0.638916	-0.116211	0.481614	-0.445697	-0.426503	-0.622493
23512		9.618470	1.030937	2.360773	0.002551	0.003601	0.002851	-0.956055	0.641113	-0.111816	0.481607	-0.445702	-0.426516	-0.622486
23513		9.629167	0.998235	2.357473	-0.001189	0.004272	0.005234	-0.956055	0.643311	-0.120605	0.481583	-0.445767	-0.426465	-0.622492
23514		9.640446	1.009604	2.384497	-0.000295	0.005557	0.003587	-0.954102	0.641113	-0.111816	0.481608	-0.445766	-0.426440	-0.622491
23515		9.638001	1.019386	2.344753	0.000656	0.006024	0.004335	-0.953857	0.641113	-0.116211	0.481606	-0.445799	-0.426400	-0.622497
23516		9.620023	1.003190	2.368686	-0.000517	0.005669	0.005260	-0.951904	0.645508	-0.112061	0.481626	-0.445823	-0.426359	-0.622492
23517		9.628268	1.020027	2.346779	-0.004511	0.007625	0.003526	-0.949707	0.643311	-0.118408	0.481615	-0.445880	-0.426264	-0.622524
23518		9.613979	1.016452	2.374501	-0.007695	0.008071	0.005280	-0.958252	0.641113	-0.116211	0.481640	-0.445922	-0.426155	-0.622550
23519		9.650556	1.003088	2.380725	-0.003478	0.007632	0.003273	-0.953857	0.641113	-0.116211	0.481619	-0.445938	-0.426090	-0.622599
23520		9.649443	1.023401	2.358156	0.001330	0.009049	0.002294	-0.949707	0.641113	-0.114014	0.481643	-0.445908	-0.426061	-0.622622
23521		9.633516	0.984391	2.385630	-0.000154	0.007538	0.000844	-0.953857	0.636963	-0.118164	0.481646	-0.445900	-0.426034	-0.622644
23522		9.603766	0.995643	2.405923	0.002165	0.007894	0.002388	-0.956055	0.641113	-0.109619	0.481671	-0.445853	-0.426033	-0.622658
23523		9.630531	1.033406	2.369627	-0.001166	0.004632	0.001835	-0.956299	0.643311	-0.114014	0.481610	-0.445906	-0.425994	-0.622695
23524		9.642563	1.011545	2.383053	0.000902	0.004642	0.001333	-0.958252	0.641113	-0.116211	0.481583	-0.445926	-0.425980	-0.622711
23525		9.647708	1.021622	2.366013	0.002248	0.007433	0.001388	-0.954102	0.643311	-0.114014	0.481578	-0.445899	-0.425972	-0.622739
23526		9.634274	1.011302	2.363497	-0.001470	0.006834	0.002439	-0.956299	0.643311	-0.116211	0.481567	-0.445922	-0.425921	-0.622767
23527		9.612378	1.008845	2.368132	-0.004489	0.006358	0.002191	-0.949707	0.645508	-0.122803	0.481536	-0.445955	-0.425856	-0.622811
23528		9.618852	1.002574	2.384382	0.000712	0.008469	0.002589	-0.960449	0.641113	-0.118408	0.481611	-0.445913	-0.425830	-0.622800
23529		9.642205	1.019002	2.408085	-0.003539	0.006825	0.002938	-0.947510	0.641357	-0.114014	0.481585	-0.445924	-0.425777	-0.622850
23530		9.657920	1.009910	2.425233	-0.000688	0.006496	0.000140	-0.958008	0.636719	-0.111816	0.481582	-0.445924	-0.425755	-0.622867
23531		9.644015	1.020892	2.397322	0.004360	0.001639	0.002370	-0.956055	0.641113	-0.118408	0.481538	-0.445945	-0.425792	-0.622861
23532		9.624134	1.042417	2.362760	0.002490	0.002791	0.002524	-0.956299	0.645508	-0.116455	0.481540	-0.445946	-0.425814	-0.622843
23533		9.600132	0.998528	2.358187	0.005679	0.005705	0.003749	-0.960449	0.643311	-0.118408	0.481579	-0.445936	-0.425818	-0.622818
23534		9.630703	0.996579	2.357504	0.001151	0.004990	0.003377	-0.951904	0.645508	-0.120850	0.481575	-0.445942	-0.425804	-0.622826
23535		9.641235	1.029318	2.360075	0.000315	0.006147	0.003279	-0.960449	0.643311	-0.116211	0.481621	-0.445935	-0.425780	-0.622812
23536		9.637063	1.015428	2.358725	0.000402	0.009047	0.005255	-0.954102	0.643311	-0.116211	0.481639	-0.445935	-0.425719	-0.622840
23537		9.631735	0.983109	2.403895	-0.000324	0.008469	0.002833	-0.958252	0.638916	-0.120605	0.481655	-0.445929	-0.425672	-0.622864
23538		9.619758	1.009218	2.401938	0.004344	0.009534	0.002533	-0.956299	0.645508	-0.120850	0.481699	-0.445851	-0.425679	-0.622880
23539		9.624169	1.013932	2.376988	0.004784	0.006052	0.003325	-0.953857	0.641113	-0.116211	0.481749	-0.445822	-0.425688	-0.622856
23540		9.637520	1.002275	2.407249	0.003891	0.006398	0.002901	-0.958252	0.643311	-0.114258	0.481775	-0.445802	-0.425691	-0.622849
23541		9.633515	1.015180	2.389118	0.002941	0.005931	0.002151	-0.953857	0.641113	-0.122803	0.481763	-0.445804	-0.425681	-0.622863
23542		9.641750	1.006520	2.383267	0.001765	0.005577	0.003074	-0.956055	0.641113	-0.118408	0.481804	-0.445773	-0.425689	-0.622848
23543		9.642168	1.011305	2.392875	0.002607	0.006048	0.001103	-0.956055	0.641113	-0.118408	0.481807	-0.445745	-0.425699	-0.622860
23544		9.630399	0.999017	2.368589	0.008508	0.008281	0.000206	-0.949707	0.645508	-0.118652	0.481848	-0.445659	-0.425746	-0.622857
23545		9.621446	1.007508	2.377405	0.005766	0.006876	0.000678	-0.956299	0.645508	-0.118652	0.481901	-0.445614	-0.425769	-0.622833
23546		9.630274	1.004424	2.380132	0.001211	0.007437	0.001626	-0.958496	0.645508	-0.116455	0.481912	-0.445599	-0.425744	-0.622851
23547		9.636915	1.024310	2.379817	-0.000391	0.006033	0.004568	-0.954102	0.643311	-0.120605	0.481912	-0.445632	-0.425693	-0.622863
23548		9.629841	1.028905	2.366903	-0.001616	0.006495	0.003096	-0.958252	0.641113	-0.120605	0.481927	-0.445635	-0.425655	-0.622876
23549		9.632273	0.983526	2.396318	0.001600	0.008135	0.002997	-0.956055	0.641113	-0.116211	0.481948	-0.445600	-0.425637	-0.622896
23550		9.643607	0.982446	2.385600	0.002180	0.005001	0.003120	-0.956299	0.643311	-0.114014	0.481947	-0.445605	-0.425632	-0.622897
23551		9.638705	1.002606	2.397196	-0.003884	0.005324	0.003941	-0.958252	0.641113	-0.125000	0.481913	-0.445665	-0.425562	-0.622928
23552		9.613281	1.013177	2.381747	-0.000980	0.004175	0.003542	-0.956299	0.643311	-0.116211	0.481922	-0.445660	-0.425556	-0.622929
23553		9.635936	0.998613	2.412490	0.001289	0.001981	-0.000273	-0.956055	0.643311	-0.120605	0.481875	-0.445682	-0.425576	-0.622936
23554		9.625955	0.995901	2.403591	-0.003920	0.001606	0.004362	-0.956055	0.641113	-0.116211	0.481853	-0.445744	-0.425542	-0.622932
23555		9.645082	0.993904	2.414590	-0.005619	0.001834	0.002516	-0.956055	0.641113	-0.114014	0.481789	-0.445816	-0.425500	-0.622959
23556		9.629274	1.028049	2.382924	-0.002685	-0.000592	0.000796	-0.951904	0.645508	-0.120850	0.481706	-0.445888	-0.425500	-0.622971
23557		9.637120	1.014261	2.367568	-0.001680	0.000689	0.001869	-0.954102	0.643311	-0.116211	0.481694	-0.445932	-0.425501	-0.622949
23558		9.625206	0.988294	2.396528	0.001764	0.002214	0.000102	-0.954102	0.643311	-0.114014	0.481666	-0.445946	-0.425523	-0.622944
23559		9.633733	1.006581	2.373647	0.007524	0.004096	-0.000119	-0.951904	0.643311	-0.118408	0.481670	-0.445920	-0.425575	-0.622925
23560		9.647056	0.995581	2.403459	-0.000050	0.004182	0.000574	-0.956299	0.643311	-0.116211	0.481664	-0.445923	-0.425576	-0.622927
23561		9.635861	1.001372	2.424838	0.005540	0.003624	-0.000619	-0.953857	0.641113	-0.118408	0.481651	-0.445901	-0.425622	-0.622921
23562		9.622334	1.039160	2.380040	0.003776	0.001410	-0.000721	-0.949463	0.636963	-0.118164	0.481632	-0.445890	-0.425681	-0.622903
23563		9.613333	1.029646	2.341136	0.009725	0.002827	0.000779	-0.951660	0.639160	-0.118408	0.481677	-0.445829	-0.425782	-0.622844
23564		9.629683	1.000081	2.381904	0.002626	0.003147	0.001846	-0.956055	0.641113	-0.116211	0.481687	-0.445820	-0.425812	-0.622821
23565		9.639408	1.002039	2.392133	0.001459	0.004421	0.000698	-0.956299	0.647461	-0.116455	0.481664	-0.445818	-0.425819	-0.622835
23566		9.644208	1.033408	2.350220	0.005709	0.006066	0.000351	-0.956299	0.643311	-0.116211	0.481681	-0.445792	-0.425837	-0.622829
23567		9.641354	1.030932	2.365203	0.000460	0.008137	0.000520	-0.956055	0.638916	-0.114014	0.481674	-0.445773	-0.425810	-0.622867
23568		9.624182	0.999900	2.422190	-0.001446	0.005573	0.001093	-0.951904	0.641113	-0.114014	0.481633	-0.445785	-0.425786	-0.622906
23569		9.621758	1.023003	2.420127	0.002814	0.002682	0.003566	-0.956055	0.641113	-0.114014	0.481638	-0.445813	-0.425794	-0.622877
23570		9.613521	1.017735	2.389692	0.001535	0.002330	0.001770	-0.956055	0.636963	-0.113770	0.481605	-0.445842	-0.425802	-0.622876
23571		9.642798	1.005885	2.372069	0.003802	0.003502	0.000923	-0.956055	0.643311	-0.120605	0.481579	-0.445833	-0.425836	-0.622879
23572		9.656448	1.020665	2.385131	0.001809	0.001401	0.002494	-0.953857	0.639160	-0.118408	0.481579	-0.445849	-0.425861	-0.622851
23573		9.629198	1.008380	2.406822	0.002569	0.002334	0.001521	-0.958496	0.645508	-0.118652	0.481575	-0.445845	-0.425898	-0.622831
23574		9.625491	1.021521	2.387702	0.006003	0.002232	0.001823	-0.951904	0.641113	-0.116211	0.481583	-0.445841	-0.425942	-0.622797
23575		9.630332	1.026102	2.361519	-0.003638	0.002309	0.003011	-0.951904	0.641113	-0.116211	0.481556	-0.445897	-0.425911	-0.622799
23576		9.631211	0.983325	2.411310	0.000775	0.001397	0.002742	-0.958252	0.641113	-0.120605	0.481547	-0.445932	-0.425923	-0.622774
23577		9.633981	1.011670	2.381413	0.003510	-0.002196	0.001376	-0.951904	0.641113	-0.118408	0.481519	-0.445954	-0.425994	-0.622731
23578		9.628599	1.035334	2.320526	0.003317	0.001640	0.002619	-0.956299	0.643311	-0.118408	0.481535	-0.445960	-0.426031	-0.622689
23579		9.614858	1.011465	2.371361	0.000240	0.003720	0.005007	-0.956055	0.643311	-0.122803	0.481550	-0.445988	-0.426012	-0.622670
23580		9.622871	1.015341	2.403246	0.004994	0.004320	0.003714	-0.956299	0.643311	-0.116211	0.481604	-0.445958	-0.426045	-0.622627
23581		9.639293	1.019242	2.365343	0.004016	0.005130	0.004285	-0.953857	0.641113	-0.116211	0.481632	-0.445958	-0.426044	-0.622606
23582		9.632017	0.998074	2.368629	0.004501	0.006993	0.002588	-0.953857	0.641113	-0.114014	0.481665	-0.445926	-0.426051	-0.622598
23583		9.635295	0.984114	2.389749	-0.001762	0.006156	0.003753	-0.956299	0.647461	-0.118652	0.481659	-0.445953	-0.426002	-0.622618
23584		9.634230	1.017387	2.404449	0.000281	0.004071	0.001615	-0.953857	0.641113	-0.116211	0.481655	-0.445970	-0.425991	-0.622616
23585		9.625202	1.006884	2.366312	0.003123	0.005477	0.003859	-0.958252	0.641113	-0.116211	0.481682	-0.445964	-0.425990	-0.622601
23586		9.640972	0.997673	2.382933	-0.002318	0.003015	0.001413	-0.953857	0.641113	-0.118408	0.481630	-0.445999	-0.425972	-0.622628
23587		9.651444	1.004700	2.401171	0.001621	0.001867	0.000772	-0.956299	0.645508	-0.114258	0.481614	-0.446005	-0.426004	-0.622615
23588		9.622365	1.003620	2.381444	0.004612	0.000249	-0.000618	-0.951904	0.643311	-0.118408	0.481577	-0.446025	-0.426054	-0.622594
23589		9.609274	0.994133	2.377109	0.003577	0.000246	-0.000370	-0.953857	0.641113	-0.118408	0.481566	-0.446030	-0.426114	-0.622558
23590		9.636368	1.006652	2.356105	0.007696	0.003168	-0.002115	-0.953857	0.641113	-0.116211	0.481569	-0.445973	-0.426202	-0.622536
23591		9.630173	1.010407	2.412820	0.007802	-0.000203	-0.002359	-0.954102	0.643311	-0.114014	0.481545	-0.445951	-0.426305	-0.622500
23592		9.635544	1.003454	2.347568	0.003639	-0.002313	-0.003008	-0.953857	0.638916	-0.114014	0.481476	-0.445979	-0.426382	-0.622480
23593		9.634102	1.033072	2.352073	0.003969	-0.002427	-0.001961	-0.951904	0.643311	-0.120605	0.481411	-0.446003	-0.426465	-0.622457
23594		9.624497	1.057752	2.325825	0.004698	-0.000214	-0.001616	-0.960693	0.645264	-0.112061	0.481406	-0.445988	-0.426550	-0.622412
23595		9.616835	0.985320	2.360959	-0.000910	0.003252	-0.001179	-0.947510	0.641113	-0.109619	0.481331	-0.446024	-0.426537	-0.622454
23596		9.631794	1.011125	2.390474	0.008717	0.001548	-0.000295	-0.956055	0.641113	-0.120605	0.481338	-0.446015	-0.426612	-0.622404
23597		9.633029	1.029726	2.344602	0.001819	0.003031	0.000419	-0.954102	0.645508	-0.116455	0.481333	-0.446001	-0.426645	-0.622395
23598		9.624047	1.011704	2.368949	0.000841	0.003842	0.000989	-0.958252	0.641113	-0.118408	0.481329	-0.446014	-0.426644	-0.622389
23599		9.626916	1.019558	2.364975	0.005376	0.006186	-0.000707	-0.949707	0.641113	-0.111816	0.481336	-0.445957	-0.426685	-0.622397
23600		9.616692	1.017848	2.356726	0.005594	0.004443	-0.000305	-0.954102	0.643311	-0.120605	0.481342	-0.445938	-0.426723	-0.622380
23601		9.620010	1.004796	2.377264	0.005363	0.004560	0.001364	-0.951904	0.643311	-0.122803	0.481382	-0.445900	-0.426766	-0.622346
23602		9.638312	0.998644	2.380096	0.001420	0.000705	0.001121	-0.951660	0.639160	-0.114014	0.481394	-0.445906	-0.426809	-0.622303
23603		9.641729	1.032350	2.358692	0.004435	0.001183	0.001372	-0.951904	0.641113	-0.118408	0.481387	-0.445917	-0.426856	-0.622269
23604		9.634669	1.011932	2.360787	0.004193	0.000832	-0.000672	-0.953857	0.639160	-0.122559	0.481381	-0.445907	-0.426923	-0.622235
23605		9.628517	1.022935	2.354839	0.003270	0.002457	0.000220	-0.949463	0.636963	-0.115967	0.481390	-0.445877	-0.426980	-0.622210
23606		9.633720	1.007242	2.353424	0.005394	0.003281	0.000045	-0.956299	0.645508	-0.112061	0.481399	-0.445847	-0.427038	-0.622185
23607		9.622111	1.033793	2.349992	-0.000755	0.004070	0.001857	-0.951904	0.645508	-0.118652	0.481375	-0.445888	-0.427009	-0.622194
23608		9.630847	1.004425	2.368486	0.005307	0.003747	0.001040	-0.958252	0.638916	-0.114014	0.481418	-0.445864	-0.427054	-0.622148
23609		9.640218	1.027574	2.353667	0.003071	0.001294	0.000572	-0.953857	0.641113	-0.118408	0.481373	-0.445881	-0.427088	-0.622146
23610		9.633092	1.006707	2.356223	0.000609	0.003961	0.002655	-0.954102	0.643311	-0.118408	0.481384	-0.445887	-0.427089	-0.622133
23611		9.639301	1.021573	2.346753	0.000497	0.002331	0.002012	-0.952148	0.647705	-0.114258	0.481386	-0.445906	-0.427100	-0.622110
23612		9.629927	1.024152	2.346462	0.000335	0.004890	0.001929	-0.954102	0.643311	-0.120605	0.481404	-0.445926	-0.427083	-0.622094
23613		9.635742	1.012984	2.353846	0.002733	0.004785	0.002479	-0.953857	0.641113	-0.114014	0.481442	-0.445907	-0.427099	-0.622067
23614		9.620296	1.026100	2.347502	0.000520	0.004428	0.003649	-0.949707	0.643311	-0.118408	0.481446	-0.445932	-0.427080	-0.622059
23615		9.607429	0.994646	2.368952	-0.000756	0.004071	0.001854	-0.953857	0.636963	-0.115967	0.481464	-0.445942	-0.427076	-0.622041
23616		9.641519	1.026756	2.346659	0.000367	0.003609	0.000611	-0.956055	0.638916	-0.116211	0.481432	-0.445946	-0.427084	-0.622057
23617		9.641540	1.052842	2.331386	0.004726	0.006886	0.000904	-0.954102	0.643311	-0.118408	0.481444	-0.445902	-0.427103	-0.622066
23618		9.636683	0.987530	2.362861	0.000172	0.007450	0.001843	-0.953857	0.636963	-0.118164	0.481470	-0.445882	-0.427083	-0.622074
23619		9.598121	0.980856	2.405764	0.000408	0.002799	0.003006	-0.956055	0.641113	-0.116211	0.481460	-0.445898	-0.427088	-0.622067
23620		9.612244	1.029734	2.339333	0.004610	0.000251	-0.000618	-0.960449	0.641113	-0.114014	0.481432	-0.445901	-0.427153	-0.622042
23621		9.637947	1.023574	2.364684	0.005723	0.003168	0.001092	-0.954102	0.643311	-0.116211	0.481415	-0.445893	-0.427191	-0.622034
23622		9.642883	0.981666	2.379563	0.006502	0.001193	0.000876	-0.956299	0.643311	-0.112061	0.481428	-0.445886	-0.427258	-0.621984
23623		9.631416	1.055542	2.334152	0.006029	0.000958	0.000502	-0.949707	0.645508	-0.120850	0.481413	-0.445897	-0.427312	-0.621950
23624		9.611304	1.025127	2.331938	0.001419	0.000706	0.001120	-0.956055	0.641113	-0.114014	0.481435	-0.445910	-0.427354	-0.621895
23625		9.612666	0.988322	2.389734	0.003816	0.000602	0.001672	-0.949707	0.645508	-0.118652	0.481416	-0.445934	-0.427394	-0.621865
23626		9.640282	1.026369	2.351905	0.009404	0.000043	0.000484	-0.956055	0.641113	-0.114014	0.481468	-0.445907	-0.427501	-0.621770
23627		9.652906	1.057407	2.331702	0.004832	0.003514	0.000663	-0.956299	0.643311	-0.112061	0.481462	-0.445897	-0.427537	-0.621758
23628		9.631977	0.974898	2.363119	0.009209	0.003886	0.001712	-0.953857	0.638916	-0.111816	0.481492	-0.445871	-0.427594	-0.621714
23629		9.624953	1.020053	2.370606	0.011727	0.002032	-0.000047	-0.951660	0.636963	-0.113770	0.481505	-0.445832	-0.427693	-0.621664
23630		9.617794	1.047217	2.331495	0.017136	0.002410	0.000752	-0.956055	0.643311	-0.125000	0.481563	-0.445753	-0.427833	-0.621579
23631		9.609924	1.021866	2.325778	0.009262	0.004705	0.002028	-0.951904	0.641113	-0.118408	0.481642	-0.445680	-0.427912	-0.621516
23632		9.626596	0.997538	2.375483	0.005743	0.005272	0.002719	-0.954102	0.647705	-0.116455	0.481695	-0.445647	-0.427944	-0.621476
23633		9.630296	1.056872	2.338169	0.004782	0.003177	0.004049	-0.960449	0.643311	-0.120605	0.481751	-0.445654	-0.427969	-0.621411
23634		9.623940	1.001484	2.327903	-0.000317	0.005596	0.003533	-0.956299	0.645508	-0.118652	0.481762	-0.445658	-0.427946	-0.621415
23635		9.613259	1.012018	2.357926	0.004107	0.006309	0.001191	-0.954102	0.643311	-0.112061	0.481800	-0.445622	-0.427965	-0.621398
23636		9.630692	1.000117	2.353598	-0.004727	0.006508	0.003797	-0.951904	0.645508	-0.116455	0.481790	-0.445671	-0.427888	-0.621424
23637		9.636563	1.053790	2.366630	-0.001897	0.007448	0.002324	-0.956055	0.643311	-0.120605	0.481817	-0.445674	-0.427846	-0.621430
23638		9.630015	0.998833	2.356915	0.004524	0.005729	0.001244	-0.951904	0.643311	-0.118408	0.481851	-0.445634	-0.427874	-0.621413
23639		9.630419	1.003997	2.366220	0.001873	0.003853	0.000728	-0.954102	0.645508	-0.114258	0.481864	-0.445627	-0.427895	-0.621393
23640		9.621707	1.012164	2.373988	0.001200	0.002453	0.000710	-0.956299	0.645508	-0.114258	0.481857	-0.445647	-0.427912	-0.621372
23641		9.621246	1.032730	2.350026	0.001221	0.004554	0.002342	-0.951904	0.643311	-0.118408	0.481869	-0.445660	-0.427907	-0.621358
23642		9.615900	1.008870	2.331389	-0.003353	0.003017	0.001647	-0.958252	0.643311	-0.114258	0.481854	-0.445696	-0.427887	-0.621357
23643		9.613860	1.010829	2.354001	-0.005311	0.004642	0.002781	-0.956299	0.643311	-0.116211	0.481818	-0.445749	-0.427826	-0.621389
23644		9.629352	1.022384	2.345693	-0.006060	0.000324	0.000811	-0.956055	0.638916	-0.114014	0.481750	-0.445824	-0.427800	-0.621406
23645		9.648377	1.021012	2.356699	-0.003881	0.001965	0.000955	-0.949707	0.641113	-0.114014	0.481680	-0.445879	-0.427775	-0.621438
23646		9.632358	1.028964	2.341836	-0.005222	0.004174	0.001787	-0.953857	0.641113	-0.114014	0.481651	-0.445928	-0.427726	-0.621459
23647		9.646451	1.029956	2.317492	-0.003950	0.004534	0.003580	-0.954102	0.643311	-0.107666	0.481632	-0.445976	-0.427673	-0.621476
23648		9.628780	1.019451	2.349313	-0.003244	0.004651	0.002285	-0.956055	0.641113	-0.111816	0.481602	-0.446029	-0.427624	-0.621495
23649		9.618306	0.990394	2.357668	-0.006674	0.004752	0.001978	-0.956055	0.638916	-0.111816	0.481545	-0.446089	-0.427553	-0.621544
23650		9.613197	1.031692	2.344029	-0.000541	0.002333	0.002253	-0.956299	0.643311	-0.116211	0.481503	-0.446132	-0.427542	-0.621554
23651		9.635651	1.016855	2.374901	-0.003644	0.002322	0.002993	-0.951904	0.641113	-0.116211	0.481477	-0.446186	-0.427512	-0.621556
23652		9.638123	1.018882	2.362041	0.000673	0.001400	0.000019	-0.949707	0.641357	-0.120605	0.481450	-0.446204	-0.427538	-0.621546
23653		9.642437	1.018657	2.327583	-0.000161	0.002561	-0.000089	-0.953857	0.639160	-0.116211	0.481442	-0.446206	-0.427560	-0.621536
23654		9.630506	1.019163	2.340523	-0.002030	0.003719	0.000050	-0.953857	0.641113	-0.114014	0.481399	-0.446222	-0.427549	-0.621564
23655		9.615049	1.032942	2.334071	0.003107	0.005021	0.000128	-0.954102	0.645508	-0.116455	0.481397	-0.446204	-0.427568	-0.621566
23656		9.622242	0.993487	2.336489	-0.000323	0.005123	-0.000179	-0.956055	0.638916	-0.114014	0.481397	-0.446197	-0.427569	-0.621571
23657		9.629454	1.040034	2.319089	0.001310	0.004086	0.001350	-0.956299	0.643311	-0.114014	0.481374	-0.446203	-0.427570	-0.621583
23658		9.642509	1.028547	2.349382	-0.003045	0.005817	0.001927	-0.956055	0.641113	-0.118408	0.481359	-0.446226	-0.427528	-0.621608
23659		9.626622	1.015651	2.359780	0.002781	0.005610	0.002789	-0.949707	0.639160	-0.116211	0.481383	-0.446207	-0.427532	-0.621599
23660		9.612647	1.000247	2.348458	0.000004	0.005012	0.000867	-0.951904	0.643311	-0.116211	0.481378	-0.446205	-0.427527	-0.621608
23661		9.635727	1.038015	2.346861	-0.001649	0.004424	0.001414	-0.951660	0.639160	-0.116211	0.481376	-0.446221	-0.427512	-0.621609
23662		9.628454	1.017076	2.349855	-0.000197	0.003847	0.001222	-0.953857	0.636963	-0.111572	0.481361	-0.446231	-0.427510	-0.621615
23663		9.633994	1.027009	2.332441	0.003906	0.005146	0.001549	-0.956299	0.643311	-0.114014	0.481350	-0.446221	-0.427519	-0.621624
23664		9.621986	1.027287	2.345726	0.004704	0.005270	0.002969	-0.954102	0.645508	-0.116455	0.481384	-0.446207	-0.427534	-0.621598
23665		9.626964	1.031793	2.319845	0.002887	0.002233	0.002559	-0.956299	0.643311	-0.114014	0.481408	-0.446217	-0.427562	-0.621552
23666		9.617174	1.008338	2.335991	0.001836	0.005140	0.002040	-0.956055	0.636963	-0.113770	0.481417	-0.446216	-0.427561	-0.621547
23667		9.623645	1.002158	2.351491	-0.001669	0.002801	0.003489	-0.954102	0.643311	-0.112061	0.481378	-0.446262	-0.427533	-0.621563
23668		9.646889	1.039629	2.349419	0.000637	0.002687	0.001330	-0.953857	0.638916	-0.114014	0.481363	-0.446288	-0.427539	-0.621552
23669		9.633051	1.024360	2.337496	0.003650	0.003165	0.001584	-0.953857	0.641113	-0.118408	0.481356	-0.446288	-0.427564	-0.621540
23670		9.604640	1.027940	2.326496	-0.000288	0.004317	0.002212	-0.949463	0.636963	-0.113770	0.481358	-0.446294	-0.427558	-0.621538
23671		9.632721	1.023462	2.339250	0.000546	0.003156	0.002322	-0.951904	0.641113	-0.111816	0.481343	-0.446317	-0.427555	-0.621536
23672		9.613552	1.023674	2.329422	0.000927	0.003861	0.003688	-0.956299	0.643311	-0.116211	0.481349	-0.446345	-0.427542	-0.621519
23673		9.613578	1.002139	2.355137	-0.000760	0.004082	0.001838	-0.956299	0.643311	-0.116211	0.481343	-0.446360	-0.427533	-0.621521
23674		9.644557	1.026412	2.338477	0.000259	0.006996	0.000826	-0.949707	0.643311	-0.111816	0.481349	-0.446340	-0.427520	-0.621539
23675		9.627079	1.042874	2.354059	0.005140	0.006316	0.000945	-0.956299	0.643311	-0.116211	0.481386	-0.446308	-0.427542	-0.621518
23676		9.610618	1.004594	2.380993	0.002273	0.006186	0.000015	-0.954102	0.643311	-0.116211	0.481393	-0.446278	-0.427554	-0.621526
23677		9.621954	1.024799	2.345238	0.002197	0.003744	0.001774	-0.956055	0.641113	-0.120605	0.481406	-0.446277	-0.427570	-0.621505
23678		9.630267	1.016218	2.339365	0.000529	0.006069	0.001553	-0.953857	0.638916	-0.114014	0.481416	-0.446256	-0.427566	-0.621515
23679		9.607742	1.008926	2.335132	-0.001741	0.004897	0.002400	-0.954102	0.643311	-0.112061	0.481394	-0.446280	-0.427534	-0.621538
23680		9.621404	1.002520	2.373521	-0.000344	0.003502	0.001891	-0.951904	0.641113	-0.114014	0.481382	-0.446308	-0.427524	-0.621534
23681		9.625159	1.015250	2.377151	0.002124	0.000823	-0.000173	-0.958252	0.638916	-0.109619	0.481354	-0.446325	-0.427564	-0.621515
23682		9.643200	1.030443	2.355430	0.004379	0.004907	-0.001788	-0.953857	0.638916	-0.109619	0.481312	-0.446302	-0.427593	-0.621545
23683		9.624111	1.011135	2.370122	0.003868	0.000941	-0.001711	-0.958008	0.636963	-0.115967	0.481257	-0.446312	-0.427643	-0.621545
23684		9.623944	1.032606	2.345133	0.011268	-0.001121	0.000369	-0.958496	0.647461	-0.114258	0.481249	-0.446287	-0.427761	-0.621488
23685		9.631460	0.993597	2.345912	0.007367	-0.001255	-0.000315	-0.958008	0.636963	-0.113770	0.481250	-0.446288	-0.427857	-0.621421
23686		9.616316	1.008565	2.337752	0.015881	-0.001350	-0.003949	-0.956055	0.641113	-0.116211	0.481228	-0.446220	-0.428033	-0.621366
23687		9.642388	1.029904	2.345875	0.014808	-0.000064	-0.002396	-0.951904	0.643311	-0.114014	0.481248	-0.446150	-0.428192	-0.621291
23688		9.615955	1.053011	2.287108	0.008963	-0.001482	-0.001183	-0.951904	0.645508	-0.114258	0.481250	-0.446139	-0.428305	-0.621219
23689		9.613312	1.051149	2.300414	0.007313	0.002948	0.000221	-0.962646	0.641113	-0.107422	0.481288	-0.446111	-0.428373	-0.621163
23690		9.608660	1.033404	2.289577	0.000964	0.002097	-0.001334	-0.956055	0.641113	-0.116211	0.481214	-0.446137	-0.428388	-0.621192
23691		9.618455	1.014636	2.324698	-0.000236	0.005139	0.002522	-0.958252	0.641113	-0.114014	0.481217	-0.446143	-0.428372	-0.621195
23692		9.625937	1.039920	2.332099	-0.000144	0.004669	0.001530	-0.949707	0.639160	-0.109619	0.481201	-0.446153	-0.428360	-0.621209
23693		9.634216	1.031254	2.326456	-0.001395	0.006412	0.001363	-0.949707	0.641113	-0.114014	0.481186	-0.446169	-0.428322	-0.621235
23694		9.640512	1.025547	2.342378	0.004936	0.005157	0.001292	-0.958252	0.641113	-0.114014	0.481218	-0.446145	-0.428349	-0.621209
23695		9.597077	1.022229	2.348579	0.001106	0.002927	0.001697	-0.951904	0.643311	-0.116211	0.481200	-0.446162	-0.428357	-0.621205
23696		9.610086	1.013328	2.307304	0.000163	0.002454	0.000951	-0.947510	0.641113	-0.109619	0.481197	-0.446179	-0.428371	-0.621186
23697		9.630160	1.022963	2.335272	0.003668	0.004795	-0.000502	-0.949707	0.643311	-0.114014	0.481200	-0.446168	-0.428393	-0.621177
23698		9.633164	1.030437	2.331169	-0.000438	0.003976	0.002878	-0.958252	0.643311	-0.112061	0.481216	-0.446194	-0.428378	-0.621156
23699		9.617773	1.043825	2.324709	0.000148	0.005366	0.000179	-0.949707	0.639160	-0.114014	0.481199	-0.446194	-0.428371	-0.621174
23700		9.620204	1.025261	2.337502	0.002920	0.005970	0.002099	-0.951904	0.645508	-0.109863	0.481222	-0.446179	-0.428372	-0.621166
23701		9.618001	1.027770	2.360106	0.004116	0.003409	0.001951	-0.953857	0.641113	-0.118408	0.481247	-0.446188	-0.428396	-0.621124
23702		9.626940	1.045280	2.337191	0.005004	0.003065	0.002379	-0.949707	0.641113	-0.114014	0.481277	-0.446173	-0.428437	-0.621083
23703		9.624933	1.029339	2.313179	0.004116	0.003409	0.001950	-0.958252	0.638916	-0.114014	0.481299	-0.446170	-0.428465	-0.621049
23704		9.609728	1.021938	2.331244	0.003607	0.004462	0.002884	-0.951904	0.645508	-0.118652	0.481304	-0.446166	-0.428474	-0.621041
23705		9.617323	1.047258	2.338176	0.002880	0.002241	0.002553	-0.951660	0.639160	-0.114014	0.481342	-0.446171	-0.428508	-0.620985
23706		9.633673	1.025044	2.316855	0.003808	0.005628	0.002525	-0.953857	0.638916	-0.111816	0.481365	-0.446157	-0.428514	-0.620973
23707		9.642499	1.021694	2.319753	0.001400	0.008644	0.001195	-0.947754	0.645508	-0.112061	0.481370	-0.446132	-0.428487	-0.621006
23708		9.622925	1.040659	2.357255	0.001576	0.008187	0.002916	-0.958252	0.638916	-0.114014	0.481428	-0.446118	-0.428461	-0.620989
23709		9.607670	1.014658	2.329836	0.005312	0.005869	0.002652	-0.947510	0.641113	-0.111816	0.481446	-0.446092	-0.428476	-0.620982
23710		9.591087	0.996892	2.331905	0.003953	0.005977	0.001849	-0.958252	0.638916	-0.114014	0.481477	-0.446078	-0.428483	-0.620964
23711		9.613584	1.029404	2.322209	-0.000563	0.005255	0.001466	-0.951660	0.639160	-0.116211	0.481451	-0.446086	-0.428463	-0.620993
23712		9.636160	1.041119	2.337350	0.003953	0.005977	0.001848	-0.953857	0.639160	-0.116211	0.481476	-0.446060	-0.428475	-0.620983
23713		9.637401	1.012059	2.333428	0.004114	0.003412	0.001948	-0.958252	0.641113	-0.116211	0.481485	-0.446052	-0.428504	-0.620962
23714		9.619480	1.022992	2.339965	0.000594	0.003984	0.002626	-0.954102	0.641113	-0.111816	0.481481	-0.446063	-0.428500	-0.620960
23715		9.612061	1.022795	2.318352	0.002031	0.006319	0.001662	-0.958008	0.636963	-0.115967	0.481488	-0.446056	-0.428490	-0.620967
23716		9.607638	1.048902	2.338122	0.002501	0.006557	0.002035	-0.945312	0.636963	-0.113770	0.481487	-0.446034	-0.428484	-0.620987
23717		9.611480	1.001389	2.346084	0.006815	0.006113	0.002776	-0.951660	0.639160	-0.114014	0.481534	-0.446003	-0.428507	-0.620957
23718		9.637875	1.046480	2.339572	0.002112	0.006335	0.004373	-0.951660	0.639160	-0.111816	0.481565	-0.446004	-0.428485	-0.620948
23719		9.633121	1.027565	2.329751	0.003294	0.006686	0.003453	-0.953857	0.639160	-0.118408	0.481589	-0.445998	-0.428470	-0.620944
23720		9.601917	1.028668	2.332854	0.001398	0.008650	0.001185	-0.951904	0.641113	-0.116211	0.481611	-0.445955	-0.428455	-0.620967
23721		9.622542	1.024418	2.323926	0.005175	0.007637	0.004942	-0.953857	0.641113	-0.120605	0.481683	-0.445925	-0.428452	-0.620936
23722		9.617423	1.045121	2.335865	0.004408	0.009132	0.001438	-0.949463	0.639160	-0.118408	0.481739	-0.445856	-0.428462	-0.620935
23723		9.640144	0.996618	2.354962	0.002674	0.006104	0.003752	-0.951904	0.643311	-0.111816	0.481782	-0.445842	-0.428457	-0.620915
23724		9.619408	1.025918	2.350548	0.004569	0.006566	0.001540	-0.960449	0.643311	-0.116211	0.481812	-0.445819	-0.428466	-0.620902
23725		9.623768	1.025537	2.317071	0.006168	0.006335	0.000678	-0.951904	0.641113	-0.118408	0.481838	-0.445770	-0.428502	-0.620893
23726		9.627248	1.017851	2.346541	0.005334	0.007499	0.000561	-0.956299	0.643311	-0.118408	0.481880	-0.445712	-0.428528	-0.620884
23727		9.611155	1.026505	2.332172	0.005132	0.006333	0.000921	-0.953857	0.641113	-0.120605	0.481917	-0.445665	-0.428559	-0.620868
23728		9.625978	1.033313	2.316268	0.004688	0.005293	0.002946	-0.954102	0.643311	-0.116211	0.481963	-0.445635	-0.428584	-0.620836
23729		9.619855	1.002123	2.360507	0.001101	0.002935	0.001688	-0.951904	0.641113	-0.114014	0.481963	-0.445649	-0.428595	-0.620817
23730		9.629543	1.024847	2.345686	0.001612	0.001880	0.000757	-0.951904	0.643311	-0.116211	0.481942	-0.445672	-0.428616	-0.620804
23731		9.640627	1.018644	2.326237	0.000792	0.005156	0.002258	-0.956055	0.641113	-0.111816	0.481962	-0.445674	-0.428609	-0.620791
