// Start Time: Unknown
// Update Rate: 40.0Hz
// Filter Profile: human (46.1)
// Firmware Version: 4.6.0
PacketCounter	SampleTimeFine	Acc_X	Acc_Y	Acc_Z	Gyr_X	Gyr_Y	Gyr_Z	Mag_X	Mag_Y	Mag_Z	Quat_q0	Quat_q1	Quat_q2	Quat_q3
23208		9.544306	-2.044709	0.621190	0.003995	0.004511	-0.006170	-0.612305	0.272705	-0.491699	0.728143	-0.179109	-0.660452	-0.039138
23209		9.575611	-2.060321	0.613608	0.003371	0.004454	-0.005576	-0.601807	0.274658	-0.486572	0.728184	-0.179030	-0.660425	-0.039171
23210		9.576879	-2.078644	0.612841	0.007815	0.001781	-0.002847	-0.605713	0.279297	-0.488281	0.728217	-0.178941	-0.660416	-0.039134
23211		9.563738	-2.061377	0.643877	0.002250	0.004970	-0.006121	-0.605225	0.278320	-0.488037	0.728259	-0.178869	-0.660386	-0.039182
23212		9.573427	-2.070025	0.654611	0.003394	0.002711	-0.006326	-0.602783	0.270996	-0.487793	0.728287	-0.178786	-0.660376	-0.039216
23213		9.565634	-2.036197	0.618692	0.002748	0.004395	-0.004981	-0.596191	0.273926	-0.487305	0.728330	-0.178720	-0.660344	-0.039245
23214		9.568033	-2.042962	0.599299	0.003764	0.001507	-0.003453	-0.604248	0.275146	-0.486328	0.728351	-0.178658	-0.660337	-0.039247
23215		9.576780	-2.053161	0.619344	0.001485	0.003112	-0.003899	-0.598389	0.270752	-0.490234	0.728377	-0.178614	-0.660319	-0.039275
23216		9.577493	-2.092909	0.635810	0.001473	0.001941	-0.004003	-0.603516	0.278320	-0.491699	0.728392	-0.178570	-0.660313	-0.039300
23217		9.549631	-2.081726	0.615658	0.002137	0.005508	-0.004282	-0.602539	0.277100	-0.490723	0.728439	-0.178524	-0.660273	-0.039324
23218		9.541830	-2.078884	0.596672	0.003491	0.003907	-0.007408	-0.606934	0.273438	-0.491699	0.728472	-0.178447	-0.660255	-0.039355
23219		9.558515	-2.069310	0.628944	0.003360	-0.000804	-0.006635	-0.604004	0.278809	-0.488281	0.728461	-0.178386	-0.660283	-0.039363
23220		9.587962	-2.035397	0.614960	0.000952	0.000171	-0.005350	-0.604492	0.278564	-0.484863	0.728454	-0.178365	-0.660295	-0.039377
23221		9.567959	-2.036006	0.623044	0.001543	0.000798	-0.005295	-0.599121	0.278076	-0.490723	0.728449	-0.178336	-0.660308	-0.039390
23222		9.567368	-2.066593	0.650225	-0.001243	0.005886	-0.006025	-0.601074	0.276855	-0.492676	0.728486	-0.178319	-0.660269	-0.039448
23223		9.542336	-2.072822	0.609144	0.001500	0.004279	-0.003792	-0.610840	0.279785	-0.491943	0.728520	-0.178298	-0.660236	-0.039456
23224		9.561919	-2.070835	0.611911	0.002114	0.003165	-0.004488	-0.598633	0.267090	-0.486328	0.728534	-0.178284	-0.660225	-0.039455
23225		9.569521	-2.061664	0.633678	0.003095	0.000850	-0.002314	-0.602051	0.277100	-0.495361	0.728537	-0.178245	-0.660234	-0.039420
23226		9.558016	-2.042734	0.644437	-0.000215	0.000086	-0.005353	-0.595947	0.271973	-0.485596	0.728533	-0.178242	-0.660238	-0.039437
23227		9.577894	-2.030245	0.637503	0.001878	0.000167	-0.001776	-0.605957	0.273438	-0.486816	0.728535	-0.178227	-0.660241	-0.039405
23228		9.563958	-2.076313	0.602707	0.002032	0.003135	-0.003298	-0.601562	0.270752	-0.492432	0.728547	-0.178205	-0.660235	-0.039397
23229		9.561853	-2.098640	0.640509	0.003781	0.002675	-0.003343	-0.600586	0.278076	-0.492188	0.728574	-0.178153	-0.660221	-0.039371
23230		9.541756	-2.068423	0.632419	0.002185	0.002021	-0.005780	-0.603027	0.272705	-0.491699	0.728595	-0.178139	-0.660202	-0.039372
23231		9.561355	-2.035321	0.618051	0.000851	0.001881	-0.003407	-0.606201	0.268066	-0.488525	0.728607	-0.178130	-0.660191	-0.039362
23232		9.551522	-2.045621	0.626394	0.001430	0.001337	-0.003457	-0.596436	0.275635	-0.485107	0.728599	-0.178087	-0.660212	-0.039350
23233		9.564587	-2.082010	0.614263	0.002079	-0.000349	-0.004799	-0.602295	0.277344	-0.499756	0.728593	-0.178074	-0.660223	-0.039339
23234		9.575685	-2.099804	0.613599	0.005554	0.000472	-0.004137	-0.608643	0.275879	-0.496826	0.728630	-0.178041	-0.660194	-0.039299
23235		9.570063	-2.073609	0.665267	0.002482	0.002700	-0.009886	-0.602783	0.269287	-0.483154	0.728645	-0.177989	-0.660189	-0.039341
23236		9.543612	-2.080774	0.643210	0.001786	0.003787	-0.008000	-0.602539	0.273193	-0.494873	0.728643	-0.177909	-0.660211	-0.039363
23237		9.554746	-2.035669	0.610048	0.005924	0.004091	-0.008575	-0.600830	0.284668	-0.485596	0.728701	-0.177813	-0.660173	-0.039362
23238		9.585047	-2.031343	0.604332	0.001716	0.004927	-0.006706	-0.604248	0.267334	-0.488770	0.728717	-0.177891	-0.660133	-0.039382
23239		9.564177	-2.032786	0.622755	0.006184	0.000526	-0.004725	-0.606689	0.270508	-0.487793	0.728711	-0.177762	-0.660177	-0.039339
23240		9.563632	-2.063510	0.649417	-0.005458	0.001458	-0.005217	-0.595947	0.277588	-0.492676	0.728669	-0.177770	-0.660217	-0.039407
23241		9.557691	-2.089957	0.626191	-0.000196	-0.002832	-0.006203	-0.599609	0.278076	-0.495361	0.728675	-0.177799	-0.660201	-0.039426
23242		9.566520	-2.068689	0.628756	-0.001356	0.002336	-0.005145	-0.598877	0.277588	-0.485596	0.728720	-0.177854	-0.660135	-0.039461
23243		9.566436	-2.046842	0.621959	0.004696	0.006318	-0.007179	-0.601562	0.282227	-0.486572	0.728757	-0.177843	-0.660097	-0.039464
23244		9.567299	-2.054883	0.622413	0.002830	0.003240	-0.006260	-0.604004	0.276855	-0.492920	0.728750	-0.177925	-0.660081	-0.039481
23245		9.558203	-2.074255	0.630140	0.002771	0.001471	-0.005822	-0.604248	0.273682	-0.490967	0.728760	-0.177930	-0.660068	-0.039497
23246		9.578421	-2.050510	0.614652	0.001590	0.000216	-0.005932	-0.608887	0.280273	-0.491943	0.728746	-0.177900	-0.660090	-0.039513
23247		9.570439	-2.058392	0.603559	0.000443	0.002472	-0.005729	-0.606934	0.273193	-0.495117	0.728721	-0.177982	-0.660093	-0.039562
23248		9.559420	-2.090276	0.639109	0.001048	0.000187	-0.006527	-0.598633	0.268311	-0.489014	0.728716	-0.177940	-0.660107	-0.039602
23249		9.574339	-2.009982	0.648505	-0.000041	0.004210	-0.006761	-0.597168	0.275879	-0.497559	0.728756	-0.177828	-0.660092	-0.039624
23250		9.571598	-2.043009	0.596481	-0.003514	0.003384	-0.007424	-0.601562	0.267578	-0.487305	0.728847	-0.177869	-0.659976	-0.039709
23251		9.544562	-2.072305	0.591420	0.003211	-0.000867	-0.004244	-0.605957	0.270020	-0.498535	0.728818	-0.177733	-0.660046	-0.039676
23252		9.551976	-2.073281	0.621685	0.001072	0.002525	-0.006317	-0.601318	0.271484	-0.487793	0.728869	-0.177626	-0.660016	-0.039715
23253		9.579690	-2.071976	0.644591	0.001711	0.003750	-0.006802	-0.591797	0.266602	-0.496826	0.728871	-0.177565	-0.660030	-0.039736
23254		9.568702	-2.031075	0.638335	-0.005262	0.003838	-0.007379	-0.600098	0.277588	-0.493164	0.729011	-0.177458	-0.659900	-0.039790
23255		9.534745	-2.047496	0.595019	0.001542	0.003697	-0.004427	-0.595459	0.271973	-0.498535	0.729058	-0.177533	-0.659827	-0.039802
23256		9.559816	-2.008241	0.621411	0.004776	0.001535	-0.001057	-0.607422	0.268799	-0.492920	0.729186	-0.177487	-0.659703	-0.039734
23257		9.572284	-2.035390	0.610631	-0.004974	0.003789	-0.003222	-0.605957	0.277588	-0.491699	0.729169	-0.177443	-0.659729	-0.039803
23258		9.565473	-2.094567	0.614681	-0.001607	0.002250	-0.001580	-0.604980	0.270508	-0.490479	0.729133	-0.177570	-0.659733	-0.039832
23259		9.581877	-2.044493	0.621682	-0.000330	0.004700	-0.002551	-0.609619	0.269531	-0.492676	0.729125	-0.177532	-0.659751	-0.039851
23260		9.556155	-2.083299	0.606636	0.005490	0.001616	-0.002833	-0.609619	0.261719	-0.493652	0.729091	-0.177406	-0.659823	-0.039833
23261		9.545102	-2.074257	0.617000	0.002618	0.002586	-0.003337	-0.600586	0.276855	-0.489990	0.729080	-0.177129	-0.659910	-0.039830
23262		9.542957	-2.065415	0.637682	0.001513	0.000187	-0.004739	-0.609619	0.272217	-0.493408	0.729057	-0.177228	-0.659908	-0.039844
23263		9.563908	-2.041145	0.612558	0.002028	0.001958	-0.003393	-0.603760	0.275635	-0.490234	0.729019	-0.177198	-0.659957	-0.039866
23264		9.575389	-2.079348	0.620536	0.001012	0.004834	-0.004917	-0.601074	0.272949	-0.489990	0.729012	-0.177267	-0.659944	-0.039906
23265		9.557664	-2.087892	0.609273	0.004551	0.003348	-0.005646	-0.605225	0.274658	-0.490723	0.729024	-0.177241	-0.659937	-0.039902
23266		9.546444	-2.057531	0.611563	0.001230	0.000231	-0.008893	-0.609131	0.267578	-0.498291	0.728969	-0.177256	-0.659990	-0.039969
23267		9.558235	-2.053484	0.592990	0.006708	-0.002952	-0.004427	-0.603516	0.281006	-0.489258	0.728964	-0.177054	-0.660051	-0.039938
23268		9.565873	-2.043823	0.614117	0.006235	-0.000047	-0.005355	-0.607422	0.272705	-0.492920	0.728906	-0.177227	-0.660069	-0.039943
23269		9.585273	-2.052115	0.625512	0.005056	0.003948	-0.004403	-0.604980	0.277588	-0.490234	0.728902	-0.177188	-0.660084	-0.039950
23270		9.572593	-2.044266	0.655686	0.001766	0.004338	-0.007336	-0.597168	0.275635	-0.498291	0.728873	-0.177294	-0.660083	-0.040016
23271		9.567277	-2.049042	0.616074	-0.000584	0.002997	-0.007454	-0.608887	0.273682	-0.490723	0.728994	-0.177367	-0.659926	-0.040075
23272		9.537805	-2.039465	0.614902	0.002165	0.002576	-0.005116	-0.600342	0.275879	-0.493652	0.728928	-0.177375	-0.659994	-0.040115
23273		9.560841	-2.075047	0.603986	0.003268	-0.000274	-0.004777	-0.602295	0.278564	-0.493896	0.728949	-0.177449	-0.659952	-0.040118
23274		9.578144	-2.064744	0.626757	0.002271	0.004938	-0.006092	-0.601318	0.269287	-0.483887	0.728988	-0.177583	-0.659870	-0.040168
23275		9.561310	-2.072345	0.605840	0.002176	0.003744	-0.005011	-0.597656	0.277100	-0.490723	0.728930	-0.177494	-0.659959	-0.040138
23276		9.569109	-2.051851	0.619524	0.005833	0.005791	-0.006609	-0.604980	0.270508	-0.495605	0.728993	-0.177579	-0.659867	-0.040143
23277		9.570660	-2.069600	0.619035	0.001132	0.003108	-0.006847	-0.597168	0.271729	-0.493164	0.729022	-0.177502	-0.659851	-0.040196
23278		9.550222	-2.091273	0.645364	0.004597	0.002769	-0.006283	-0.603516	0.272461	-0.496826	0.729099	-0.177458	-0.659780	-0.040182
23279		9.570215	-2.036191	0.613743	0.001811	0.003758	-0.007975	-0.605713	0.269287	-0.488281	0.729155	-0.177427	-0.659722	-0.040247
23280		9.570737	-2.065290	0.631576	0.001772	0.004330	-0.007330	-0.605713	0.275879	-0.488037	0.729102	-0.177321	-0.659808	-0.040275
23281		9.567294	-2.036690	0.654424	0.003204	0.002038	-0.003379	-0.601562	0.275635	-0.491211	0.729018	-0.177422	-0.659872	-0.040280
23282		9.570054	-2.032900	0.626342	0.002188	0.004910	-0.004903	-0.597412	0.270264	-0.485840	0.729035	-0.177518	-0.659827	-0.040309
23283		9.554733	-2.091036	0.620102	-0.000181	0.001230	-0.005231	-0.595215	0.268555	-0.485352	0.729003	-0.177498	-0.659868	-0.040292
23284		9.555232	-2.079017	0.611702	0.001669	0.001966	-0.006351	-0.597900	0.273193	-0.491943	0.729000	-0.177415	-0.659896	-0.040256
23285		9.563541	-2.078481	0.632750	0.001273	0.003722	-0.008568	-0.606934	0.274658	-0.497314	0.729050	-0.177440	-0.659830	-0.040307
23286		9.560381	-1.997256	0.621268	0.004562	0.003338	-0.005633	-0.597900	0.271484	-0.491211	0.729080	-0.177464	-0.659788	-0.040356
23287		9.570523	-2.026372	0.639653	0.000362	0.001260	-0.004633	-0.596680	0.276855	-0.489746	0.729103	-0.177482	-0.659758	-0.040359
23288		9.570226	-2.005253	0.632111	-0.002729	0.002752	-0.002129	-0.605469	0.278564	-0.496094	0.729113	-0.177712	-0.659682	-0.040396
23289		9.567366	-2.091652	0.614455	-0.001460	0.004029	-0.003200	-0.605469	0.267334	-0.493652	0.729124	-0.177926	-0.659606	-0.040494
23290		9.548083	-2.091970	0.613456	-0.000249	0.003542	-0.003836	-0.604004	0.267578	-0.490723	0.729130	-0.177794	-0.659635	-0.040506
23291		9.536779	-2.093541	0.632464	0.004320	0.000359	-0.002931	-0.606689	0.277344	-0.490723	0.729099	-0.177647	-0.659712	-0.040449
23292		9.562960	-2.031965	0.630970	0.004272	-0.000237	-0.002391	-0.601562	0.276367	-0.492920	0.729016	-0.177786	-0.659765	-0.040458
23293		9.565750	-2.069915	0.627953	0.001544	0.002514	-0.004519	-0.609375	0.279297	-0.495117	0.729027	-0.177915	-0.659716	-0.040502
23294		9.563940	-2.039809	0.631236	0.004378	0.002123	-0.003366	-0.600098	0.275879	-0.492920	0.728988	-0.178082	-0.659711	-0.040560
23295		9.568647	-2.065468	0.600349	0.002537	0.002555	-0.002142	-0.601807	0.276855	-0.490967	0.729017	-0.178205	-0.659645	-0.040565
23296		9.555549	-2.068992	0.638888	0.004379	0.002122	-0.003365	-0.606201	0.271729	-0.484131	0.729005	-0.178316	-0.659629	-0.040562
23297		9.544712	-2.090875	0.665504	-0.002665	-0.000735	-0.003626	-0.596191	0.280273	-0.498047	0.728848	-0.178311	-0.659804	-0.040545
23298		9.569638	-2.082944	0.609502	-0.001152	0.003519	-0.007396	-0.602051	0.276611	-0.493408	0.728961	-0.178570	-0.659601	-0.040686
23299		9.560674	-2.060590	0.591738	0.008112	0.001853	-0.006349	-0.603271	0.279541	-0.492676	0.728981	-0.178612	-0.659567	-0.040694
23300		9.565593	-2.053233	0.643313	0.004682	0.006862	-0.006497	-0.603027	0.271240	-0.492676	0.729007	-0.178757	-0.659495	-0.040758
23301		9.573315	-2.032579	0.657176	0.002864	0.004382	-0.006127	-0.600586	0.271973	-0.487793	0.729029	-0.178686	-0.659488	-0.040773
23302		9.568644	-2.047773	0.616784	0.000875	0.003029	-0.003285	-0.605957	0.277100	-0.493408	0.729004	-0.178671	-0.659523	-0.040734
23303		9.569661	-2.046024	0.607761	0.003792	0.001493	-0.003418	-0.597656	0.270020	-0.492920	0.728974	-0.178774	-0.659526	-0.040764
23304		9.558576	-2.078581	0.643672	0.003169	0.002608	-0.002727	-0.600098	0.278320	-0.489258	0.729037	-0.178716	-0.659475	-0.040724
23305		9.548759	-2.047326	0.626784	0.003309	0.003223	-0.004450	-0.605713	0.274658	-0.489014	0.729023	-0.178855	-0.659452	-0.040733
23306		9.569866	-2.053949	0.619112	-0.001409	0.004618	-0.003739	-0.606689	0.270752	-0.497070	0.728968	-0.178912	-0.659496	-0.040760
23307		9.560708	-2.074215	0.627061	0.003080	0.002586	-0.001542	-0.598633	0.273682	-0.491943	0.728994	-0.178864	-0.659480	-0.040769
23308		9.556120	-2.047333	0.659057	0.000180	0.000042	-0.002367	-0.599365	0.270508	-0.485107	0.729000	-0.178931	-0.659455	-0.040764
23309		9.552589	-2.092986	0.624934	-0.003186	0.001565	-0.004014	-0.606689	0.273438	-0.488525	0.728939	-0.178896	-0.659534	-0.040727
23310		9.560047	-2.083499	0.646444	0.000959	0.001880	-0.004572	-0.609131	0.270996	-0.491699	0.728858	-0.178891	-0.659625	-0.040733
23311		9.560303	-2.082083	0.647223	-0.001137	0.004679	-0.007287	-0.599365	0.273193	-0.493408	0.728815	-0.178813	-0.659689	-0.040797
23312		9.560516	-2.039005	0.622417	-0.001284	0.002894	-0.005669	-0.610107	0.279297	-0.496338	0.728855	-0.178854	-0.659631	-0.040851
23313		9.568890	-2.028396	0.634235	-0.001390	0.000536	-0.004694	-0.611572	0.275879	-0.493896	0.728801	-0.179040	-0.659632	-0.040980
23314		9.585216	-2.103331	0.618134	-0.004886	-0.003805	-0.005680	-0.600342	0.281494	-0.490967	0.728676	-0.179146	-0.659734	-0.041100
23315		9.552654	-2.076383	0.636634	0.003420	-0.000835	-0.006586	-0.602051	0.273926	-0.493408	0.728647	-0.179345	-0.659708	-0.041158
23316		9.551167	-2.035022	0.630153	0.002242	-0.002092	-0.006700	-0.594727	0.273438	-0.494385	0.728633	-0.179351	-0.659719	-0.041194
23317		9.539780	-2.046793	0.657322	-0.003185	0.001562	-0.004012	-0.605469	0.277832	-0.490479	0.728710	-0.179444	-0.659606	-0.041248
23318		9.563147	-2.072044	0.637873	-0.000287	0.004107	-0.003187	-0.604248	0.272949	-0.488281	0.728677	-0.179574	-0.659604	-0.041293
23319		9.578322	-2.064982	0.581353	-0.001922	0.001669	-0.005184	-0.615479	0.277344	-0.498047	0.728619	-0.179566	-0.659670	-0.041306
23320		9.567591	-2.086472	0.608210	0.004517	0.001568	-0.005183	-0.603271	0.268799	-0.489990	0.728573	-0.179622	-0.659699	-0.041411
23321		9.537204	-2.078091	0.616177	0.004545	-0.001343	-0.006035	-0.602539	0.276855	-0.493652	0.728539	-0.179456	-0.659785	-0.041357
23322		9.556239	-2.065725	0.618755	0.004496	-0.001938	-0.005495	-0.601807	0.274170	-0.490234	0.728527	-0.179526	-0.659777	-0.041386
23323		9.565389	-2.064455	0.629474	-0.002320	0.002247	-0.007501	-0.601807	0.276123	-0.489746	0.728511	-0.179557	-0.659782	-0.041448
23324		9.557592	-2.072220	0.618444	0.000514	0.001863	-0.006346	-0.602539	0.274902	-0.494629	0.728491	-0.179620	-0.659785	-0.041485
23325		9.579778	-2.077266	0.600561	0.001728	0.001376	-0.006978	-0.603027	0.268555	-0.492920	0.728513	-0.179655	-0.659747	-0.041554
23326		9.558231	-2.068944	0.619529	0.008125	0.001851	-0.006332	-0.607910	0.272705	-0.480957	0.728546	-0.179468	-0.659765	-0.041507
23327		9.563694	-2.029570	0.643967	0.004704	0.001605	-0.007543	-0.596924	0.285156	-0.498535	0.728409	-0.179347	-0.659953	-0.041438
23328		9.560487	-2.074273	0.610245	0.001098	0.001320	-0.006391	-0.600830	0.275879	-0.490723	0.728491	-0.179683	-0.659762	-0.041594
23329		9.562899	-2.101904	0.608010	0.001049	0.000725	-0.005852	-0.602295	0.274170	-0.487305	0.728480	-0.179746	-0.659754	-0.041624
23330		9.577668	-2.030994	0.617024	0.007173	0.007641	-0.008181	-0.604736	0.271484	-0.487549	0.728501	-0.179664	-0.659755	-0.041598
23331		9.577591	-2.050312	0.636552	0.001218	0.006010	-0.007154	-0.601074	0.280273	-0.486084	0.728484	-0.179577	-0.659798	-0.041599
23332		9.552015	-2.067977	0.613541	0.003530	0.000345	-0.007653	-0.600586	0.271240	-0.497803	0.728422	-0.179698	-0.659831	-0.041624
23333		9.560277	-2.015435	0.599393	0.007971	-0.002269	-0.004917	-0.598633	0.273926	-0.491943	0.728479	-0.179626	-0.659789	-0.041613
23334		9.569885	-2.034725	0.618218	0.003352	0.001474	-0.005185	-0.597656	0.273193	-0.491943	0.728510	-0.179641	-0.659750	-0.041614
23335		9.578537	-2.054884	0.647924	-0.000027	0.009403	-0.005670	-0.602051	0.271240	-0.493164	0.728607	-0.179662	-0.659634	-0.041659
23336		9.552999	-2.062301	0.617317	-0.003448	0.009154	-0.006882	-0.603027	0.272217	-0.486572	0.728674	-0.179648	-0.659559	-0.041745
23337		9.545705	-2.090321	0.615671	0.001271	0.006598	-0.007688	-0.600342	0.274902	-0.490479	0.728661	-0.179578	-0.659593	-0.041747
23338		9.553890	-2.037663	0.602680	0.003455	0.002659	-0.006259	-0.605957	0.266846	-0.497314	0.728670	-0.179594	-0.659578	-0.041758
23339		9.554567	-2.067028	0.619942	-0.000072	0.000056	-0.006500	-0.602783	0.277344	-0.489746	0.728683	-0.179457	-0.659598	-0.041800
23340		9.564453	-2.075218	0.630131	0.004765	0.002191	-0.008070	-0.603027	0.269775	-0.487305	0.728661	-0.179499	-0.659608	-0.041834
23341		9.560514	-2.014998	0.635610	0.001828	0.000215	-0.008253	-0.605713	0.275391	-0.492920	0.728608	-0.179377	-0.659701	-0.041815
23342		9.546726	-2.071734	0.619506	-0.001714	0.004025	-0.007331	-0.600586	0.272217	-0.488525	0.728600	-0.179443	-0.659686	-0.041918
23343		9.585972	-2.056936	0.615426	0.002291	0.003736	-0.006163	-0.606445	0.274414	-0.488281	0.728603	-0.179406	-0.659693	-0.041909
23344		9.582242	-2.028169	0.638320	0.004585	0.003321	-0.005602	-0.604736	0.277588	-0.492920	0.728561	-0.179391	-0.659744	-0.041907
23345		9.574943	-2.056698	0.635638	-0.002539	0.002766	-0.004489	-0.600586	0.274414	-0.487305	0.728545	-0.179545	-0.659713	-0.042005
23346		9.546704	-2.077410	0.641473	0.000137	0.003590	-0.008544	-0.610107	0.267334	-0.482910	0.728528	-0.179554	-0.659727	-0.042044
23347		9.559623	-2.061538	0.605258	0.000039	0.002404	-0.007468	-0.601318	0.275635	-0.491211	0.728413	-0.179368	-0.659907	-0.042005
23348		9.584581	-1.999907	0.613675	0.002727	0.001417	-0.004593	-0.604004	0.276123	-0.488281	0.728414	-0.179433	-0.659887	-0.042026
23349		9.585183	-2.029750	0.631080	0.002683	0.001992	-0.003950	-0.598633	0.271484	-0.486328	0.728377	-0.179502	-0.659908	-0.042037
23350		9.568030	-2.069735	0.635979	-0.001371	0.001686	-0.004581	-0.595459	0.272461	-0.496582	0.728357	-0.179497	-0.659933	-0.042021
23351		9.538573	-2.050245	0.625658	0.001611	0.003086	-0.005037	-0.589111	0.280518	-0.494385	0.728459	-0.179511	-0.659814	-0.042046
23352		9.540701	-2.036814	0.598228	0.002638	0.002567	-0.003307	-0.599854	0.277100	-0.489990	0.728568	-0.179738	-0.659630	-0.042095
23353		9.569573	-2.055333	0.619588	0.005471	0.002191	-0.002150	-0.610840	0.281494	-0.485352	0.728577	-0.179822	-0.659598	-0.042073
23354		9.570962	-2.084721	0.627810	0.002015	0.004848	-0.002514	-0.610596	0.268799	-0.488770	0.728483	-0.179988	-0.659654	-0.042112
23355		9.562288	-2.083662	0.618055	0.003268	0.001451	-0.003995	-0.600098	0.272705	-0.492188	0.728416	-0.179838	-0.659773	-0.042051
23356		9.557145	-2.025139	0.633401	0.004002	0.002689	-0.005653	-0.600830	0.277100	-0.488281	0.728450	-0.179805	-0.659744	-0.042049
23357		9.560626	-2.041556	0.613377	0.004451	0.003876	-0.003773	-0.608887	0.271973	-0.496338	0.728452	-0.179877	-0.659723	-0.042047
23358		9.577650	-2.021216	0.627895	0.001242	0.005352	-0.000108	-0.604492	0.278809	-0.488281	0.728481	-0.179885	-0.659687	-0.042058
23359		9.580632	-2.059802	0.625292	-0.001026	0.000518	-0.001729	-0.603027	0.271240	-0.488770	0.728417	-0.180050	-0.659711	-0.042095
23360		9.549672	-2.073762	0.650583	0.000141	-0.000559	-0.001821	-0.602051	0.269531	-0.500488	0.728375	-0.180027	-0.659767	-0.042047
23361		9.562236	-2.069648	0.622646	-0.000197	0.001772	-0.004567	-0.600830	0.272461	-0.484375	0.728449	-0.179982	-0.659694	-0.042092
23362		9.563282	-2.067864	0.613744	0.004356	0.003859	-0.002592	-0.607910	0.267822	-0.490479	0.728430	-0.179938	-0.659733	-0.042009
23363		9.560972	-2.048532	0.626412	0.005629	0.005132	-0.003654	-0.603271	0.267822	-0.489990	0.728434	-0.179768	-0.659779	-0.041937
23364		9.561665	-2.067898	0.635941	-0.004860	0.007246	-0.004096	-0.607910	0.274658	-0.485596	0.728456	-0.179702	-0.659772	-0.041951
23365		9.555263	-2.095750	0.624155	-0.000718	0.005235	-0.004849	-0.599365	0.275879	-0.490234	0.728397	-0.179739	-0.659824	-0.041993
23366		9.566257	-2.082310	0.607310	0.001069	0.000709	-0.005837	-0.596680	0.273682	-0.490234	0.728392	-0.179802	-0.659811	-0.042028
23367		9.543129	-2.054896	0.626828	0.005685	-0.005357	-0.005770	-0.607666	0.272949	-0.496582	0.728366	-0.179782	-0.659847	-0.041984
23368		9.570247	-2.022557	0.631658	0.006141	-0.001835	-0.003682	-0.602783	0.272705	-0.495850	0.728355	-0.179739	-0.659873	-0.041966
23369		9.572044	-2.030605	0.621548	0.003135	0.003176	-0.002065	-0.604980	0.276611	-0.492432	0.728403	-0.179740	-0.659820	-0.041955
23370		9.553151	-2.062279	0.637649	-0.000323	0.005830	-0.002433	-0.604492	0.268555	-0.490479	0.728420	-0.179846	-0.659769	-0.042008
23371		9.566050	-2.089367	0.627522	-0.001600	0.003389	-0.001475	-0.596191	0.281738	-0.493652	0.728415	-0.179793	-0.659791	-0.041975
23372		9.554023	-2.070910	0.638564	-0.000823	0.002882	-0.003878	-0.609619	0.280029	-0.493164	0.728458	-0.180018	-0.659676	-0.042066
23373		9.581989	-2.027702	0.625923	0.001273	0.001273	-0.001061	-0.597168	0.272949	-0.499023	0.728414	-0.180180	-0.659677	-0.042123
23374		9.566632	-2.066449	0.611354	-0.003218	0.002109	-0.003367	-0.604248	0.274658	-0.489258	0.728491	-0.180249	-0.659569	-0.042184
23375		9.535574	-2.090690	0.645745	0.003756	-0.000273	-0.002960	-0.597412	0.273926	-0.491943	0.728450	-0.180256	-0.659615	-0.042152
23376		9.551462	-2.029577	0.642892	-0.001567	-0.000688	-0.002429	-0.604736	0.271240	-0.491211	0.728454	-0.180321	-0.659593	-0.042153
23377		9.575393	-2.033673	0.605371	-0.000289	0.001752	-0.003386	-0.600342	0.276855	-0.493164	0.728437	-0.180291	-0.659620	-0.042147
23378		9.569707	-2.071814	0.592107	0.001820	0.003645	-0.000256	-0.601807	0.278809	-0.497070	0.728473	-0.180396	-0.659551	-0.042146
23379		9.558770	-2.094478	0.619316	0.000643	0.002387	-0.000374	-0.601318	0.281494	-0.488525	0.728511	-0.180554	-0.659463	-0.042192
23380		9.554710	-2.066803	0.641582	0.003711	0.000303	-0.002318	-0.595459	0.277100	-0.492432	0.728477	-0.180697	-0.659461	-0.042195
23381		9.539250	-2.115911	0.636246	0.000943	0.004767	-0.003701	-0.601562	0.272705	-0.493652	0.728539	-0.180785	-0.659367	-0.042223
23382		9.569587	-2.101109	0.621982	0.005290	0.005122	-0.006600	-0.607422	0.274902	-0.487549	0.728592	-0.180712	-0.659328	-0.042225
23383		9.567872	-2.049317	0.607492	0.004537	-0.000781	-0.005360	-0.604248	0.274414	-0.495850	0.728517	-0.180671	-0.659425	-0.042195
23384		9.564691	-2.040756	0.637315	-0.000004	-0.000539	-0.007129	-0.604736	0.282227	-0.488770	0.728508	-0.180684	-0.659426	-0.042266
23385		9.548048	-2.059323	0.623880	0.003217	-0.001478	-0.003657	-0.602295	0.275635	-0.493896	0.728440	-0.180823	-0.659461	-0.042292
23386		9.576395	-2.057204	0.636800	0.003280	0.002613	-0.003881	-0.603516	0.278809	-0.496094	0.728464	-0.180852	-0.659426	-0.042309
23387		9.557200	-2.057396	0.635817	-0.003548	0.005598	-0.006006	-0.603271	0.275391	-0.499756	0.728498	-0.180992	-0.659341	-0.042451
23388		9.544805	-2.092699	0.592525	0.000441	0.000650	-0.005249	-0.605469	0.270264	-0.491699	0.728530	-0.181058	-0.659282	-0.042547
23389		9.567582	-2.043409	0.628463	0.003410	-0.002616	-0.006117	-0.610596	0.273438	-0.496338	0.728483	-0.180951	-0.659364	-0.042517
23390		9.558966	-2.052466	0.626409	0.000975	-0.000480	-0.004757	-0.604248	0.281982	-0.493408	0.728449	-0.180955	-0.659398	-0.042576
23391		9.570372	-2.070271	0.626213	0.002014	0.003674	-0.002611	-0.598877	0.276855	-0.490723	0.728456	-0.181115	-0.659341	-0.042637
23392		9.551905	-2.080281	0.624847	-0.001732	0.008072	-0.006364	-0.602051	0.273193	-0.498291	0.728508	-0.181175	-0.659264	-0.042702
23393		9.545787	-2.097320	0.604355	0.002164	0.004278	-0.004325	-0.603271	0.275879	-0.488770	0.728572	-0.181188	-0.659185	-0.042756
23394		9.563029	-2.065764	0.609355	0.004444	-0.000797	-0.004177	-0.603516	0.266602	-0.495117	0.728530	-0.181176	-0.659239	-0.042712
23395		9.560654	-2.056765	0.629392	0.003268	-0.002056	-0.004295	-0.600830	0.279053	-0.492676	0.728524	-0.181046	-0.659283	-0.042670
23396		9.543101	-2.076335	0.625756	-0.000678	0.001146	-0.005798	-0.604004	0.271729	-0.485352	0.728519	-0.181149	-0.659256	-0.042738
23397		9.574296	-2.070915	0.610116	0.000655	0.005342	-0.007184	-0.595459	0.279541	-0.491455	0.728499	-0.181054	-0.659306	-0.042712
23398		9.572075	-2.050734	0.622887	0.002954	0.006100	-0.006515	-0.605469	0.270020	-0.487305	0.728562	-0.181124	-0.659214	-0.042750
23399		9.561685	-2.050969	0.632636	0.000986	0.001851	-0.004546	-0.597900	0.274170	-0.496826	0.728521	-0.181029	-0.659289	-0.042699
23400		9.543326	-2.060983	0.629847	0.002683	-0.002685	-0.004353	-0.611816	0.272949	-0.489746	0.728539	-0.181049	-0.659263	-0.042705
23401		9.563906	-2.057459	0.621913	-0.001263	0.000514	-0.005855	-0.601318	0.281982	-0.492920	0.728461	-0.181027	-0.659354	-0.042743
23402		9.563113	-2.067617	0.640853	0.002210	0.002532	-0.005067	-0.606689	0.275391	-0.489502	0.728470	-0.181158	-0.659303	-0.042807
23403		9.564164	-2.075827	0.640965	0.000069	0.004709	-0.007241	-0.601562	0.272217	-0.484863	0.728452	-0.181154	-0.659321	-0.042856
23404		9.547651	-2.083788	0.619864	-0.000179	0.004091	-0.004350	-0.608643	0.280029	-0.481445	0.728432	-0.181106	-0.659359	-0.042808
23405		9.555140	-2.052959	0.623938	0.002694	0.000814	-0.004038	-0.604248	0.278076	-0.484863	0.728327	-0.181157	-0.659463	-0.042787
23406		9.571256	-2.033041	0.647137	0.002007	0.000171	-0.002920	-0.599609	0.276123	-0.485352	0.728262	-0.181208	-0.659523	-0.042759
23407		9.571774	-2.106945	0.601368	-0.003697	0.003814	-0.004393	-0.603271	0.274658	-0.497803	0.728243	-0.181269	-0.659526	-0.042779
23408		9.573848	-2.103966	0.582608	0.002846	0.001417	-0.005750	-0.600342	0.277344	-0.492920	0.728275	-0.181272	-0.659486	-0.042823
23409		9.555810	-2.059397	0.634256	0.007915	-0.002278	-0.003696	-0.604248	0.284424	-0.485352	0.728272	-0.181283	-0.659490	-0.042783
23410		9.551665	-2.074718	0.593177	0.001139	0.002451	-0.006256	-0.602051	0.267822	-0.482422	0.728219	-0.181423	-0.659505	-0.042851
23411		9.561486	-2.083199	0.603763	0.003386	0.002622	-0.005049	-0.606934	0.274902	-0.489014	0.728188	-0.181244	-0.659597	-0.042722
23412		9.570604	-2.071490	0.606360	-0.000666	0.003471	-0.005584	-0.604736	0.276123	-0.485107	0.728161	-0.181251	-0.659623	-0.042756
23413		9.550436	-2.083054	0.623499	-0.001256	0.001675	-0.005748	-0.596924	0.276611	-0.492432	0.728104	-0.181276	-0.659677	-0.042777
23414		9.580923	-2.057474	0.599684	0.003438	0.003211	-0.005584	-0.594482	0.281494	-0.489746	0.728151	-0.181298	-0.659618	-0.042788
23415		9.550388	-2.049404	0.607904	0.004607	0.000970	-0.005777	-0.608154	0.277100	-0.482666	0.728172	-0.181392	-0.659568	-0.042812
23416		9.561068	-2.067516	0.617080	0.000499	-0.001104	-0.005985	-0.605957	0.269043	-0.491211	0.728066	-0.181402	-0.659682	-0.042813
23417		9.543711	-2.076462	0.604624	0.005678	-0.000117	-0.004689	-0.607422	0.276611	-0.494385	0.728050	-0.181258	-0.659744	-0.042730
23418		9.563256	-2.074039	0.607258	0.006707	0.002873	-0.002649	-0.606445	0.269043	-0.487793	0.728066	-0.181268	-0.659726	-0.042718
23419		9.562389	-2.084280	0.627220	0.001252	0.007123	-0.007012	-0.605225	0.274902	-0.479736	0.728077	-0.181137	-0.659751	-0.042695
23420		9.553861	-2.092747	0.626660	0.001982	0.002521	-0.009183	-0.603271	0.270020	-0.492920	0.728004	-0.181079	-0.659847	-0.042699
23421		9.561763	-2.039590	0.612926	0.003691	0.001487	-0.008676	-0.604492	0.282959	-0.489990	0.728017	-0.180949	-0.659869	-0.042681
23422		9.562032	-2.048355	0.621902	0.002847	-0.002089	-0.006055	-0.606445	0.269531	-0.487793	0.727962	-0.181081	-0.659888	-0.042759
23423		9.581721	-2.045396	0.623953	-0.001201	0.002257	-0.006281	-0.606201	0.273926	-0.493652	0.727930	-0.180997	-0.659948	-0.042746
23424		9.567024	-2.062237	0.592002	-0.001249	0.004000	-0.005536	-0.604492	0.279785	-0.488281	0.727941	-0.181008	-0.659929	-0.042794
23425		9.553944	-2.054618	0.621884	-0.001246	0.005166	-0.005432	-0.600586	0.270996	-0.489990	0.727933	-0.181119	-0.659902	-0.042881
23426		9.554995	-2.062927	0.622170	0.002322	0.003701	-0.006129	-0.609863	0.268555	-0.492432	0.727958	-0.181038	-0.659898	-0.042849
23427		9.549789	-2.100205	0.608969	0.001045	0.001264	-0.005177	-0.601807	0.273193	-0.487305	0.727935	-0.180933	-0.659955	-0.042821
23428		9.555416	-2.070824	0.631842	0.003974	-0.001419	-0.005398	-0.601562	0.274902	-0.489258	0.727899	-0.180887	-0.660010	-0.042777
23429		9.563890	-2.038614	0.625334	0.003489	-0.002038	-0.006632	-0.594727	0.272217	-0.493164	0.727867	-0.180867	-0.660052	-0.042768
23430		9.547323	-2.067821	0.620532	0.004458	-0.003134	-0.004370	-0.602539	0.282471	-0.489746	0.727885	-0.180816	-0.660051	-0.042690
23431		9.576647	-2.064389	0.623391	0.001631	0.000726	-0.005220	-0.604736	0.269531	-0.489990	0.727862	-0.180955	-0.660032	-0.042766
23432		9.581202	-2.100572	0.611639	0.006100	0.006922	-0.008757	-0.604736	0.272949	-0.479736	0.727905	-0.180793	-0.660032	-0.042731
23433		9.568520	-2.060484	0.615570	0.003651	0.005556	-0.007716	-0.601318	0.271973	-0.490234	0.727872	-0.180724	-0.660088	-0.042721
23434		9.547696	-2.051307	0.625394	0.004773	0.003894	-0.007268	-0.600098	0.277100	-0.488525	0.727901	-0.180637	-0.660082	-0.042693
23435		9.575266	-2.038566	0.639957	0.002325	0.003696	-0.006125	-0.602051	0.276855	-0.490967	0.727914	-0.180674	-0.660055	-0.042723
23436		9.557186	-2.027334	0.619584	0.003290	-0.003229	-0.004382	-0.605469	0.277344	-0.487549	0.727877	-0.180715	-0.660085	-0.042718
23437		9.581058	-2.062938	0.608040	0.000738	-0.003437	-0.002065	-0.605957	0.275879	-0.488525	0.727801	-0.180803	-0.660144	-0.042722
23438		9.552019	-2.085475	0.622657	0.000462	0.001795	-0.005129	-0.602783	0.275635	-0.489502	0.727772	-0.180839	-0.660165	-0.042754
23439		9.552264	-2.084082	0.623561	-0.000556	0.005797	-0.006544	-0.603027	0.275635	-0.490723	0.727793	-0.180867	-0.660131	-0.042808
23440		9.533376	-2.052505	0.596324	0.005745	0.005132	-0.004796	-0.606201	0.277344	-0.485352	0.727828	-0.180852	-0.660097	-0.042794
23441		9.556464	-2.077630	0.587655	0.003655	0.004385	-0.007815	-0.600586	0.282227	-0.494629	0.727806	-0.180858	-0.660116	-0.042838
23442		9.582250	-2.066302	0.621133	0.008297	-0.001659	-0.007731	-0.602783	0.279297	-0.493164	0.727813	-0.180919	-0.660088	-0.042888
23443		9.562489	-2.045896	0.610918	0.004571	-0.001961	-0.005432	-0.606445	0.269775	-0.486328	0.727796	-0.180982	-0.660088	-0.042920
23444		9.561020	-2.035656	0.621189	0.001689	-0.001026	-0.005956	-0.598145	0.280762	-0.492676	0.727740	-0.180887	-0.660179	-0.042867
23445		9.553306	-2.054358	0.619267	0.002915	0.005487	-0.005957	-0.602783	0.273682	-0.492188	0.727797	-0.180986	-0.660085	-0.042939
23446		9.575494	-2.080256	0.620331	-0.000450	0.005800	-0.007716	-0.607666	0.272217	-0.492676	0.727832	-0.180974	-0.660046	-0.042990
23447		9.553894	-2.050780	0.622055	0.001950	0.005409	-0.008320	-0.599121	0.271973	-0.492676	0.727853	-0.180908	-0.660039	-0.043021
23448		9.575380	-2.056112	0.615012	0.002486	0.005451	-0.007723	-0.606934	0.274902	-0.478027	0.727911	-0.180845	-0.659993	-0.043024
23449		9.554393	-2.068029	0.642497	0.004835	0.003307	-0.007895	-0.598145	0.270996	-0.495850	0.727846	-0.180786	-0.660081	-0.043007
23450		9.554925	-2.044869	0.625668	0.004888	0.002727	-0.008533	-0.603516	0.274902	-0.491699	0.727907	-0.180684	-0.660043	-0.042985
23451		9.574528	-2.051943	0.638042	0.004784	0.007381	-0.006944	-0.596191	0.272461	-0.484863	0.727959	-0.180653	-0.659993	-0.043002
23452		9.563452	-2.010844	0.622504	0.000416	0.005862	-0.004175	-0.603027	0.266846	-0.491943	0.727988	-0.180646	-0.659965	-0.042971
23453		9.567995	-2.047653	0.611147	-0.003002	0.006752	-0.005296	-0.599609	0.269531	-0.494141	0.728029	-0.180565	-0.659944	-0.042951
23454		9.577800	-2.056194	0.622059	0.001644	0.001880	-0.005105	-0.604492	0.269287	-0.486816	0.728061	-0.180492	-0.659931	-0.042902
23455		9.557800	-2.046882	0.621184	0.001006	0.000663	-0.004631	-0.604980	0.282227	-0.489258	0.728026	-0.180428	-0.659990	-0.042855
23456		9.551034	-2.065034	0.609177	-0.001877	0.001595	-0.005157	-0.601562	0.271240	-0.494385	0.727990	-0.180596	-0.659977	-0.042972
23457		9.560831	-2.073775	0.619602	0.004422	0.002105	-0.003301	-0.601807	0.271240	-0.486084	0.728023	-0.180540	-0.659960	-0.042904
23458		9.557418	-2.054750	0.641662	-0.005673	0.007696	-0.008167	-0.599854	0.287598	-0.492188	0.728035	-0.180536	-0.659943	-0.042972
23459		9.561366	-2.060336	0.613206	0.001058	0.004745	-0.004853	-0.607910	0.277344	-0.494873	0.728062	-0.180761	-0.659843	-0.043110
23460		9.557057	-2.031750	0.635760	0.003408	0.001439	-0.005128	-0.602295	0.273438	-0.491699	0.728057	-0.180794	-0.659838	-0.043143
23461		9.560028	-2.038652	0.616020	0.002077	0.000749	-0.003439	-0.600586	0.271973	-0.498779	0.728054	-0.180794	-0.659842	-0.043115
23462		9.574235	-2.085571	0.613418	-0.000324	0.001137	-0.002836	-0.601318	0.272461	-0.487793	0.728092	-0.180801	-0.659799	-0.043096
23463		9.570728	-2.067068	0.634943	0.005650	0.002787	-0.003815	-0.602295	0.273682	-0.497559	0.728100	-0.180747	-0.659810	-0.043028
23464		9.560213	-2.078070	0.653685	-0.000010	0.005821	-0.005938	-0.601562	0.278809	-0.489746	0.728161	-0.180747	-0.659741	-0.043060
23465		9.559683	-2.045859	0.638039	0.005809	0.004545	-0.005416	-0.595459	0.275879	-0.493896	0.728184	-0.180776	-0.659707	-0.043072
23466		9.540468	-2.056711	0.645868	-0.000112	0.002316	-0.005076	-0.600586	0.271973	-0.486084	0.728222	-0.180822	-0.659651	-0.043091
23467		9.568049	-2.012845	0.633236	0.004373	0.001518	-0.002762	-0.601318	0.284180	-0.492920	0.728211	-0.180780	-0.659680	-0.043010
23468		9.590180	-2.029291	0.624757	0.001865	0.003064	-0.000885	-0.604492	0.281982	-0.489746	0.728226	-0.180964	-0.659609	-0.043064
23469		9.556788	-2.090263	0.616949	-0.003261	0.004975	-0.002518	-0.608154	0.269775	-0.493896	0.728220	-0.181140	-0.659562	-0.043159
23470		9.537551	-2.091174	0.615373	0.006725	-0.001787	-0.003036	-0.606201	0.277832	-0.499268	0.728196	-0.181042	-0.659622	-0.043064
23471		9.545641	-2.070165	0.617913	0.006138	-0.001253	-0.002993	-0.609375	0.281494	-0.491699	0.728200	-0.181078	-0.659607	-0.043060
23472		9.554622	-2.058740	0.619916	0.005656	0.000453	-0.004018	-0.603760	0.273682	-0.492676	0.728167	-0.181151	-0.659622	-0.043089
23473		9.583862	-2.055270	0.623347	-0.001338	0.001632	-0.004560	-0.605957	0.276367	-0.490479	0.728160	-0.181174	-0.659622	-0.043109
23474		9.566652	-2.054007	0.602052	-0.001283	-0.000113	-0.005301	-0.594482	0.285400	-0.488770	0.728118	-0.181223	-0.659651	-0.043150
23475		9.565057	-2.043925	0.612813	0.002238	0.002504	-0.005038	-0.597168	0.270508	-0.488770	0.728135	-0.181376	-0.659587	-0.043219
23476		9.544096	-2.025052	0.613234	0.004479	0.003854	-0.003725	-0.601318	0.278809	-0.490479	0.728170	-0.181298	-0.659575	-0.043131
23477		9.567101	-2.071638	0.622543	0.002287	0.006584	-0.005260	-0.602539	0.274658	-0.491455	0.728207	-0.181348	-0.659518	-0.043171
23478		9.577007	-2.059192	0.615728	0.004430	0.000937	-0.003397	-0.598877	0.278809	-0.489014	0.728206	-0.181338	-0.659524	-0.043131
23479		9.577174	-2.058383	0.615845	0.000856	-0.001102	-0.003023	-0.603027	0.278320	-0.490479	0.728180	-0.181421	-0.659530	-0.043135
23480		9.555985	-2.081871	0.651021	0.002188	0.000751	-0.004606	-0.604736	0.272461	-0.488770	0.728162	-0.181470	-0.659534	-0.043153
23481		9.554490	-2.050698	0.644129	-0.000056	0.002896	-0.005608	-0.600098	0.271973	-0.495361	0.728149	-0.181439	-0.659559	-0.043145
23482		9.546890	-2.048702	0.624811	0.000954	0.005895	-0.003572	-0.590820	0.280029	-0.496094	0.728209	-0.181428	-0.659496	-0.043133
23483		9.557637	-2.046128	0.617420	0.003307	0.003756	-0.003741	-0.595947	0.276611	-0.487549	0.728287	-0.181519	-0.659383	-0.043160
23484		9.566467	-2.055629	0.637986	0.001653	0.003035	-0.004992	-0.597412	0.270020	-0.488770	0.728301	-0.181538	-0.659363	-0.043151
23485		9.568557	-2.063188	0.628200	-0.000641	0.002263	-0.005668	-0.602539	0.278076	-0.496826	0.728308	-0.181482	-0.659373	-0.043112
23486		9.551305	-2.082745	0.624898	0.002941	-0.000358	-0.006454	-0.602783	0.275879	-0.487793	0.728310	-0.181518	-0.659358	-0.043158
23487		9.558566	-2.061806	0.637071	0.001181	-0.001086	-0.006534	-0.608887	0.272461	-0.488770	0.728265	-0.181516	-0.659408	-0.043162
23488		9.568655	-2.038470	0.620293	0.001658	0.000704	-0.005198	-0.605469	0.271729	-0.493896	0.728222	-0.181471	-0.659470	-0.043138
23489		9.562977	-2.055641	0.598609	0.001125	0.000658	-0.005793	-0.601318	0.270264	-0.489990	0.728211	-0.181431	-0.659493	-0.043132
23490		9.579622	-2.076331	0.647708	-0.002453	0.000949	-0.005214	-0.604736	0.279053	-0.493896	0.728195	-0.181403	-0.659519	-0.043116
23491		9.569430	-2.044990	0.629694	0.001181	0.000078	-0.006429	-0.602539	0.268799	-0.489746	0.728178	-0.181458	-0.659520	-0.043175
23492		9.541667	-2.045095	0.617236	0.000002	0.002311	-0.006241	-0.603516	0.279541	-0.492188	0.728174	-0.181378	-0.659548	-0.043140
23493		9.554384	-2.051173	0.598454	-0.000906	0.000499	-0.002894	-0.599365	0.280762	-0.491699	0.728154	-0.181485	-0.659538	-0.043182
23494		9.601873	-2.057810	0.622435	0.001388	0.001272	-0.002218	-0.604004	0.267334	-0.489502	0.728158	-0.181592	-0.659502	-0.043201
23495		9.571131	-2.040254	0.621350	-0.001443	0.002783	-0.003282	-0.604248	0.270264	-0.487061	0.728152	-0.181527	-0.659531	-0.043140
23496		9.535268	-2.092805	0.632944	-0.001328	-0.000707	-0.004763	-0.601074	0.281494	-0.485107	0.728103	-0.181487	-0.659599	-0.043105
23497		9.530836	-2.064322	0.654761	0.002191	0.001913	-0.004497	-0.605225	0.272217	-0.492188	0.728079	-0.181569	-0.659600	-0.043135
23498		9.562933	-2.068622	0.638056	0.001075	0.000071	-0.005257	-0.606445	0.277588	-0.496094	0.728060	-0.181535	-0.659633	-0.043117
23499		9.584510	-2.053319	0.612377	0.002350	0.003668	-0.006096	-0.602295	0.267334	-0.486328	0.728081	-0.181557	-0.659601	-0.043162
23500		9.565449	-2.053406	0.611101	0.002409	0.001922	-0.006836	-0.601074	0.267578	-0.489502	0.728068	-0.181426	-0.659656	-0.043089
23501		9.545387	-2.065007	0.628052	0.001662	0.000701	-0.005194	-0.596924	0.276611	-0.493408	0.728061	-0.181325	-0.659695	-0.043011
23502		9.556265	-2.072495	0.628547	0.004656	-0.000219	-0.005833	-0.604736	0.269043	-0.489014	0.728078	-0.181314	-0.659681	-0.042987
23503		9.545966	-2.072547	0.637470	0.001292	0.001243	-0.007491	-0.605713	0.276855	-0.490479	0.728058	-0.181220	-0.659731	-0.042959
23504		9.549177	-2.078702	0.617887	-0.001596	0.003331	-0.007918	-0.599609	0.273438	-0.486328	0.728046	-0.181252	-0.659731	-0.043035
23505		9.568997	-2.053887	0.602727	0.001455	0.001831	-0.009193	-0.605957	0.276123	-0.490234	0.728035	-0.181201	-0.659757	-0.043047
23506		9.559696	-2.073667	0.619934	0.000229	0.001148	-0.008679	-0.599365	0.270752	-0.489990	0.728007	-0.181202	-0.659783	-0.043104
23507		9.555403	-2.023530	0.623728	-0.000092	-0.001195	-0.005376	-0.599365	0.276611	-0.493896	0.727988	-0.181163	-0.659818	-0.043064
23508		9.561339	-2.069618	0.610433	-0.000472	0.002841	-0.007363	-0.597412	0.277344	-0.490967	0.728012	-0.181184	-0.659783	-0.043106
23509		9.546169	-2.076651	0.579147	0.005408	0.001000	-0.007469	-0.600342	0.277344	-0.493408	0.728028	-0.181162	-0.659772	-0.043098
23510		9.581424	-2.053704	0.604827	0.005406	0.002164	-0.007365	-0.604736	0.273926	-0.486328	0.728053	-0.181140	-0.659750	-0.043099
23511		9.571114	-2.043237	0.605316	0.004654	0.002108	-0.005620	-0.605469	0.269531	-0.495605	0.728035	-0.181099	-0.659782	-0.043072
23512		9.571301	-2.073299	0.633251	0.000693	0.006430	-0.007030	-0.592773	0.268555	-0.492432	0.728082	-0.181022	-0.659753	-0.043065
23513		9.551338	-2.042559	0.615419	0.005937	0.003374	-0.006664	-0.607666	0.288330	-0.487793	0.728145	-0.180888	-0.659726	-0.042962
23514		9.553487	-2.039439	0.597425	0.003413	0.006084	-0.004692	-0.603271	0.274170	-0.484619	0.728144	-0.181047	-0.659676	-0.043076
23515		9.573953	-2.056605	0.609036	0.003532	0.003757	-0.006067	-0.599365	0.275879	-0.499756	0.728134	-0.181018	-0.659696	-0.043066
23516		9.560670	-2.048904	0.638811	-0.000049	0.004043	-0.005492	-0.607422	0.274658	-0.497070	0.728191	-0.181041	-0.659625	-0.043086
23517		9.539564	-2.106361	0.612648	-0.001587	0.003319	-0.007912	-0.594727	0.270752	-0.492432	0.728200	-0.181046	-0.659609	-0.043150
23518		9.559365	-2.102434	0.615119	0.000997	0.000027	-0.010517	-0.599609	0.279053	-0.492920	0.728213	-0.180959	-0.659620	-0.043144
23519		9.562920	-2.031131	0.621725	0.003986	0.001438	-0.010944	-0.604248	0.271729	-0.493408	0.728224	-0.180942	-0.659609	-0.043199
23520		9.557620	-2.047034	0.600463	0.002808	0.002502	-0.010860	-0.596191	0.273926	-0.494629	0.728232	-0.180851	-0.659623	-0.043220
23521		9.583187	-2.034966	0.634456	0.006049	0.004537	-0.007721	-0.597168	0.277344	-0.479248	0.728296	-0.180780	-0.659575	-0.043187
23522		9.583536	-2.022540	0.626484	0.003657	0.001427	-0.007436	-0.597656	0.266357	-0.490967	0.728262	-0.180784	-0.659610	-0.043197
23523		9.565532	-2.032033	0.624232	0.001414	0.002395	-0.008542	-0.603027	0.274414	-0.488525	0.728282	-0.180662	-0.659625	-0.043149
23524		9.557160	-2.051304	0.632088	-0.000520	0.003407	-0.006718	-0.603516	0.276123	-0.489014	0.728275	-0.180674	-0.659627	-0.043185
23525		9.592268	-2.073559	0.604861	-0.002820	0.004956	-0.007189	-0.607422	0.277100	-0.491699	0.728275	-0.180721	-0.659609	-0.043262
23526		9.575142	-2.026874	0.637591	0.001831	0.003604	-0.006674	-0.601807	0.263916	-0.493652	0.728271	-0.180741	-0.659604	-0.043308
23527		9.541663	-2.055941	0.612545	0.002008	0.001860	-0.008580	-0.599121	0.271729	-0.490479	0.728287	-0.180584	-0.659635	-0.043243
23528		9.549750	-2.033921	0.615369	0.002326	-0.000424	-0.005857	-0.601807	0.267090	-0.489990	0.728277	-0.180545	-0.659659	-0.043205
23529		9.587732	-2.040342	0.638392	-0.000034	0.001705	-0.005693	-0.607910	0.269775	-0.485840	0.728271	-0.180475	-0.659687	-0.043160
23530		9.597575	-2.028018	0.630778	0.001931	0.000152	-0.001719	-0.604004	0.267334	-0.483887	0.728222	-0.180466	-0.659747	-0.043109
23531		9.593853	-2.044040	0.590792	-0.001192	0.010338	-0.005522	-0.593506	0.278320	-0.492676	0.728255	-0.180421	-0.659723	-0.043114
23532		9.553389	-2.068971	0.625973	0.005290	0.006810	-0.005764	-0.599854	0.269775	-0.496338	0.728334	-0.180422	-0.659636	-0.043098
23533		9.533246	-2.059749	0.626414	0.004594	0.006175	-0.004658	-0.596436	0.276367	-0.496582	0.728406	-0.180331	-0.659587	-0.043015
23534		9.555772	-2.064524	0.609245	0.001268	-0.000525	-0.007043	-0.606934	0.273193	-0.486572	0.728420	-0.180329	-0.659572	-0.043008
23535		9.577422	-2.080443	0.609909	0.005915	-0.000709	-0.006423	-0.598633	0.273438	-0.492920	0.728373	-0.180288	-0.659637	-0.042994
23536		9.566161	-2.060201	0.610567	0.006614	-0.000077	-0.007526	-0.599365	0.269531	-0.494385	0.728384	-0.180211	-0.659649	-0.042942
23537		9.569334	-2.042296	0.661939	0.005965	0.001036	-0.006850	-0.599365	0.269531	-0.489502	0.728408	-0.180098	-0.659659	-0.042859
23538		9.549263	-2.011876	0.643534	0.004606	0.003845	-0.004863	-0.604736	0.267090	-0.494385	0.728433	-0.180028	-0.659654	-0.042792
23539		9.570701	-2.007419	0.627150	0.004391	0.001515	-0.002736	-0.596191	0.270752	-0.480469	0.728444	-0.179941	-0.659673	-0.042685
23540		9.574841	-2.045125	0.624610	-0.000614	0.001067	-0.005752	-0.596436	0.277100	-0.494385	0.728408	-0.179960	-0.659707	-0.042703
23541		9.558761	-2.074501	0.620790	0.001254	0.002963	-0.006730	-0.602051	0.270996	-0.495117	0.728442	-0.179972	-0.659665	-0.042710
23542		9.564785	-2.043690	0.634583	-0.000457	0.003976	-0.007243	-0.603516	0.277588	-0.492676	0.728468	-0.179929	-0.659648	-0.042705
23543		9.562074	-2.013088	0.637768	0.002902	0.003693	-0.005477	-0.607178	0.276367	-0.491943	0.728483	-0.179953	-0.659624	-0.042723
23544		9.575912	-2.028598	0.618691	-0.000672	0.001647	-0.005116	-0.602051	0.274658	-0.501953	0.728460	-0.180007	-0.659632	-0.042768
23545		9.577224	-2.057902	0.636009	-0.002257	0.000332	-0.007002	-0.598633	0.277832	-0.495605	0.728476	-0.180002	-0.659615	-0.042771
23546		9.559175	-2.036259	0.606520	0.002384	0.001315	-0.006277	-0.602539	0.267090	-0.497803	0.728496	-0.180011	-0.659591	-0.042768
23547		9.566126	-2.004785	0.610413	0.000021	0.003441	-0.006115	-0.601318	0.269775	-0.495117	0.728530	-0.179928	-0.659580	-0.042717
23548		9.558679	-2.044971	0.626600	0.003856	0.002629	-0.003224	-0.608398	0.278320	-0.489502	0.728558	-0.179869	-0.659570	-0.042631
23549		9.561854	-2.083494	0.634377	-0.000045	0.005186	-0.005376	-0.604492	0.267578	-0.486328	0.728551	-0.179942	-0.659553	-0.042707
23550		9.543768	-2.072390	0.614682	0.000783	0.003490	-0.007851	-0.599609	0.275146	-0.485107	0.728535	-0.179886	-0.659585	-0.042723
23551		9.571104	-2.048402	0.620127	0.004262	0.002045	-0.007354	-0.604004	0.274658	-0.497314	0.728522	-0.179882	-0.659599	-0.042743
23552		9.577078	-2.006915	0.625005	0.005432	0.003309	-0.007227	-0.599609	0.274414	-0.490723	0.728556	-0.179820	-0.659581	-0.042715
23553		9.574423	-1.997147	0.645735	0.001274	0.000628	-0.006930	-0.604980	0.274658	-0.488281	0.728546	-0.179819	-0.659591	-0.042724
23554		9.550678	-2.015471	0.612139	-0.000185	-0.000053	-0.004090	-0.601318	0.269043	-0.489502	0.728504	-0.179872	-0.659622	-0.042748
23555		9.602170	-2.039202	0.615238	-0.000415	-0.000052	-0.001760	-0.603760	0.275391	-0.491943	0.728481	-0.179879	-0.659649	-0.042695
23556		9.581929	-2.041482	0.623029	0.001338	0.001845	-0.001570	-0.601074	0.273682	-0.489258	0.728476	-0.179929	-0.659641	-0.042672
23557		9.561709	-2.043619	0.630955	0.001460	0.000681	-0.002839	-0.603760	0.275879	-0.486572	0.728461	-0.179957	-0.659652	-0.042648
23558		9.549130	-2.014804	0.632545	0.002037	0.002477	-0.002672	-0.603760	0.273926	-0.489990	0.728443	-0.180014	-0.659656	-0.042656
23559		9.573592	-2.060659	0.632116	0.003253	0.005486	-0.002974	-0.593750	0.278320	-0.496826	0.728466	-0.180023	-0.659630	-0.042635
23560		9.578709	-2.055377	0.584730	0.000033	0.002271	-0.006214	-0.602051	0.273682	-0.481445	0.728506	-0.180051	-0.659577	-0.042640
23561		9.566362	-2.046806	0.603935	0.003527	-0.001498	-0.005922	-0.598389	0.280762	-0.488770	0.728444	-0.180061	-0.659642	-0.042653
23562		9.581928	-2.036651	0.636039	0.004396	0.001514	-0.002728	-0.604736	0.278564	-0.492188	0.728446	-0.180135	-0.659620	-0.042654
23563		9.551971	-2.018681	0.625333	0.004274	0.002679	-0.001460	-0.607666	0.270996	-0.488770	0.728452	-0.180189	-0.659600	-0.042633
23564		9.550478	-2.085930	0.610657	0.002724	0.005434	-0.003567	-0.600586	0.267822	-0.485352	0.728458	-0.180168	-0.659600	-0.042608
23565		9.562339	-2.092685	0.602317	0.005866	0.001029	-0.005667	-0.601318	0.278564	-0.486572	0.728444	-0.180077	-0.659645	-0.042535
23566		9.566325	-2.052850	0.625853	0.004408	-0.001455	-0.008820	-0.606201	0.269043	-0.490234	0.728402	-0.180088	-0.659686	-0.042584
23567		9.575467	-2.039929	0.627487	0.001582	-0.001129	-0.009991	-0.604736	0.266357	-0.492920	0.728360	-0.180003	-0.659756	-0.042587
23568		9.572815	-2.008858	0.629801	0.007106	0.000546	-0.006275	-0.606934	0.271973	-0.492676	0.728361	-0.179861	-0.659800	-0.042480
23569		9.555814	-2.028641	0.626810	-0.000026	0.002848	-0.005578	-0.604004	0.270020	-0.497559	0.728356	-0.179853	-0.659807	-0.042485
23570		9.551487	-2.066123	0.614028	-0.001155	0.004490	-0.006029	-0.608154	0.278809	-0.489502	0.728388	-0.179812	-0.659784	-0.042465
23571		9.598943	-2.039880	0.612177	0.003441	0.003734	-0.004872	-0.603027	0.266113	-0.490723	0.728381	-0.179860	-0.659777	-0.042507
23572		9.566074	-2.023770	0.631418	0.002289	0.008867	-0.005014	-0.600098	0.273926	-0.489014	0.728437	-0.179776	-0.659741	-0.042452
23573		9.573823	-2.012802	0.644873	0.006900	0.005784	-0.004061	-0.601074	0.278320	-0.493408	0.728477	-0.179747	-0.659707	-0.042408
23574		9.571338	-2.038544	0.604521	0.000958	0.005859	-0.003548	-0.599609	0.272461	-0.497559	0.728516	-0.179807	-0.659647	-0.042429
23575		9.560742	-2.039625	0.614490	0.004323	0.004422	-0.001883	-0.598633	0.267578	-0.491943	0.728571	-0.179776	-0.659600	-0.042337
23576		9.568415	-2.029262	0.627099	-0.001502	0.004494	-0.002535	-0.601807	0.275391	-0.487305	0.728599	-0.179761	-0.659577	-0.042282
23577		9.569540	-2.038421	0.626684	-0.007414	-0.000084	-0.002436	-0.602539	0.262939	-0.493896	0.728546	-0.179902	-0.659593	-0.042353
23578		9.554391	-2.057594	0.603606	0.001940	0.000149	-0.001709	-0.609375	0.274658	-0.495605	0.728543	-0.179810	-0.659629	-0.042214
23579		9.559026	-2.028675	0.626871	0.005562	0.003941	-0.002491	-0.604736	0.276123	-0.491211	0.728562	-0.179793	-0.659617	-0.042160
23580		9.568857	-2.069111	0.665366	0.003187	0.007226	-0.002230	-0.601807	0.278076	-0.494629	0.728599	-0.179827	-0.659567	-0.042152
23581		9.558171	-2.049127	0.657742	0.003905	0.005529	-0.003536	-0.603760	0.270996	-0.491943	0.728642	-0.179848	-0.659515	-0.042137
23582		9.581620	-2.042958	0.622471	-0.006570	0.005773	-0.004820	-0.605225	0.273926	-0.487305	0.728650	-0.179896	-0.659489	-0.042186
23583		9.571088	-2.043887	0.631854	-0.000309	0.002268	-0.002716	-0.606445	0.264893	-0.497803	0.728624	-0.179954	-0.659502	-0.042203
23584		9.574708	-2.004989	0.655976	0.002208	0.004211	-0.004256	-0.603027	0.277100	-0.484619	0.728654	-0.179846	-0.659504	-0.042103
23585		9.562762	-2.063386	0.640459	-0.000356	0.000525	-0.002288	-0.598145	0.271729	-0.493896	0.728609	-0.179951	-0.659523	-0.042146
23586		9.557416	-2.091651	0.627771	0.004647	0.000343	-0.005149	-0.609863	0.271484	-0.479980	0.728620	-0.179891	-0.659532	-0.042073
23587		9.571734	-2.029653	0.624590	0.001009	-0.001123	-0.004163	-0.601318	0.276123	-0.490967	0.728530	-0.179937	-0.659616	-0.042115
23588		9.567746	-2.000738	0.636427	-0.002187	0.001536	-0.001641	-0.606934	0.270264	-0.489746	0.728517	-0.180024	-0.659605	-0.042124
23589		9.563258	-2.028828	0.614261	-0.001666	0.002751	-0.000943	-0.601074	0.273438	-0.488037	0.728499	-0.180060	-0.659618	-0.042097
23590		9.569858	-2.030378	0.644848	0.001050	0.001268	0.001292	-0.614258	0.270508	-0.493408	0.728485	-0.180125	-0.659619	-0.042043
23591		9.591088	-2.027121	0.628156	0.001042	0.002431	0.001395	-0.609131	0.275879	-0.492920	0.728464	-0.180146	-0.659641	-0.041972
23592		9.566210	-2.079511	0.631817	-0.000087	0.004071	0.000943	-0.599365	0.284424	-0.483887	0.728464	-0.180224	-0.659621	-0.041950
23593		9.547808	-2.080860	0.620580	0.001642	0.000737	0.001253	-0.602051	0.277344	-0.496338	0.728433	-0.180406	-0.659602	-0.041996
23594		9.540178	-2.090753	0.609213	-0.000529	-0.000053	-0.000594	-0.606201	0.271484	-0.498535	0.728428	-0.180476	-0.659591	-0.041964
23595		9.535144	-2.073638	0.639251	0.004207	-0.004296	-0.000906	-0.606445	0.272217	-0.494629	0.728396	-0.180436	-0.659645	-0.041837
23596		9.571487	-2.106333	0.610233	0.000473	-0.000013	-0.004654	-0.597412	0.272217	-0.487305	0.728376	-0.180418	-0.659674	-0.041806
23597		9.568674	-2.086376	0.621763	0.005991	0.002183	-0.006712	-0.606689	0.277100	-0.492676	0.728385	-0.180353	-0.659684	-0.041764
23598		9.556130	-2.035582	0.605518	0.004823	0.000918	-0.006840	-0.604248	0.280518	-0.489258	0.728373	-0.180331	-0.659704	-0.041766
23599		9.555402	-2.034916	0.615775	0.004050	0.002034	-0.005004	-0.604980	0.278809	-0.492432	0.728362	-0.180375	-0.659702	-0.041798
23600		9.564256	-2.044259	0.636278	0.007935	0.001817	-0.002639	-0.600098	0.275635	-0.494629	0.728370	-0.180376	-0.659696	-0.041750
23601		9.565471	-2.053007	0.636094	0.001059	0.000617	-0.004588	-0.603760	0.276123	-0.489014	0.728372	-0.180387	-0.659692	-0.041732
23602		9.567805	-2.071189	0.634999	0.002291	0.001298	-0.005093	-0.609375	0.278564	-0.498047	0.728353	-0.180403	-0.659707	-0.041741
23603		9.556268	-2.041016	0.626497	0.002308	-0.001028	-0.005298	-0.594971	0.268799	-0.494873	0.728330	-0.180417	-0.659729	-0.041743
23604		9.568228	-2.058424	0.626369	0.001461	0.001836	-0.002728	-0.606201	0.277588	-0.487793	0.728361	-0.180373	-0.659714	-0.041645
23605		9.559687	-2.057877	0.616289	-0.001438	0.003904	-0.003168	-0.604492	0.277100	-0.490234	0.728346	-0.180455	-0.659704	-0.041693
23606		9.549078	-2.048464	0.616681	0.002045	0.002469	-0.002663	-0.602539	0.273682	-0.488281	0.728340	-0.180497	-0.659700	-0.041687
23607		9.570608	-2.065272	0.617804	0.000238	-0.000008	-0.002326	-0.596191	0.273926	-0.494873	0.728310	-0.180532	-0.659725	-0.041663
23608		9.568605	-2.056016	0.628520	-0.000490	0.002851	-0.000919	-0.602783	0.275635	-0.493896	0.728341	-0.180567	-0.659685	-0.041608
23609		9.562158	-2.074946	0.616977	-0.004847	0.003592	-0.004407	-0.595459	0.279297	-0.495850	0.728344	-0.180630	-0.659661	-0.041650
23610		9.564379	-2.082996	0.606978	-0.001475	0.000998	-0.002843	-0.603271	0.279053	-0.492676	0.728359	-0.180704	-0.659624	-0.041651
23611		9.542194	-2.086499	0.634372	-0.002438	0.004375	-0.004885	-0.607178	0.274902	-0.493896	0.728368	-0.180773	-0.659591	-0.041707
23612		9.563635	-2.071462	0.609059	0.000925	0.002945	-0.003217	-0.604980	0.277832	-0.490967	0.728369	-0.180787	-0.659588	-0.041689
23613		9.568258	-2.042076	0.632268	-0.000068	0.002254	-0.005039	-0.600342	0.277100	-0.489746	0.728357	-0.180827	-0.659589	-0.041720
23614		9.553359	-2.071169	0.618587	0.001007	0.000036	-0.004056	-0.604980	0.282959	-0.489746	0.728337	-0.180862	-0.659601	-0.041719
23615		9.544964	-2.070134	0.608034	0.003535	0.000816	-0.005696	-0.605713	0.277588	-0.490967	0.728315	-0.180912	-0.659609	-0.041763
23616		9.573130	-2.066908	0.621333	-0.001419	0.001576	-0.003372	-0.598389	0.282227	-0.486084	0.728294	-0.180975	-0.659614	-0.041787
23617		9.563651	-2.066947	0.620674	0.002231	0.001880	-0.004456	-0.598389	0.271240	-0.484863	0.728284	-0.181046	-0.659602	-0.041827
23618		9.562861	-2.066592	0.630807	0.001119	0.001193	-0.005114	-0.600586	0.272705	-0.493408	0.728266	-0.181024	-0.659630	-0.041798
23619		9.543832	-2.067277	0.628588	0.002322	-0.002192	-0.005397	-0.601562	0.272217	-0.491211	0.728243	-0.180989	-0.659668	-0.041750
23620		9.563338	-2.053581	0.622008	0.005761	0.002188	-0.004376	-0.611328	0.276367	-0.496094	0.728256	-0.180929	-0.659675	-0.041677
23621		9.564485	-2.041159	0.604133	0.002815	0.002511	-0.004390	-0.604736	0.276123	-0.495117	0.728254	-0.180921	-0.659681	-0.041662
23622		9.575314	-2.048999	0.605748	0.004373	0.006161	-0.002298	-0.601318	0.274902	-0.490479	0.728300	-0.180916	-0.659634	-0.041615
23623		9.565966	-2.091298	0.641447	0.000889	0.000039	-0.002892	-0.595947	0.273438	-0.489990	0.728281	-0.180940	-0.659650	-0.041587
23624		9.545620	-2.061946	0.622017	0.003780	-0.000864	-0.002348	-0.604980	0.271729	-0.490723	0.728275	-0.180931	-0.659664	-0.041512
23625		9.553385	-2.051177	0.633435	0.004614	-0.001404	-0.004709	-0.599609	0.268311	-0.488770	0.728244	-0.180877	-0.659716	-0.041446
23626		9.573952	-2.057750	0.635756	-0.002465	0.007855	-0.004575	-0.605469	0.276123	-0.492920	0.728283	-0.180859	-0.659679	-0.041431
23627		9.571850	-2.104508	0.612946	0.003354	0.001402	-0.003897	-0.603760	0.272461	-0.491943	0.728278	-0.180856	-0.659688	-0.041402
23628		9.552636	-2.084439	0.593225	0.005190	0.000391	-0.004540	-0.595947	0.276123	-0.480957	0.728271	-0.180802	-0.659715	-0.041335
23629		9.565974	-2.064954	0.636186	0.007711	0.002332	-0.006074	-0.603516	0.270508	-0.493896	0.728269	-0.180772	-0.659726	-0.041317
23630		9.552219	-2.025855	0.639149	0.003439	0.006044	-0.004646	-0.605225	0.276367	-0.491699	0.728311	-0.180708	-0.659701	-0.041256
23631		9.552335	-2.091834	0.614967	-0.000656	0.002776	-0.004997	-0.600098	0.279053	-0.491211	0.728304	-0.180738	-0.659699	-0.041280
23632		9.559962	-2.059919	0.609039	0.001586	0.001826	-0.003884	-0.600098	0.273193	-0.492188	0.728306	-0.180782	-0.659685	-0.041287
23633		9.575280	-2.049693	0.641756	-0.002501	0.004948	-0.004251	-0.604492	0.270508	-0.485596	0.728328	-0.180805	-0.659654	-0.041291
23634		9.547620	-2.071912	0.647536	-0.000183	0.002252	-0.003873	-0.605713	0.275391	-0.499756	0.728303	-0.180803	-0.659683	-0.041273
23635		9.553045	-2.087700	0.617978	-0.002323	0.005519	-0.005941	-0.603027	0.281250	-0.503174	0.728338	-0.180808	-0.659642	-0.041290
23636		9.569299	-2.055528	0.622864	0.002135	-0.000444	-0.003495	-0.599854	0.278564	-0.480225	0.728350	-0.180835	-0.659624	-0.041260
23637		9.560880	-2.054818	0.611853	-0.004277	-0.001017	-0.004225	-0.594971	0.275879	-0.494385	0.728281	-0.180952	-0.659662	-0.041342
23638		9.565476	-2.092455	0.608841	-0.001811	0.000346	-0.005228	-0.605469	0.276611	-0.487793	0.728285	-0.180979	-0.659650	-0.041344
23639		9.563616	-2.082350	0.619513	0.002886	0.001923	-0.005016	-0.601318	0.275146	-0.490967	0.728267	-0.180984	-0.659668	-0.041347
23640		9.557424	-2.044124	0.642152	0.003952	0.000871	-0.003931	-0.600098	0.270752	-0.492188	0.728263	-0.180970	-0.659679	-0.041304
23641		9.569344	-2.051114	0.633338	-0.002602	0.002627	-0.003294	-0.604248	0.282227	-0.483398	0.728267	-0.180980	-0.659673	-0.041276
23642		9.567357	-2.098069	0.609699	-0.002525	0.000880	-0.004029	-0.602051	0.274902	-0.494873	0.728218	-0.181101	-0.659689	-0.041365
23643		9.538429	-2.022798	0.622918	0.000761	0.001205	-0.001625	-0.603027	0.269043	-0.486816	0.728221	-0.181122	-0.659683	-0.041314
23644		9.565303	-2.067216	0.602428	-0.008662	0.001534	-0.001740	-0.596924	0.277100	-0.486328	0.728181	-0.181196	-0.659706	-0.041324
23645		9.559057	-2.107430	0.608437	-0.000425	0.002263	-0.001549	-0.602539	0.282227	-0.486328	0.728177	-0.181267	-0.659691	-0.041320
23646		9.565433	-2.066448	0.603007	-0.000943	0.001045	-0.002246	-0.604004	0.280273	-0.492676	0.728147	-0.181378	-0.659691	-0.041367
23647		9.577450	-2.094660	0.612099	-0.003194	0.003155	-0.003254	-0.605957	0.281006	-0.487549	0.728145	-0.181467	-0.659666	-0.041413
23648		9.545549	-2.099387	0.638393	-0.001424	0.002730	-0.003265	-0.608154	0.280762	-0.487549	0.728123	-0.181554	-0.659663	-0.041463
23649		9.539106	-2.086411	0.599801	0.001184	0.001764	-0.005635	-0.604004	0.274902	-0.482666	0.728094	-0.181594	-0.659682	-0.041510
23650		9.554293	-2.055031	0.614427	-0.000191	0.003412	-0.003766	-0.609619	0.277100	-0.485107	0.728073	-0.181620	-0.659697	-0.041515
23651		9.555494	-2.053279	0.605182	0.001017	0.000030	-0.004049	-0.602051	0.275146	-0.497803	0.728021	-0.181645	-0.659748	-0.041521
23652		9.577306	-2.090707	0.624243	-0.000830	0.002200	-0.003302	-0.596924	0.283691	-0.489502	0.728037	-0.181659	-0.659728	-0.041492
23653		9.558160	-2.091844	0.622695	-0.001311	0.003884	-0.004321	-0.603271	0.279053	-0.493896	0.728051	-0.181759	-0.659680	-0.041563
23654		9.558200	-2.069813	0.605402	0.001063	0.001769	-0.004473	-0.600586	0.273438	-0.484131	0.728052	-0.181786	-0.659671	-0.041568
23655		9.530660	-2.091909	0.610594	0.004031	-0.000874	-0.004663	-0.603027	0.277344	-0.488281	0.728019	-0.181751	-0.659721	-0.041516
23656		9.549211	-2.089377	0.622545	0.003561	-0.000352	-0.005785	-0.600586	0.277100	-0.487793	0.727993	-0.181738	-0.659754	-0.041505
23657		9.570958	-2.094746	0.614402	0.004749	-0.001410	-0.005860	-0.599609	0.277588	-0.491943	0.727965	-0.181715	-0.659792	-0.041480
23658		9.576379	-2.043172	0.609607	0.002297	0.002450	-0.004973	-0.604492	0.272217	-0.484375	0.727978	-0.181719	-0.659777	-0.041472
23659		9.548908	-2.064889	0.615181	0.003731	0.001379	-0.007368	-0.600830	0.273193	-0.488770	0.727954	-0.181650	-0.659825	-0.041444
23660		9.550286	-2.073169	0.615004	0.003362	0.001400	-0.003888	-0.599121	0.271729	-0.489502	0.727951	-0.181619	-0.659840	-0.041387
23661		9.556989	-2.062982	0.636410	-0.001804	0.000339	-0.005224	-0.601318	0.281982	-0.499756	0.727933	-0.181612	-0.659863	-0.041368
23662		9.564688	-2.087559	0.595839	0.000538	0.001710	-0.005065	-0.599365	0.275635	-0.486816	0.727953	-0.181654	-0.659828	-0.041388
23663		9.571406	-2.077079	0.617966	0.001862	0.005871	-0.006415	-0.596924	0.280518	-0.489014	0.727980	-0.181639	-0.659802	-0.041400
23664		9.572710	-2.085402	0.618886	0.002849	0.006567	-0.004595	-0.602539	0.276123	-0.482910	0.728026	-0.181672	-0.659741	-0.041423
23665		9.553677	-2.085929	0.617806	0.002615	0.001848	-0.007921	-0.604004	0.278564	-0.491455	0.728001	-0.181648	-0.659773	-0.041447
23666		9.571078	-2.062770	0.621961	0.003612	0.001384	-0.006204	-0.604980	0.270508	-0.482178	0.727996	-0.181636	-0.659782	-0.041447
23667		9.555036	-2.050682	0.582178	0.002188	0.001293	-0.003913	-0.599365	0.275879	-0.489746	0.727963	-0.181599	-0.659832	-0.041392
23668		9.581149	-2.059518	0.623882	-0.000166	0.001082	-0.003969	-0.607178	0.276855	-0.486572	0.727954	-0.181624	-0.659835	-0.041384
23669		9.555646	-2.080199	0.610263	0.001034	0.005249	-0.004159	-0.598877	0.284424	-0.491699	0.727957	-0.181641	-0.659827	-0.041395
23670		9.560186	-2.107399	0.599830	0.002805	0.004826	-0.004168	-0.599854	0.273438	-0.491943	0.727990	-0.181708	-0.659769	-0.041439
23671		9.564679	-2.088175	0.632543	0.001821	0.004127	-0.005986	-0.608154	0.275146	-0.491211	0.728015	-0.181671	-0.659753	-0.041415
23672		9.558463	-2.085125	0.603049	-0.002088	0.001422	-0.008031	-0.606201	0.273193	-0.494873	0.727988	-0.181662	-0.659784	-0.041452
23673		9.558818	-2.083475	0.603128	0.001217	-0.000568	-0.005833	-0.599854	0.271973	-0.490479	0.727967	-0.181621	-0.659820	-0.041412
23674		9.565268	-2.041693	0.597071	0.002225	-0.002193	-0.004220	-0.605225	0.279541	-0.487549	0.727939	-0.181588	-0.659865	-0.041345
23675		9.562511	-2.053290	0.635457	0.008312	0.002966	-0.005983	-0.597412	0.272461	-0.488770	0.727944	-0.181549	-0.659870	-0.041327
23676		9.567250	-2.090592	0.634001	-0.001206	0.006188	-0.005270	-0.601807	0.280518	-0.492188	0.727978	-0.181544	-0.659835	-0.041325
23677		9.569452	-2.077160	0.606725	-0.001114	0.003279	-0.006107	-0.603516	0.277832	-0.487549	0.727984	-0.181593	-0.659811	-0.041381
23678		9.548147	-2.058599	0.606391	-0.002403	0.002019	-0.005080	-0.601318	0.269287	-0.491943	0.727962	-0.181646	-0.659818	-0.041426
23679		9.556926	-2.057481	0.617417	0.001427	0.000089	-0.002289	-0.603027	0.278320	-0.482666	0.727953	-0.181607	-0.659845	-0.041328
23680		9.564631	-2.057355	0.638042	-0.000813	0.001030	-0.003401	-0.604980	0.275635	-0.487305	0.727915	-0.181675	-0.659866	-0.041361
23681		9.578720	-2.073403	0.619057	0.000797	0.004101	-0.001941	-0.603760	0.278076	-0.486084	0.727916	-0.181702	-0.659858	-0.041338
23682		9.572324	-2.082117	0.598763	-0.001613	0.003312	-0.001471	-0.603760	0.279053	-0.487793	0.727905	-0.181781	-0.659849	-0.041352
23683		9.571074	-2.061866	0.591053	0.002868	0.001431	0.000755	-0.604980	0.281494	-0.492920	0.727893	-0.181842	-0.659848	-0.041307
23684		9.550926	-2.085676	0.616898	0.001290	0.001259	-0.001026	-0.602783	0.281006	-0.484375	0.727886	-0.181912	-0.659837	-0.041297
23685		9.566297	-2.132598	0.615299	0.004341	0.003258	-0.001957	-0.606445	0.269287	-0.493408	0.727884	-0.181958	-0.659826	-0.041290
23686		9.541371	-2.085911	0.617183	0.004239	0.000944	-0.001005	-0.595947	0.278809	-0.489014	0.727883	-0.181891	-0.659855	-0.041149
23687		9.562790	-2.081838	0.600511	0.001942	0.001307	-0.001591	-0.604736	0.281006	-0.489990	0.727887	-0.181942	-0.659838	-0.041125
23688		9.569271	-2.072318	0.622088	0.000170	0.001729	-0.001583	-0.617676	0.285645	-0.493164	0.727874	-0.182017	-0.659832	-0.041132
23689		9.579111	-2.081152	0.632615	-0.000230	0.001662	-0.003335	-0.598145	0.268555	-0.491699	0.727838	-0.182100	-0.659844	-0.041186
23690		9.555981	-2.121203	0.617203	0.001142	0.001174	-0.005095	-0.597900	0.280762	-0.489258	0.727843	-0.182033	-0.659863	-0.041106
23691		9.547655	-2.120194	0.606508	0.002344	-0.001042	-0.005272	-0.595703	0.273926	-0.482178	0.727823	-0.182064	-0.659876	-0.041120
23692		9.553200	-2.100119	0.628497	0.002320	0.001280	-0.005065	-0.603760	0.279541	-0.484131	0.727810	-0.182048	-0.659895	-0.041097
23693		9.565294	-2.106676	0.619423	0.000573	-0.000622	-0.005264	-0.604980	0.280029	-0.497070	0.727764	-0.182086	-0.659933	-0.041127
23694		9.553581	-2.076380	0.610904	0.003155	0.001895	-0.007315	-0.600098	0.271484	-0.490967	0.727776	-0.182066	-0.659926	-0.041136
23695		9.564651	-2.072658	0.602637	0.007319	-0.001797	-0.007572	-0.601318	0.274902	-0.490723	0.727762	-0.181947	-0.659979	-0.041046
23696		9.556484	-2.081844	0.600988	0.006986	-0.000033	-0.004521	-0.606445	0.274414	-0.489746	0.727760	-0.181886	-0.660004	-0.040966
23697		9.566395	-2.079463	0.602385	0.004758	-0.000256	-0.005738	-0.596436	0.279541	-0.483887	0.727737	-0.181828	-0.660048	-0.040913
23698		9.575180	-2.067259	0.604544	0.000081	0.002215	-0.006177	-0.609619	0.270996	-0.486328	0.727729	-0.181873	-0.660042	-0.040967
23699		9.566666	-2.055994	0.585307	0.000879	0.002351	-0.002674	-0.600342	0.273438	-0.489502	0.727706	-0.181846	-0.660078	-0.040903
23700		9.548877	-2.087881	0.601467	-0.001273	0.006763	-0.004636	-0.604492	0.282959	-0.489746	0.727741	-0.181846	-0.660040	-0.040898
23701		9.557049	-2.143922	0.588728	-0.001747	0.002059	-0.005642	-0.601074	0.281494	-0.483398	0.727725	-0.181922	-0.660032	-0.040975
23702		9.556842	-2.075103	0.614408	0.002634	0.001832	-0.007904	-0.600098	0.282227	-0.489990	0.727707	-0.181941	-0.660043	-0.041040
23703		9.557039	-2.063106	0.605742	0.001685	0.000067	-0.004600	-0.600342	0.285645	-0.492920	0.727692	-0.181994	-0.660042	-0.041068
23704		9.548659	-2.062220	0.595519	0.003475	0.003705	-0.004825	-0.598633	0.275391	-0.479736	0.727718	-0.182053	-0.659995	-0.041115
23705		9.558714	-2.080952	0.615568	0.001064	0.002915	-0.004357	-0.606934	0.271240	-0.492188	0.727705	-0.182064	-0.660006	-0.041113
23706		9.539742	-2.092549	0.622805	0.003388	0.000232	-0.003976	-0.611084	0.273926	-0.487061	0.727691	-0.181998	-0.660046	-0.041020
23707		9.562667	-2.107557	0.614479	0.001389	0.002308	-0.007301	-0.602539	0.275879	-0.490723	0.727665	-0.181946	-0.660089	-0.041011
23708		9.579963	-2.084270	0.618793	0.003745	0.002522	-0.007240	-0.596436	0.285400	-0.480957	0.727673	-0.181897	-0.660094	-0.040995
23709		9.543943	-2.095672	0.605024	0.000826	0.005730	-0.007585	-0.600586	0.275879	-0.485107	0.727686	-0.181978	-0.660050	-0.041122
23710		9.524996	-2.095940	0.604143	0.002075	0.005251	-0.008183	-0.603271	0.285156	-0.487061	0.727702	-0.181946	-0.660039	-0.041148
23711		9.558302	-2.062260	0.630927	0.004356	0.000832	-0.007377	-0.603516	0.281738	-0.482178	0.727684	-0.181978	-0.660046	-0.041214
23712		9.566927	-2.039630	0.624049	0.001618	0.000650	-0.003967	-0.606689	0.281250	-0.489746	0.727649	-0.182037	-0.660067	-0.041248
23713		9.575085	-2.085290	0.602010	-0.002365	0.004900	-0.005396	-0.603027	0.281250	-0.490234	0.727652	-0.182101	-0.660042	-0.041318
23714		9.560697	-2.124946	0.598226	0.002288	0.004755	-0.004747	-0.599365	0.270996	-0.479004	0.727673	-0.182134	-0.660008	-0.041347
23715		9.544626	-2.097928	0.629369	0.006092	0.003895	-0.007071	-0.597412	0.280762	-0.491943	0.727677	-0.182030	-0.660036	-0.041284
23716		9.554318	-2.074308	0.613203	0.002997	0.000159	-0.005721	-0.600830	0.279785	-0.492432	0.727676	-0.182057	-0.660028	-0.041305
23717		9.556989	-2.092117	0.612167	0.001934	0.001200	-0.006805	-0.603027	0.287354	-0.495605	0.727675	-0.182068	-0.660024	-0.041335
23718		9.578850	-2.096944	0.604926	0.006222	0.003881	-0.008225	-0.599365	0.280518	-0.485352	0.727707	-0.182092	-0.659978	-0.041412
23719		9.554279	-2.069713	0.625257	0.006748	0.003940	-0.007630	-0.606445	0.271729	-0.490723	0.727725	-0.182062	-0.659965	-0.041429
23720		9.559134	-2.085364	0.605818	0.003402	0.004177	-0.009405	-0.604248	0.278320	-0.491211	0.727738	-0.181955	-0.659982	-0.041400
23721		9.548717	-2.074685	0.606210	0.002649	0.001819	-0.007891	-0.599854	0.276611	-0.490234	0.727734	-0.181934	-0.659991	-0.041422
23722		9.556449	-2.062883	0.618514	0.000194	0.004510	-0.007117	-0.604004	0.279541	-0.488525	0.727753	-0.181935	-0.659967	-0.041454
23723		9.562260	-2.078276	0.589430	0.004776	0.004954	-0.005836	-0.605957	0.276123	-0.492188	0.727775	-0.181921	-0.659947	-0.041460
23724		9.570227	-2.087387	0.620227	0.002752	0.004125	-0.008838	-0.608887	0.274902	-0.491699	0.727789	-0.181868	-0.659945	-0.041474
23725		9.549219	-2.089218	0.638077	0.000821	0.001660	-0.007357	-0.602295	0.273193	-0.489258	0.727772	-0.181830	-0.659974	-0.041470
23726		9.560035	-2.064434	0.612014	0.001009	0.002220	-0.009038	-0.605225	0.274170	-0.489258	0.727768	-0.181775	-0.659994	-0.041476
23727		9.570810	-2.039752	0.586117	0.007178	0.001688	-0.006078	-0.602783	0.274902	-0.486816	0.727768	-0.181691	-0.660020	-0.041410
23728		9.566675	-2.031111	0.616462	0.002265	0.001852	-0.004420	-0.604980	0.268799	-0.488281	0.727759	-0.181679	-0.660036	-0.041381
23729		9.551311	-2.071897	0.621715	-0.003770	0.002482	-0.003320	-0.607910	0.279541	-0.494385	0.727742	-0.181672	-0.660059	-0.041337
23730		9.558290	-2.097586	0.590919	-0.003552	0.000722	-0.005206	-0.605469	0.277100	-0.492188	0.727717	-0.181735	-0.660067	-0.041388
23731		9.555332	-2.098862	0.620194	0.003386	0.001388	-0.003861	-0.606201	0.270996	-0.494385	0.727713	-0.181728	-0.660074	-0.041354
