// Start Time: Unknown
// Update Rate: 40.0Hz
// Filter Profile: human (46.1)
// Firmware Version: 4.6.0
PacketCounter	SampleTimeFine	Acc_X	Acc_Y	Acc_Z	Gyr_X	Gyr_Y	Gyr_Z	Mag_X	Mag_Y	Mag_Z	Quat_q0	Quat_q1	Quat_q2	Quat_q3
23208		9.406320	0.606965	2.360091	-0.001118	-0.003004	-0.005273	-0.674072	-0.437744	-0.386719	0.690566	0.330815	-0.518749	0.380236
23209		9.438084	0.626168	2.359025	-0.000121	-0.003873	-0.002641	-0.668701	-0.433838	-0.385986	0.690554	0.330849	-0.518772	0.380196
23210		9.491582	0.627554	2.307274	-0.001085	-0.003311	-0.001562	-0.669434	-0.433838	-0.387695	0.690546	0.330863	-0.518799	0.380162
23211		9.460606	0.619245	2.320859	-0.001638	-0.001365	-0.001664	-0.667969	-0.433105	-0.384521	0.690550	0.330868	-0.518813	0.380130
23212		9.441160	0.638212	2.336016	0.001181	-0.001699	-0.004494	-0.664307	-0.440430	-0.386719	0.690552	0.330920	-0.518808	0.380089
23213		9.430620	0.631943	2.362044	0.001766	-0.000407	-0.004970	-0.663086	-0.437744	-0.382324	0.690562	0.330976	-0.518787	0.380051
23214		9.433952	0.632519	2.348303	-0.000761	-0.002563	-0.005963	-0.667969	-0.435791	-0.385254	0.690573	0.331030	-0.518792	0.379977
23215		9.470126	0.628470	2.349987	-0.004057	-0.001636	-0.003644	-0.664062	-0.440430	-0.388184	0.690593	0.331038	-0.518814	0.379903
23216		9.454059	0.604801	2.340112	-0.001748	0.000294	-0.004967	-0.666992	-0.432617	-0.390381	0.690621	0.331069	-0.518805	0.379839
23217		9.477308	0.596624	2.325205	0.003230	0.001051	-0.004013	-0.665039	-0.428955	-0.386719	0.690625	0.331132	-0.518774	0.379818
23218		9.442046	0.642705	2.357055	-0.000727	0.002037	-0.000809	-0.671875	-0.437012	-0.388672	0.690630	0.331136	-0.518776	0.379804
23219		9.441398	0.633506	2.343551	-0.001877	0.000703	-0.004065	-0.666260	-0.434082	-0.385986	0.690646	0.331165	-0.518779	0.379746
23220		9.430286	0.617102	2.356048	-0.002463	-0.000589	-0.003590	-0.665039	-0.429932	-0.381348	0.690655	0.331193	-0.518797	0.379679
23221		9.426958	0.618558	2.369232	-0.002690	-0.001440	-0.003804	-0.663574	-0.432373	-0.385010	0.690660	0.331221	-0.518825	0.379607
23222		9.454146	0.619046	2.354555	-0.003949	0.000248	-0.004631	-0.666260	-0.436523	-0.392578	0.690691	0.331233	-0.518834	0.379529
23223		9.457969	0.628612	2.354995	-0.006562	-0.001182	-0.003113	-0.671387	-0.428711	-0.389893	0.690717	0.331219	-0.518871	0.379442
23224		9.455457	0.653420	2.318050	-0.011121	0.004976	-0.005911	-0.664062	-0.438721	-0.385742	0.690807	0.331146	-0.518881	0.379328
23225		9.433071	0.598898	2.338299	-0.010460	0.004916	-0.006797	-0.666504	-0.431396	-0.394775	0.690902	0.331117	-0.518867	0.379200
23226		9.405567	0.600071	2.353794	-0.003495	0.001950	-0.004205	-0.661133	-0.442383	-0.384277	0.690939	0.331110	-0.518870	0.379135
23227		9.434875	0.618435	2.388710	-0.001725	-0.002000	-0.004887	-0.669434	-0.437012	-0.385498	0.690944	0.331182	-0.518874	0.379057
23228		9.465599	0.618588	2.359767	-0.004933	-0.006710	-0.006527	-0.663574	-0.440430	-0.390625	0.690928	0.331242	-0.518948	0.378933
23229		9.479733	0.626587	2.318606	-0.004228	-0.006453	-0.005802	-0.665527	-0.433350	-0.389648	0.690930	0.331296	-0.518993	0.378821
23230		9.460564	0.603867	2.321242	-0.001726	-0.002000	-0.004888	-0.667236	-0.438232	-0.388672	0.690935	0.331323	-0.519020	0.378752
23231		9.419556	0.598047	2.375151	-0.000271	-0.001168	-0.001825	-0.668213	-0.439453	-0.386230	0.690913	0.331361	-0.519045	0.378722
23232		9.411804	0.601659	2.379891	0.000390	-0.001227	-0.002710	-0.661865	-0.434326	-0.383545	0.690886	0.331419	-0.519063	0.378696
23233		9.447851	0.618412	2.387775	-0.001629	-0.000740	-0.003770	-0.663574	-0.431641	-0.394775	0.690893	0.331438	-0.519076	0.378651
23234		9.481112	0.628885	2.338279	-0.003397	-0.001698	-0.004534	-0.671631	-0.434082	-0.392822	0.690940	0.331386	-0.519093	0.378587
23235		9.477494	0.599615	2.331136	-0.003556	-0.004527	-0.003056	-0.663818	-0.439697	-0.382080	0.690924	0.331362	-0.519169	0.378532
23236		9.449346	0.602099	2.323023	-0.001658	-0.003979	-0.003197	-0.669922	-0.437500	-0.391846	0.690889	0.331441	-0.519204	0.378480
23237		9.414348	0.627477	2.347918	-0.003312	-0.002424	-0.007049	-0.665039	-0.427490	-0.383789	0.690904	0.331455	-0.519235	0.378398
23238		9.449860	0.635007	2.341855	-0.002639	-0.000497	-0.004301	-0.670654	-0.444092	-0.387207	0.690898	0.331423	-0.519293	0.378358
23239		9.464882	0.641000	2.323425	-0.004740	-0.004193	-0.004295	-0.669189	-0.439453	-0.384277	0.690871	0.331493	-0.519338	0.378282
23240		9.465841	0.609322	2.324248	-0.003783	-0.005379	-0.003273	-0.660156	-0.432861	-0.389648	0.690817	0.331560	-0.519414	0.378218
23241		9.465344	0.620864	2.315774	-0.005283	-0.000263	-0.000761	-0.666748	-0.431152	-0.392822	0.690868	0.331479	-0.519437	0.378165
23242		9.454146	0.625177	2.334398	-0.001169	0.001589	-0.005445	-0.665771	-0.432861	-0.385498	0.690919	0.331414	-0.519444	0.378119
23243		9.457908	0.614483	2.329305	0.001564	0.001987	-0.005763	-0.665039	-0.427246	-0.385010	0.690917	0.331450	-0.519439	0.378098
23244		9.455088	0.605159	2.350754	0.002469	-0.000142	-0.004249	-0.669922	-0.434570	-0.387939	0.690888	0.331441	-0.519485	0.378094
23245		9.454975	0.626998	2.356490	0.002409	-0.001712	-0.001652	-0.670654	-0.435547	-0.392334	0.690832	0.331464	-0.519535	0.378109
23246		9.474439	0.630332	2.346591	0.000259	-0.000818	-0.001808	-0.671387	-0.429199	-0.393311	0.690826	0.331427	-0.519572	0.378101
23247		9.434457	0.626801	2.343882	-0.001760	-0.000332	-0.002868	-0.672119	-0.440186	-0.391602	0.690839	0.331296	-0.519652	0.378082
23248		9.457014	0.629438	2.321518	-0.005326	0.004953	-0.003027	-0.660889	-0.441650	-0.386719	0.690889	0.331249	-0.519638	0.378050
23249		9.454113	0.619635	2.343429	-0.003999	-0.000071	-0.006249	-0.657959	-0.435059	-0.395020	0.690950	0.331342	-0.519574	0.377945
23250		9.462603	0.585619	2.340209	-0.002024	-0.000873	-0.006801	-0.663574	-0.436523	-0.384766	0.691099	0.331284	-0.519507	0.377817
23251		9.438441	0.628291	2.353163	-0.003398	-0.001700	-0.004538	-0.668701	-0.441406	-0.397461	0.691090	0.331342	-0.519527	0.377756
23252		9.467710	0.650613	2.309188	-0.005859	-0.000932	-0.002393	-0.663086	-0.437012	-0.385010	0.691183	0.331257	-0.519520	0.377669
23253		9.497461	0.605403	2.326079	-0.005277	0.000361	-0.002867	-0.656006	-0.443604	-0.396729	0.691192	0.331285	-0.519532	0.377612
23254		9.464546	0.589329	2.305341	-0.006027	0.005320	-0.005859	-0.662598	-0.431641	-0.389648	0.691440	0.331239	-0.519346	0.377453
23255		9.436220	0.623029	2.319129	-0.004505	0.002817	-0.006843	-0.659424	-0.436523	-0.395020	0.691514	0.331161	-0.519346	0.377387
23256		9.394564	0.607656	2.359842	-0.002466	-0.000590	-0.003597	-0.669434	-0.439209	-0.390381	0.691637	0.331087	-0.519296	0.377294
23257		9.461193	0.623570	2.339426	-0.002187	-0.004329	-0.003222	-0.672363	-0.430420	-0.389648	0.691598	0.331124	-0.519359	0.377247
23258		9.478148	0.616638	2.349998	-0.006376	-0.005563	-0.005973	-0.668457	-0.433838	-0.387451	0.691528	0.331042	-0.519533	0.377208
23259		9.462220	0.614263	2.345226	-0.007283	-0.003434	-0.007488	-0.672852	-0.443359	-0.391602	0.691500	0.331030	-0.519637	0.377126
23260		9.466838	0.613040	2.352699	0.000851	-0.004428	-0.003737	-0.671631	-0.447510	-0.393311	0.691445	0.331134	-0.519670	0.377091
23261		9.415450	0.603847	2.353651	-0.000821	-0.004129	-0.003382	-0.668945	-0.433350	-0.387451	0.691439	0.331249	-0.519658	0.377018
23262		9.420565	0.611738	2.375170	-0.000498	-0.002018	-0.002045	-0.671875	-0.440186	-0.389404	0.691367	0.331233	-0.519750	0.377036
23263		9.471684	0.612705	2.359034	-0.002467	-0.000591	-0.003598	-0.666748	-0.434326	-0.391602	0.691332	0.331268	-0.519790	0.377014
23264		9.466586	0.627417	2.342401	-0.001825	-0.003259	-0.006018	-0.663330	-0.440430	-0.384521	0.691352	0.331224	-0.519833	0.376957
23265		9.443747	0.575016	2.338846	0.004041	-0.001695	-0.005728	-0.669434	-0.433838	-0.390137	0.691313	0.331418	-0.519787	0.376922
23266		9.435894	0.600387	2.349138	0.004594	-0.004268	-0.003525	-0.675537	-0.443604	-0.396240	0.691245	0.331420	-0.519858	0.376946
23267		9.455915	0.613599	2.352784	0.003517	-0.000690	-0.000003	-0.666260	-0.428955	-0.386719	0.691226	0.331422	-0.519855	0.376984
23268		9.447487	0.628811	2.349607	0.002674	-0.001897	-0.005570	-0.671631	-0.437744	-0.387939	0.691173	0.331387	-0.519935	0.377002
23269		9.439697	0.633327	2.354231	0.005277	-0.001086	-0.004983	-0.667725	-0.434326	-0.387207	0.691093	0.331476	-0.519962	0.377033
23270		9.474265	0.621805	2.320035	0.001206	-0.003986	-0.004428	-0.661133	-0.434326	-0.393311	0.691033	0.331499	-0.520033	0.377025
23271		9.466655	0.625978	2.324013	0.000980	-0.004838	-0.004644	-0.669678	-0.440674	-0.386230	0.691116	0.331435	-0.520019	0.376949
23272		9.432028	0.609639	2.336527	-0.003335	-0.005040	-0.008595	-0.660400	-0.437988	-0.393066	0.691066	0.331562	-0.520069	0.376858
23273		9.447614	0.625962	2.331381	-0.004609	-0.004609	-0.005209	-0.667480	-0.430176	-0.392578	0.691187	0.331511	-0.520039	0.376725
23274		9.457453	0.610562	2.355010	-0.003151	-0.003775	-0.002141	-0.666260	-0.440918	-0.381836	0.691197	0.331328	-0.520150	0.376713
23275		9.452631	0.603732	2.332002	-0.001430	-0.003130	-0.002990	-0.665039	-0.434326	-0.387207	0.691096	0.331508	-0.520185	0.376691
23276		9.464392	0.610521	2.326569	0.002216	-0.004227	-0.003900	-0.666748	-0.441406	-0.392822	0.691054	0.331534	-0.520232	0.376680
23277		9.468839	0.629897	2.340159	0.004962	-0.001838	-0.000578	-0.664551	-0.440430	-0.387207	0.691076	0.331569	-0.520181	0.376681
23278		9.459819	0.634825	2.323578	-0.001344	0.003037	-0.000411	-0.666992	-0.440918	-0.394287	0.691097	0.331601	-0.520135	0.376676
23279		9.436506	0.623166	2.333102	-0.000527	0.000276	-0.002125	-0.667725	-0.442627	-0.385742	0.691177	0.331556	-0.520086	0.376638
23280		9.456317	0.636578	2.337475	-0.000393	0.000495	-0.005137	-0.669434	-0.435059	-0.384033	0.691152	0.331690	-0.520062	0.376597
23281		9.442517	0.630773	2.377177	-0.001985	-0.000559	-0.005194	-0.666748	-0.434570	-0.388184	0.691073	0.331718	-0.520152	0.376595
23282		9.424282	0.610555	2.323508	-0.001781	-0.002946	-0.004407	-0.661377	-0.441162	-0.381104	0.691057	0.331683	-0.520217	0.376565
23283		9.479636	0.630353	2.321828	-0.002148	0.001517	-0.002261	-0.659668	-0.440918	-0.384766	0.691028	0.331839	-0.520174	0.376540
23284		9.487325	0.628077	2.317012	-0.007751	-0.000241	-0.006467	-0.663330	-0.435791	-0.388916	0.691096	0.331919	-0.520123	0.376415
23285		9.465147	0.650300	2.289842	-0.013884	0.004539	-0.005593	-0.672363	-0.433594	-0.394287	0.691229	0.331757	-0.520132	0.376301
23286		9.419855	0.604370	2.324835	-0.013501	0.002687	-0.006206	-0.663086	-0.441162	-0.390137	0.691329	0.331483	-0.520237	0.376215
23287		9.412564	0.596945	2.338255	-0.006691	0.000462	-0.006432	-0.661621	-0.436523	-0.386963	0.691428	0.331492	-0.520184	0.376097
23288		9.448552	0.614235	2.345953	-0.001701	-0.004296	-0.004825	-0.670898	-0.430420	-0.392578	0.691427	0.331533	-0.520206	0.376032
23289		9.483543	0.633225	2.331133	-0.006071	-0.006073	-0.006182	-0.665771	-0.445068	-0.391113	0.691418	0.331348	-0.520379	0.375973
23290		9.480063	0.625291	2.329082	-0.004805	-0.007758	-0.005358	-0.667236	-0.443848	-0.387695	0.691445	0.331446	-0.520380	0.375834
23291		9.451937	0.627890	2.320759	-0.004514	-0.003352	-0.004095	-0.673584	-0.432617	-0.388184	0.691432	0.331546	-0.520393	0.375753
23292		9.425134	0.586688	2.323350	-0.001215	0.003257	-0.003422	-0.668213	-0.434570	-0.389893	0.691373	0.331441	-0.520501	0.375806
23293		9.459199	0.612101	2.381368	0.002801	0.004590	-0.001377	-0.674805	-0.429199	-0.389648	0.691373	0.331366	-0.520504	0.375866
23294		9.464597	0.643862	2.353727	0.001517	0.003664	-0.003740	-0.665527	-0.432617	-0.387939	0.691309	0.331213	-0.520625	0.375952
23295		9.448309	0.641394	2.350453	-0.004491	0.000515	-0.006771	-0.670898	-0.435547	-0.387939	0.691334	0.331141	-0.520672	0.375902
23296		9.431675	0.629266	2.332746	-0.008334	-0.001540	-0.006002	-0.671875	-0.438477	-0.382812	0.691313	0.331082	-0.520781	0.375844
23297		9.455292	0.600184	2.311344	-0.004720	-0.000965	-0.004882	-0.660889	-0.433105	-0.395996	0.691200	0.331176	-0.520873	0.375841
23298		9.486614	0.619644	2.311384	-0.000381	0.003109	-0.003601	-0.667725	-0.435791	-0.395264	0.691373	0.330985	-0.520809	0.375780
23299		9.463022	0.629515	2.327082	-0.000831	0.001406	-0.004036	-0.667725	-0.432129	-0.389648	0.691462	0.330855	-0.520802	0.375740
23300		9.436434	0.618788	2.349865	-0.001669	0.000925	-0.001751	-0.668701	-0.437012	-0.388672	0.691451	0.330748	-0.520868	0.375762
23301		9.443763	0.606544	2.330804	-0.000496	-0.002018	-0.002051	-0.665039	-0.437256	-0.387207	0.691404	0.330759	-0.520920	0.375767
23302		9.458795	0.612570	2.312100	0.002397	-0.004313	-0.003198	-0.673340	-0.434570	-0.390381	0.691351	0.330845	-0.520942	0.375758
23303		9.459401	0.623207	2.325201	0.004567	-0.001961	-0.003611	-0.663086	-0.439941	-0.389893	0.691273	0.330835	-0.521019	0.375805
23304		9.475344	0.648596	2.334411	0.000290	-0.003110	-0.001737	-0.663818	-0.435059	-0.386963	0.691295	0.330879	-0.520995	0.375760
23305		9.440196	0.621559	2.333725	0.001449	-0.000518	-0.002681	-0.670410	-0.437744	-0.385498	0.691276	0.330902	-0.521000	0.375766
23306		9.441921	0.629927	2.369025	-0.001687	-0.002315	-0.001183	-0.672363	-0.440918	-0.392090	0.691178	0.330952	-0.521080	0.375791
23307		9.449193	0.638559	2.355291	-0.001526	-0.005018	-0.002014	-0.662109	-0.436279	-0.388428	0.691148	0.330956	-0.521143	0.375756
23308		9.457202	0.635989	2.349285	-0.001252	-0.003223	-0.002288	-0.662598	-0.442383	-0.379395	0.691164	0.330957	-0.521152	0.375713
23309		9.453495	0.627225	2.348434	-0.003920	-0.000077	-0.000922	-0.671143	-0.436035	-0.381592	0.691087	0.331148	-0.521133	0.375713
23310		9.437024	0.614152	2.330348	-0.006233	-0.004003	-0.003250	-0.675537	-0.439697	-0.386719	0.690959	0.331201	-0.521276	0.375704
23311		9.445202	0.642283	2.344529	-0.004819	-0.002855	-0.003901	-0.666260	-0.440430	-0.394287	0.690875	0.331231	-0.521383	0.375683
23312		9.467793	0.631084	2.385747	-0.006972	-0.001968	-0.004055	-0.676025	-0.429688	-0.392334	0.690982	0.331152	-0.521369	0.375574
23313		9.434568	0.625908	2.355792	-0.006588	-0.004448	-0.002563	-0.676270	-0.434814	-0.390381	0.690951	0.330928	-0.521577	0.375541
23314		9.458586	0.626989	2.353841	-0.006137	-0.002116	-0.004235	-0.661865	-0.427002	-0.387451	0.690920	0.330822	-0.521711	0.375506
23315		9.468703	0.656385	2.333422	-0.011858	-0.000862	-0.006002	-0.668213	-0.435303	-0.389893	0.691002	0.330623	-0.521809	0.375393
23316		9.445356	0.614484	2.322251	-0.010284	-0.003045	-0.005378	-0.658691	-0.432861	-0.391846	0.691046	0.330528	-0.521891	0.375283
23317		9.399695	0.600681	2.353614	-0.004563	-0.004299	-0.003612	-0.670898	-0.432129	-0.387451	0.691151	0.330422	-0.521901	0.375167
23318		9.432046	0.608642	2.360228	-0.000818	-0.004128	-0.003398	-0.669678	-0.437500	-0.386475	0.691077	0.330398	-0.522010	0.375174
23319		9.483041	0.631315	2.349250	-0.002633	-0.005407	-0.005785	-0.677979	-0.432617	-0.398438	0.691020	0.330472	-0.522073	0.375126
23320		9.493170	0.630571	2.307686	-0.004048	-0.006557	-0.005136	-0.668701	-0.441895	-0.385010	0.691046	0.330267	-0.522230	0.375041
23321		9.451671	0.605082	2.332946	-0.003599	-0.004853	-0.004700	-0.668701	-0.437012	-0.388672	0.690990	0.330406	-0.522255	0.374986
23322		9.432566	0.602872	2.341311	-0.000255	-0.006071	-0.003307	-0.667725	-0.434570	-0.386719	0.690950	0.330443	-0.522311	0.374950
23323		9.436831	0.591777	2.334562	0.001914	-0.003717	-0.003717	-0.666992	-0.434326	-0.388184	0.690899	0.330486	-0.522352	0.374949
23324		9.465412	0.642607	2.366477	0.001417	-0.006365	-0.003665	-0.666992	-0.433350	-0.390137	0.690858	0.330510	-0.522410	0.374921
23325		9.463964	0.635664	2.329486	-0.004130	-0.005207	-0.004720	-0.668213	-0.442627	-0.391357	0.690880	0.330442	-0.522481	0.374842
23326		9.465901	0.592749	2.338177	-0.004292	-0.002505	-0.003885	-0.671631	-0.436279	-0.378418	0.690935	0.330458	-0.522465	0.374748
23327		9.440439	0.585009	2.303067	-0.003070	-0.004502	-0.004681	-0.658691	-0.425781	-0.395508	0.690775	0.330608	-0.522568	0.374767
23328		9.439114	0.594265	2.351012	-0.002410	-0.005186	-0.003462	-0.662598	-0.436279	-0.386230	0.690912	0.330366	-0.522622	0.374652
23329		9.444439	0.616366	2.307221	0.002478	-0.006290	-0.001520	-0.665527	-0.437256	-0.383301	0.690872	0.330445	-0.522636	0.374638
23330		9.480973	0.612296	2.307601	0.001771	-0.006550	-0.002250	-0.667236	-0.436768	-0.383301	0.690779	0.330575	-0.522673	0.374643
23331		9.489905	0.598798	2.308583	0.000966	-0.008069	-0.004107	-0.664551	-0.427734	-0.381592	0.690678	0.330705	-0.522736	0.374627
23332		9.457355	0.603701	2.291485	0.002606	-0.006697	-0.002430	-0.664551	-0.437500	-0.391846	0.690564	0.330735	-0.522843	0.374660
23333		9.445827	0.619491	2.300695	0.004549	-0.005193	-0.003060	-0.663330	-0.440918	-0.386475	0.690600	0.330750	-0.522823	0.374610
23334		9.473723	0.630082	2.298540	0.000274	-0.005720	-0.003291	-0.663574	-0.434326	-0.387939	0.690593	0.330860	-0.522801	0.374556
23335		9.472284	0.608788	2.326221	-0.001270	-0.005834	-0.003841	-0.668457	-0.437744	-0.387207	0.690606	0.330848	-0.522838	0.374490
23336		9.464249	0.603174	2.316091	-0.002639	-0.005410	-0.005790	-0.670898	-0.437988	-0.386475	0.690596	0.330884	-0.522881	0.374418
23337		9.479729	0.619107	2.311059	-0.003812	-0.003099	-0.003375	-0.668213	-0.433838	-0.385010	0.690569	0.330893	-0.522936	0.374383
23338		9.458442	0.629608	2.290618	-0.005789	-0.002307	-0.002816	-0.667969	-0.440186	-0.390869	0.690551	0.330848	-0.523011	0.374350
23339		9.448281	0.621947	2.316449	-0.002346	-0.002264	-0.000299	-0.671143	-0.432861	-0.386230	0.690587	0.330813	-0.523016	0.374308
23340		9.469239	0.602711	2.322058	-0.000808	-0.000888	-0.003965	-0.667969	-0.440674	-0.382812	0.690557	0.330780	-0.523075	0.374309
23341		9.437605	0.605965	2.328111	-0.001436	-0.002500	-0.005114	-0.672119	-0.436035	-0.387451	0.690513	0.330909	-0.523070	0.374283
23342		9.443841	0.626763	2.307074	-0.005746	-0.000732	-0.005415	-0.666260	-0.439209	-0.385010	0.690526	0.330860	-0.523125	0.374227
23343		9.474925	0.615949	2.286782	-0.005169	0.000565	-0.005885	-0.671143	-0.437744	-0.381836	0.690559	0.330897	-0.523102	0.374165
23344		9.484737	0.600721	2.311209	-0.001997	-0.001188	-0.003097	-0.668213	-0.430908	-0.389893	0.690484	0.330968	-0.523146	0.374180
23345		9.466108	0.631379	2.284745	-0.003850	0.006712	-0.000422	-0.666504	-0.434082	-0.382812	0.690567	0.330771	-0.523156	0.374186
23346		9.415133	0.610027	2.295722	-0.007019	0.000950	-0.006237	-0.675293	-0.442139	-0.379883	0.690579	0.330761	-0.523182	0.374137
23347		9.426215	0.638309	2.297576	-0.002616	0.001073	-0.006915	-0.668701	-0.433105	-0.387695	0.690491	0.330921	-0.523190	0.374145
23348		9.507078	0.616205	2.304209	-0.000104	0.000004	-0.005346	-0.666504	-0.432129	-0.386719	0.690510	0.330880	-0.523212	0.374116
23349		9.484467	0.614364	2.327181	-0.001768	-0.000967	-0.000770	-0.666992	-0.437988	-0.380615	0.690510	0.330805	-0.523262	0.374113
23350		9.432689	0.625257	2.335303	-0.000100	-0.000627	-0.003238	-0.662109	-0.438721	-0.391113	0.690444	0.330920	-0.523257	0.374141
23351		9.432619	0.626309	2.335304	-0.000588	0.000596	-0.005856	-0.656006	-0.426758	-0.390381	0.690550	0.330916	-0.523172	0.374066
23352		9.416781	0.602896	2.325406	-0.000151	-0.000941	-0.004857	-0.663818	-0.429932	-0.383057	0.690669	0.330776	-0.523162	0.373985
23353		9.474760	0.599036	2.361267	0.000568	0.002561	-0.004687	-0.671631	-0.431885	-0.380371	0.690670	0.330761	-0.523159	0.374001
23354		9.494347	0.626538	2.301268	-0.003522	0.000674	0.000008	-0.675537	-0.436768	-0.384521	0.690573	0.330741	-0.523250	0.374069
23355		9.477097	0.604246	2.270402	-0.000661	0.005188	-0.005997	-0.663574	-0.435791	-0.388672	0.690552	0.330762	-0.523246	0.374097
23356		9.430694	0.612121	2.310032	-0.002031	0.005611	-0.007948	-0.666992	-0.433350	-0.384766	0.690669	0.330727	-0.523159	0.374034
23357		9.423041	0.656613	2.350653	-0.004266	0.007213	-0.005571	-0.673828	-0.436035	-0.392822	0.690725	0.330670	-0.523126	0.374025
23358		9.447243	0.616125	2.338195	-0.005377	0.001688	-0.002453	-0.669678	-0.435059	-0.383301	0.690787	0.330523	-0.523175	0.373973
23359		9.481716	0.603958	2.304367	-0.005125	-0.002997	-0.001604	-0.668701	-0.442139	-0.384766	0.690724	0.330525	-0.523255	0.373975
23360		9.465385	0.621548	2.306362	-0.003846	-0.000806	-0.003452	-0.665771	-0.441895	-0.396973	0.690704	0.330610	-0.523239	0.373961
23361		9.458758	0.623195	2.333443	-0.001407	0.002719	-0.002020	-0.663330	-0.434082	-0.380859	0.690844	0.330525	-0.523154	0.373895
23362		9.455208	0.624664	2.347761	-0.002736	0.004719	-0.006570	-0.672852	-0.441162	-0.385986	0.690855	0.330573	-0.523106	0.373899
23363		9.434653	0.603700	2.330362	-0.002215	0.001832	-0.005990	-0.668213	-0.440674	-0.385986	0.690846	0.330637	-0.523087	0.373886
23364		9.454261	0.617328	2.335184	-0.002116	0.002458	-0.002751	-0.673340	-0.433838	-0.381104	0.690851	0.330677	-0.523049	0.373894
23365		9.488538	0.636267	2.322627	-0.000696	0.006853	-0.003959	-0.666260	-0.435059	-0.386719	0.690808	0.330683	-0.523057	0.373958
23366		9.494608	0.636080	2.297487	-0.003255	0.006974	-0.005043	-0.656006	-0.436279	-0.388672	0.690878	0.330632	-0.523005	0.373947
23367		9.432306	0.618699	2.327866	-0.001927	0.009479	-0.005272	-0.669922	-0.439209	-0.393555	0.691032	0.330594	-0.522844	0.373921
23368		9.433742	0.606205	2.359712	-0.001651	0.010012	-0.001323	-0.667480	-0.438721	-0.393799	0.691142	0.330482	-0.522758	0.373936
23369		9.449797	0.620148	2.379069	-0.001060	0.003797	-0.004822	-0.666992	-0.432861	-0.390381	0.691238	0.330425	-0.522697	0.373894
23370		9.453749	0.623986	2.308897	0.000194	-0.003101	-0.007099	-0.664795	-0.441406	-0.385010	0.691260	0.330401	-0.522726	0.373834
23371		9.450465	0.626138	2.321885	0.000027	-0.000400	-0.006260	-0.662598	-0.427246	-0.391602	0.691253	0.330525	-0.522670	0.373816
23372		9.486900	0.631815	2.338483	-0.004214	0.006259	0.000263	-0.673340	-0.429932	-0.389160	0.691356	0.330296	-0.522682	0.373812
23373		9.456965	0.620788	2.375611	-0.005110	0.003482	-0.002729	-0.661865	-0.435791	-0.395996	0.691372	0.330143	-0.522759	0.373809
23374		9.425788	0.626683	2.326098	-0.005999	0.003945	-0.006282	-0.669189	-0.432861	-0.386719	0.691546	0.330003	-0.522701	0.373692
23375		9.437807	0.622472	2.330353	-0.007365	0.003735	-0.006125	-0.663330	-0.438477	-0.389893	0.691580	0.329932	-0.522726	0.373657
23376		9.430863	0.593930	2.338113	-0.004407	0.004375	-0.004110	-0.669678	-0.435547	-0.390137	0.691664	0.329897	-0.522666	0.373616
23377		9.452046	0.615154	2.378968	-0.003838	0.002433	-0.004019	-0.665771	-0.431152	-0.393555	0.691698	0.329836	-0.522677	0.373593
23378		9.443593	0.609198	2.370759	-0.006219	0.002460	-0.004395	-0.669678	-0.431885	-0.394043	0.691795	0.329675	-0.522700	0.373523
23379		9.447134	0.619131	2.371760	-0.002259	0.000887	-0.005507	-0.666992	-0.429932	-0.384277	0.691854	0.329563	-0.522729	0.373471
23380		9.458197	0.616656	2.353191	-0.002393	-0.001948	-0.004037	-0.656494	-0.433838	-0.389893	0.691793	0.329568	-0.522790	0.373495
23381		9.442556	0.592616	2.342969	0.000788	-0.000456	-0.001799	-0.664307	-0.440674	-0.392090	0.691842	0.329553	-0.522747	0.373476
23382		9.450230	0.620816	2.358545	0.002119	0.005291	-0.002585	-0.671143	-0.434814	-0.385010	0.691914	0.329557	-0.522649	0.373477
23383		9.446529	0.622181	2.373370	-0.000702	0.006853	-0.003962	-0.666260	-0.432617	-0.397705	0.691894	0.329568	-0.522620	0.373545
23384		9.444468	0.645947	2.359270	-0.005249	0.005150	-0.006045	-0.670410	-0.428711	-0.388184	0.692050	0.329382	-0.522600	0.373447
23385		9.444243	0.616397	2.339737	-0.001640	-0.000742	-0.003796	-0.664795	-0.433838	-0.388916	0.692010	0.329329	-0.522671	0.373471
23386		9.441255	0.596753	2.347157	-0.000444	0.002169	-0.003112	-0.668701	-0.434570	-0.397461	0.692025	0.329311	-0.522652	0.373484
23387		9.447715	0.626991	2.340820	-0.004991	0.000465	-0.005196	-0.665771	-0.433594	-0.399170	0.692130	0.329167	-0.522679	0.373379
23388		9.460701	0.611280	2.352308	-0.005032	0.002761	-0.005266	-0.668457	-0.438721	-0.391113	0.692281	0.328987	-0.522675	0.373262
23389		9.433334	0.611899	2.367543	-0.004769	0.001317	-0.004976	-0.676514	-0.437500	-0.394043	0.692324	0.328964	-0.522672	0.373208
23390		9.457148	0.613420	2.366320	-0.001814	-0.001282	-0.002397	-0.671143	-0.427734	-0.389893	0.692312	0.328908	-0.522735	0.373193
23391		9.457582	0.593030	2.359921	-0.001463	-0.000835	-0.003087	-0.664795	-0.433105	-0.392090	0.692268	0.328842	-0.522806	0.373231
23392		9.429994	0.614381	2.380611	-0.001641	-0.000742	-0.003798	-0.666260	-0.436768	-0.395264	0.692300	0.328795	-0.522817	0.373199
23393		9.459564	0.626552	2.344782	0.000121	0.000862	-0.005133	-0.668945	-0.438232	-0.386719	0.692373	0.328752	-0.522792	0.373136
23394		9.447940	0.621057	2.349544	-0.000793	0.001089	-0.000312	-0.669922	-0.444336	-0.395020	0.692326	0.328788	-0.522792	0.373191
23395		9.457663	0.605286	2.374481	-0.004148	0.002928	-0.003824	-0.663574	-0.434326	-0.391602	0.692417	0.328747	-0.522758	0.373106
23396		9.439400	0.615546	2.341633	-0.001067	0.000558	-0.004267	-0.667725	-0.442383	-0.383789	0.692455	0.328723	-0.522741	0.373080
23397		9.439755	0.625940	2.355549	-0.000626	-0.000978	-0.003265	-0.661621	-0.433350	-0.390869	0.692394	0.328854	-0.522723	0.373104
23398		9.461103	0.616678	2.375459	-0.001197	0.000962	-0.003356	-0.669922	-0.442871	-0.387695	0.692431	0.328824	-0.522701	0.373092
23399		9.464393	0.616908	2.361892	-0.004994	-0.002777	-0.004640	-0.665283	-0.435791	-0.396729	0.692412	0.328886	-0.522724	0.373042
23400		9.440627	0.616790	2.362556	-0.002435	-0.002895	-0.003552	-0.676025	-0.437256	-0.386230	0.692473	0.328811	-0.522746	0.372963
23401		9.440724	0.617576	2.361960	-0.002084	-0.002447	-0.004242	-0.662109	-0.429932	-0.394531	0.692389	0.328861	-0.522811	0.372982
23402		9.460054	0.621679	2.352182	-0.001905	0.000701	-0.004089	-0.670166	-0.437500	-0.392334	0.692457	0.328764	-0.522808	0.372946
23403		9.446652	0.639082	2.341838	-0.006796	0.004394	-0.004492	-0.666016	-0.437500	-0.383789	0.692526	0.328682	-0.522802	0.372899
23404		9.438205	0.602846	2.313664	-0.005436	0.001999	-0.006202	-0.671631	-0.432373	-0.381104	0.692516	0.328741	-0.522782	0.372894
23405		9.401036	0.605185	2.368673	-0.000674	-0.001289	-0.004889	-0.669434	-0.439209	-0.382568	0.692400	0.328832	-0.522826	0.372967
23406		9.466049	0.610097	2.391345	0.001529	-0.001220	-0.005223	-0.665039	-0.435791	-0.382812	0.692313	0.328980	-0.522813	0.373016
23407		9.447985	0.620692	2.357563	-0.001776	-0.002945	-0.004443	-0.666016	-0.435791	-0.396484	0.692244	0.329076	-0.522828	0.373040
23408		9.446034	0.620254	2.392005	-0.003142	-0.003157	-0.004288	-0.667969	-0.436035	-0.393311	0.692302	0.329005	-0.522854	0.372957
23409		9.468033	0.605010	2.340207	-0.000194	-0.004487	-0.005933	-0.670410	-0.430664	-0.382324	0.692309	0.329011	-0.522882	0.372900
23410		9.422116	0.612217	2.377347	-0.000545	-0.004935	-0.005244	-0.665527	-0.442139	-0.381592	0.692197	0.329083	-0.522961	0.372935
23411		9.421858	0.634257	2.382474	-0.000146	-0.004176	-0.004311	-0.669678	-0.437500	-0.387939	0.692105	0.329261	-0.522944	0.372970
23412		9.439413	0.606270	2.386876	-0.001943	-0.004121	-0.000931	-0.665527	-0.435791	-0.385986	0.692049	0.329280	-0.522998	0.372984
23413		9.485599	0.631275	2.368067	-0.005303	-0.002283	-0.004444	-0.662354	-0.433350	-0.392822	0.692032	0.329298	-0.523023	0.372962
23414		9.434211	0.621255	2.369746	-0.006805	-0.001457	-0.005489	-0.660400	-0.431885	-0.387207	0.692105	0.329217	-0.523040	0.372874
23415		9.411237	0.609622	2.378464	-0.004418	-0.002114	-0.003000	-0.670654	-0.435791	-0.382080	0.692109	0.329196	-0.523060	0.372859
23416		9.423701	0.604975	2.381139	-0.000054	-0.002918	-0.003179	-0.671143	-0.441650	-0.389648	0.692006	0.329287	-0.523099	0.372914
23417		9.442770	0.599767	2.356772	0.003952	-0.003536	-0.004782	-0.670166	-0.434326	-0.392334	0.691957	0.329397	-0.523083	0.372931
23418		9.473356	0.631067	2.347717	0.001184	-0.005542	-0.001867	-0.669922	-0.441895	-0.387695	0.691923	0.329377	-0.523149	0.372919
23419		9.465889	0.634376	2.351247	-0.001991	-0.007674	-0.001999	-0.667725	-0.437500	-0.381592	0.691848	0.329458	-0.523200	0.372913
23420		9.446111	0.612222	2.331505	-0.003001	-0.004832	-0.000976	-0.668945	-0.440918	-0.388916	0.691750	0.329535	-0.523252	0.372956
23421		9.439266	0.634562	2.363688	-0.001908	-0.002541	-0.003535	-0.668945	-0.427002	-0.392578	0.691731	0.329584	-0.523248	0.372952
23422		9.443565	0.623775	2.357124	-0.003508	-0.005580	-0.007271	-0.669678	-0.443359	-0.388184	0.691757	0.329484	-0.523354	0.372845
23423		9.437679	0.604987	2.376636	-0.004732	-0.004225	-0.004357	-0.670410	-0.437012	-0.391113	0.691735	0.329548	-0.523364	0.372815
23424		9.435675	0.618970	2.346431	-0.005835	-0.002641	-0.004467	-0.667969	-0.428711	-0.392090	0.691753	0.329505	-0.523408	0.372757
23425		9.453646	0.600471	2.364852	-0.002872	-0.005237	-0.001890	-0.665039	-0.439697	-0.387939	0.691749	0.329402	-0.523510	0.372713
23426		9.429647	0.590723	2.350954	-0.001606	-0.005646	-0.005295	-0.671631	-0.440430	-0.393311	0.691724	0.329485	-0.523510	0.372686
23427		9.468407	0.628766	2.350808	0.000252	-0.003415	-0.003383	-0.663574	-0.439697	-0.387207	0.691721	0.329499	-0.523520	0.372665
23428		9.461212	0.611369	2.348910	-0.002788	-0.003346	-0.002869	-0.664062	-0.435059	-0.388428	0.691705	0.329553	-0.523508	0.372664
23429		9.441232	0.620115	2.349764	-0.003631	-0.005811	-0.004249	-0.655762	-0.440186	-0.393555	0.691691	0.329566	-0.523546	0.372624
23430		9.425440	0.617060	2.344782	-0.001865	-0.004838	-0.003472	-0.666748	-0.427490	-0.387207	0.691736	0.329606	-0.523489	0.372586
23431		9.449892	0.628222	2.356501	-0.002968	-0.003253	-0.003581	-0.668945	-0.443359	-0.387939	0.691719	0.329543	-0.523567	0.372564
23432		9.508021	0.638777	2.326597	-0.003760	-0.005407	-0.003338	-0.670898	-0.438721	-0.379639	0.691685	0.329611	-0.523583	0.372543
23433		9.470522	0.645455	2.302730	-0.004511	0.002475	-0.003131	-0.663330	-0.437988	-0.386230	0.691639	0.329660	-0.523580	0.372591
23434		9.426240	0.598706	2.336611	-0.005446	-0.001247	-0.005648	-0.663574	-0.433594	-0.386475	0.691654	0.329693	-0.523559	0.372564
23435		9.413376	0.625792	2.339394	-0.001339	-0.001240	-0.004005	-0.667969	-0.434814	-0.389404	0.691648	0.329706	-0.523555	0.372569
23436		9.457520	0.619877	2.335503	-0.000379	-0.004392	-0.006657	-0.667725	-0.436035	-0.386475	0.691640	0.329732	-0.523578	0.372528
23437		9.498136	0.605122	2.330444	0.002629	-0.006041	-0.004570	-0.670410	-0.434082	-0.387939	0.691577	0.329815	-0.523603	0.372537
23438		9.486054	0.611441	2.325743	0.001442	-0.006349	-0.003702	-0.664795	-0.437744	-0.389404	0.691520	0.329842	-0.523667	0.372529
23439		9.477174	0.617285	2.307846	0.004436	-0.004121	-0.004282	-0.668213	-0.434326	-0.389160	0.691491	0.329927	-0.523637	0.372549
23440		9.440354	0.619355	2.362266	0.001263	-0.000407	-0.003407	-0.670898	-0.432861	-0.386475	0.691488	0.329920	-0.523636	0.372561
23441		9.406778	0.590108	2.383617	0.001843	0.000260	-0.001760	-0.665039	-0.429932	-0.391602	0.691455	0.329905	-0.523659	0.372604
23442		9.463807	0.612022	2.346646	0.005817	-0.001934	-0.000766	-0.667969	-0.432373	-0.388672	0.691442	0.329874	-0.523670	0.372642
23443		9.492606	0.621087	2.367452	0.003548	0.001558	-0.004721	-0.669922	-0.442383	-0.383789	0.691447	0.329873	-0.523645	0.372667
23444		9.431581	0.606404	2.339175	-0.002136	-0.000154	-0.004315	-0.662598	-0.429443	-0.387695	0.691415	0.329957	-0.523613	0.372697
23445		9.415924	0.612842	2.349264	-0.000452	-0.001071	-0.002560	-0.667236	-0.437012	-0.390137	0.691420	0.329915	-0.523628	0.372705
23446		9.455783	0.618250	2.351690	-0.002044	0.001103	-0.003179	-0.672852	-0.439209	-0.391113	0.691449	0.329889	-0.523606	0.372705
23447		9.471753	0.622981	2.355498	-0.005628	-0.001159	-0.006360	-0.665527	-0.440674	-0.389160	0.691483	0.329859	-0.523625	0.372641
23448		9.452058	0.611207	2.350888	-0.004124	-0.001983	-0.005317	-0.671143	-0.436523	-0.377930	0.691504	0.329890	-0.523599	0.372611
23449		9.464617	0.630909	2.303086	-0.002347	-0.001643	-0.002425	-0.660645	-0.441406	-0.391357	0.691412	0.329958	-0.523633	0.372674
23450		9.450904	0.614306	2.328222	-0.000405	-0.003367	-0.002497	-0.667480	-0.434082	-0.391602	0.691420	0.330013	-0.523580	0.372684
23451		9.450650	0.605638	2.313433	-0.002183	-0.003708	-0.005389	-0.661621	-0.437500	-0.382812	0.691439	0.329985	-0.523609	0.372633
23452		9.458443	0.634373	2.327859	0.000641	-0.002020	-0.004567	-0.670410	-0.441406	-0.386475	0.691402	0.330087	-0.523564	0.372675
23453		9.466774	0.641991	2.336015	-0.004734	-0.004232	-0.004363	-0.666748	-0.442627	-0.393799	0.691374	0.330130	-0.523588	0.372656
23454		9.484399	0.614345	2.340457	-0.006240	-0.003409	-0.005407	-0.671387	-0.437988	-0.386230	0.691419	0.330128	-0.523574	0.372593
23455		9.452898	0.586821	2.326211	-0.005323	-0.001657	-0.006564	-0.669678	-0.431152	-0.386963	0.691421	0.330134	-0.523596	0.372552
23456		9.463349	0.635555	2.333833	-0.005387	-0.001578	-0.001911	-0.665039	-0.440186	-0.392334	0.691418	0.330047	-0.523670	0.372532
23457		9.480294	0.628086	2.345367	-0.004197	0.001337	-0.001217	-0.664551	-0.439209	-0.384521	0.691462	0.330008	-0.523630	0.372542
23458		9.454999	0.629274	2.325394	-0.008358	0.001014	-0.004486	-0.663330	-0.424072	-0.389404	0.691485	0.330009	-0.523606	0.372530
23459		9.445253	0.600830	2.345778	-0.008359	0.001014	-0.004487	-0.670654	-0.434570	-0.392578	0.691558	0.329841	-0.523668	0.372457
23460		9.446492	0.599435	2.367690	-0.004999	-0.000183	-0.003091	-0.667236	-0.433105	-0.390137	0.691596	0.329749	-0.523702	0.372420
23461		9.421155	0.631385	2.367476	-0.005271	-0.001346	-0.004941	-0.661865	-0.438965	-0.396240	0.691628	0.329691	-0.523730	0.372373
23462		9.471627	0.624452	2.337510	-0.005460	0.001990	-0.006204	-0.665283	-0.436523	-0.386230	0.691738	0.329641	-0.523661	0.372310
23463		9.491267	0.607800	2.322115	-0.001827	0.001956	-0.002956	-0.667969	-0.439697	-0.395020	0.691741	0.329651	-0.523624	0.372347
23464		9.473534	0.636960	2.317630	-0.004131	0.003866	-0.004309	-0.669922	-0.429688	-0.387695	0.691824	0.329592	-0.523570	0.372323
23465		9.434717	0.631149	2.337654	-0.003605	0.001616	-0.005852	-0.657227	-0.434082	-0.394287	0.691847	0.329528	-0.523594	0.372302
23466		9.402858	0.634142	2.344504	-0.003297	0.001120	-0.006054	-0.664062	-0.435791	-0.384521	0.691937	0.329490	-0.523531	0.372256
23467		9.466098	0.631958	2.331707	-0.001005	-0.000153	-0.006816	-0.666260	-0.425293	-0.391357	0.691930	0.329554	-0.523492	0.372267
23468		9.463406	0.612846	2.338464	-0.000107	-0.003226	-0.004819	-0.665283	-0.429443	-0.388428	0.691936	0.329484	-0.523552	0.372234
23469		9.477339	0.631137	2.311851	0.000162	-0.004669	-0.004533	-0.669922	-0.440186	-0.391357	0.691909	0.329481	-0.523596	0.372223
23470		9.454556	0.620098	2.319994	0.002572	-0.003101	-0.006759	-0.668457	-0.430664	-0.396240	0.691901	0.329554	-0.523572	0.372209
23471		9.439932	0.615775	2.337225	0.000421	-0.002869	-0.004797	-0.673828	-0.426514	-0.389160	0.691934	0.329484	-0.523609	0.372159
23472		9.445179	0.593434	2.338575	0.001491	-0.002792	-0.002637	-0.666260	-0.436768	-0.388184	0.691888	0.329427	-0.523690	0.372179
23473		9.477297	0.601756	2.345719	0.002860	0.000032	-0.001228	-0.670410	-0.434814	-0.388428	0.691862	0.329459	-0.523660	0.372243
23474		9.483965	0.641321	2.353100	0.001133	0.000001	-0.002496	-0.663330	-0.423584	-0.384521	0.691840	0.329459	-0.523661	0.372282
23475		9.448763	0.604593	2.338795	0.000410	0.000373	-0.005347	-0.662598	-0.438965	-0.388672	0.691825	0.329438	-0.523671	0.372312
23476		9.408722	0.631011	2.356268	-0.002478	-0.003848	-0.003081	-0.665283	-0.430664	-0.387207	0.691818	0.329473	-0.523664	0.372306
23477		9.425151	0.605033	2.338782	-0.005609	-0.005044	-0.003705	-0.667236	-0.436768	-0.391846	0.691801	0.329438	-0.523732	0.372274
23478		9.474009	0.596403	2.342823	-0.002130	-0.003398	-0.003772	-0.664307	-0.429688	-0.381592	0.691810	0.329425	-0.523750	0.372242
23479		9.475900	0.629004	2.327065	-0.003716	-0.004469	-0.003840	-0.669922	-0.432129	-0.385498	0.691750	0.329450	-0.523796	0.372266
23480		9.457120	0.635561	2.350135	-0.003493	-0.001010	-0.002049	-0.667969	-0.440918	-0.386230	0.691719	0.329419	-0.523836	0.372294
23481		9.425133	0.628236	2.342214	-0.003805	-0.003120	-0.003414	-0.663330	-0.440186	-0.393066	0.691691	0.329469	-0.523835	0.372306
23482		9.441250	0.632939	2.345399	-0.001744	-0.002001	-0.004951	-0.656494	-0.432373	-0.391602	0.691730	0.329485	-0.523798	0.372269
23483		9.460640	0.637207	2.335027	-0.004553	-0.004330	-0.003662	-0.662354	-0.437012	-0.382568	0.691769	0.329448	-0.523811	0.372212
23484		9.445742	0.622471	2.338151	-0.002787	-0.003352	-0.002882	-0.665527	-0.440674	-0.389160	0.691720	0.329517	-0.523802	0.372254
23485		9.464241	0.638291	2.319719	-0.000949	-0.005692	-0.006212	-0.666260	-0.431396	-0.391602	0.691703	0.329599	-0.523792	0.372228
23486		9.453933	0.621925	2.330937	-0.001656	-0.003350	-0.005380	-0.666016	-0.437256	-0.382568	0.691722	0.329564	-0.523823	0.372180
23487		9.447159	0.614311	2.343185	-0.002402	-0.001955	-0.004060	-0.673828	-0.434570	-0.383789	0.691678	0.329629	-0.523811	0.372220
23488		9.471145	0.616178	2.341061	-0.001332	-0.004484	-0.003467	-0.669434	-0.439697	-0.391357	0.691605	0.329661	-0.523869	0.372247
23489		9.457140	0.614464	2.301412	-0.002749	-0.002406	-0.003370	-0.666260	-0.440918	-0.387939	0.691612	0.329657	-0.523874	0.372231
23490		9.469956	0.619391	2.318336	-0.003638	0.000029	-0.003250	-0.671631	-0.435303	-0.393311	0.691620	0.329679	-0.523838	0.372247
23491		9.464955	0.588934	2.346745	-0.001631	0.000840	-0.006416	-0.668213	-0.442627	-0.387695	0.691668	0.329635	-0.523832	0.372204
23492		9.432216	0.603306	2.345580	-0.002545	-0.000916	-0.005262	-0.669434	-0.428955	-0.392578	0.691667	0.329693	-0.523792	0.372210
23493		9.429748	0.647800	2.335911	-0.002297	-0.003943	-0.002373	-0.667969	-0.430664	-0.385498	0.691671	0.329603	-0.523871	0.372172
23494		9.488310	0.613363	2.350634	-0.000054	-0.000309	-0.001629	-0.667480	-0.444092	-0.389893	0.691639	0.329585	-0.523889	0.372222
23495		9.498760	0.631464	2.338292	-0.003148	-0.000561	-0.002741	-0.666748	-0.437256	-0.385986	0.691648	0.329614	-0.523850	0.372235
23496		9.446475	0.632020	2.332622	-0.007117	-0.001621	-0.003186	-0.666504	-0.429199	-0.384521	0.691647	0.329599	-0.523865	0.372229
23497		9.388069	0.603274	2.332954	-0.005664	-0.005357	-0.005341	-0.668457	-0.437012	-0.388672	0.691621	0.329580	-0.523938	0.372192
23498		9.448046	0.631833	2.353019	-0.001671	-0.000107	-0.005930	-0.673096	-0.437500	-0.391113	0.691634	0.329597	-0.523914	0.372186
23499		9.500029	0.623478	2.343920	-0.000548	-0.004931	-0.005280	-0.667236	-0.441650	-0.382812	0.691615	0.329615	-0.523948	0.372157
23500		9.465362	0.626734	2.362609	-0.000586	-0.005878	-0.004793	-0.668213	-0.444336	-0.387939	0.691542	0.329743	-0.523939	0.372194
23501		9.434817	0.618183	2.375974	0.000984	-0.001562	-0.005270	-0.665771	-0.435059	-0.394775	0.691522	0.329845	-0.523876	0.372228
23502		9.444922	0.627531	2.349223	-0.001257	-0.002590	-0.004446	-0.669922	-0.441895	-0.388428	0.691557	0.329813	-0.523878	0.372188
23503		9.444713	0.619083	2.334252	-0.004518	-0.005993	-0.005726	-0.669678	-0.432373	-0.387939	0.691536	0.329862	-0.523900	0.372153
23504		9.461868	0.612721	2.344854	-0.003786	-0.001539	-0.006023	-0.664795	-0.438965	-0.384277	0.691548	0.329831	-0.523928	0.372119
23505		9.471285	0.642885	2.324661	-0.004751	-0.000998	-0.004927	-0.670898	-0.434814	-0.387939	0.691543	0.329871	-0.523901	0.372131
23506		9.472879	0.611557	2.325902	-0.006481	-0.001032	-0.006197	-0.664795	-0.439697	-0.386963	0.691566	0.329830	-0.523929	0.372085
23507		9.428592	0.585452	2.365465	-0.006555	-0.002926	-0.005224	-0.663818	-0.432373	-0.387939	0.691572	0.329853	-0.523922	0.372063
23508		9.403136	0.577647	2.330327	-0.002042	-0.004749	-0.004211	-0.660645	-0.432373	-0.387939	0.691557	0.329856	-0.523951	0.372047
23509		9.462286	0.617515	2.341908	-0.000623	-0.006825	-0.004312	-0.663574	-0.436279	-0.393799	0.691529	0.329889	-0.523977	0.372034
23510		9.476970	0.614449	2.308038	0.001579	-0.008966	0.000071	-0.670410	-0.434082	-0.381836	0.691485	0.329904	-0.524023	0.372037
23511		9.474195	0.614928	2.319646	-0.000331	-0.006301	-0.000339	-0.666504	-0.439941	-0.392578	0.691386	0.329941	-0.524089	0.372096
23512		9.447457	0.614435	2.333120	0.000360	-0.005398	-0.001720	-0.658203	-0.439941	-0.388916	0.691364	0.329969	-0.524094	0.372105
23513		9.416130	0.616945	2.338079	0.004053	-0.008102	-0.004706	-0.674561	-0.422852	-0.383301	0.691316	0.330107	-0.524054	0.372128
23514		9.446524	0.648721	2.328324	-0.004376	-0.007036	-0.004531	-0.669189	-0.438232	-0.380615	0.691265	0.330029	-0.524209	0.372074
23515		9.474881	0.638986	2.319736	-0.006379	-0.005628	-0.006084	-0.666992	-0.434082	-0.395752	0.691216	0.330089	-0.524242	0.372064
23516		9.462640	0.610934	2.351591	-0.004885	-0.008033	-0.002439	-0.671143	-0.437256	-0.394043	0.691229	0.330018	-0.524327	0.371984
23517		9.457069	0.615791	2.319593	-0.004851	-0.009692	-0.004501	-0.659668	-0.438721	-0.391357	0.691219	0.329995	-0.524416	0.371896
23518		9.441474	0.612636	2.313913	-0.005434	-0.007753	-0.004581	-0.661621	-0.427979	-0.386475	0.691230	0.330014	-0.524434	0.371834
23519		9.461416	0.626519	2.316651	-0.001428	-0.005741	-0.004624	-0.669922	-0.436768	-0.389893	0.691211	0.330011	-0.524476	0.371812
23520		9.472046	0.645101	2.303106	0.001543	-0.005083	-0.002596	-0.660156	-0.431152	-0.391113	0.691176	0.330036	-0.524499	0.371824
23521		9.470297	0.604308	2.303019	0.003439	-0.001898	-0.001156	-0.662842	-0.433350	-0.376709	0.691177	0.330028	-0.524481	0.371856
23522		9.435030	0.628064	2.328270	0.005819	-0.007119	-0.003933	-0.662109	-0.443604	-0.388428	0.691051	0.330193	-0.524472	0.371954
23523		9.430819	0.631748	2.317950	0.001227	-0.009800	-0.005544	-0.669189	-0.438721	-0.382568	0.691002	0.330331	-0.524458	0.371943
23524		9.463565	0.644612	2.266489	-0.002416	-0.007170	-0.007219	-0.668701	-0.436035	-0.382568	0.690950	0.330423	-0.524480	0.371927
23525		9.498883	0.619336	2.296097	-0.002809	-0.000113	-0.003431	-0.670898	-0.432373	-0.387695	0.690932	0.330434	-0.524471	0.371962
23526		9.494558	0.631771	2.302075	-0.006306	0.001475	-0.003905	-0.668701	-0.444092	-0.392578	0.690972	0.330344	-0.524495	0.371936
23527		9.449998	0.629692	2.291639	-0.006345	-0.002078	-0.004996	-0.663330	-0.440186	-0.385742	0.691013	0.330338	-0.524476	0.371890
23528		9.395830	0.589302	2.286671	-0.002468	-0.002267	-0.005699	-0.669189	-0.444580	-0.385498	0.691014	0.330400	-0.524433	0.371895
23529		9.474533	0.612263	2.283033	-0.000356	-0.000832	-0.005607	-0.674805	-0.439209	-0.383545	0.690999	0.330491	-0.524370	0.371930
23530		9.515894	0.616711	2.306442	-0.003215	-0.003480	-0.005950	-0.666504	-0.442139	-0.380371	0.690967	0.330529	-0.524393	0.371923
23531		9.451218	0.622657	2.297430	-0.002044	-0.002146	-0.002642	-0.656982	-0.431641	-0.387207	0.690916	0.330611	-0.524362	0.371990
23532		9.433148	0.608475	2.314307	-0.001976	-0.002856	-0.005191	-0.667969	-0.442871	-0.390869	0.690934	0.330620	-0.524343	0.371974
23533		9.449880	0.592618	2.311189	0.002397	-0.001026	-0.003808	-0.663818	-0.437256	-0.389648	0.690929	0.330685	-0.524279	0.372017
23534		9.450310	0.603207	2.324787	0.005401	-0.002025	-0.003844	-0.669434	-0.438721	-0.381592	0.690910	0.330755	-0.524223	0.372067
23535		9.494838	0.607074	2.334882	0.005185	-0.000273	-0.002494	-0.664551	-0.435791	-0.385010	0.690849	0.330845	-0.524176	0.372168
23536		9.493730	0.653172	2.290666	0.001652	0.000366	-0.002481	-0.666260	-0.440186	-0.388428	0.690834	0.330874	-0.524134	0.372229
23537		9.471041	0.611021	2.279999	0.001976	0.004062	-0.003712	-0.665771	-0.439697	-0.384033	0.690856	0.330906	-0.524036	0.372296
23538		9.436359	0.623607	2.314766	0.002502	0.001815	-0.005267	-0.668701	-0.443848	-0.392822	0.690849	0.330984	-0.523951	0.372361
23539		9.430580	0.638481	2.298837	-0.000334	-0.001472	-0.003491	-0.660645	-0.438965	-0.376465	0.690854	0.331020	-0.523903	0.372387
23540		9.481126	0.631927	2.267863	-0.002320	-0.003310	-0.004501	-0.664551	-0.432617	-0.389893	0.690802	0.331120	-0.523873	0.372437
23541		9.474169	0.654630	2.300459	-0.003306	-0.002133	-0.005520	-0.666260	-0.439941	-0.388184	0.690833	0.331085	-0.523883	0.372397
23542		9.464977	0.626375	2.319923	-0.005853	-0.002672	-0.004489	-0.669678	-0.433350	-0.390137	0.690845	0.331085	-0.523879	0.372379
23543		9.453256	0.611393	2.310048	-0.003432	-0.001731	-0.004602	-0.670898	-0.434326	-0.384521	0.690868	0.331031	-0.523908	0.372344
23544		9.442345	0.615288	2.328116	-0.001425	-0.003138	-0.003052	-0.669678	-0.437988	-0.394531	0.690838	0.331023	-0.523946	0.372353
23545		9.455828	0.633538	2.302192	-0.004693	0.000888	-0.005902	-0.664062	-0.433838	-0.388672	0.690903	0.330970	-0.523925	0.372311
23546		9.468514	0.638901	2.319692	-0.006678	0.001655	-0.005334	-0.669922	-0.442139	-0.393799	0.690964	0.330905	-0.523909	0.372276
23547		9.458014	0.622303	2.332428	-0.008469	0.001309	-0.008237	-0.665283	-0.440918	-0.390625	0.691048	0.330867	-0.523872	0.372206
23548		9.446279	0.607878	2.322494	-0.002849	-0.006275	-0.006108	-0.674805	-0.432617	-0.389648	0.691042	0.330918	-0.523872	0.372173
23549		9.468898	0.612254	2.297990	0.001179	-0.004894	-0.004032	-0.671143	-0.442871	-0.384766	0.691011	0.330903	-0.523931	0.372161
23550		9.487931	0.646782	2.307843	-0.001458	-0.001480	-0.000988	-0.666992	-0.432617	-0.380859	0.690972	0.330934	-0.523920	0.372221
23551		9.479025	0.661356	2.305244	-0.006221	0.000118	-0.004340	-0.670166	-0.436768	-0.391113	0.690977	0.330896	-0.523939	0.372217
23552		9.440832	0.624655	2.304626	-0.005533	0.001023	-0.005722	-0.663574	-0.435547	-0.388184	0.691029	0.330843	-0.523931	0.372181
23553		9.435198	0.605479	2.324845	0.000560	-0.003903	-0.003624	-0.670166	-0.437012	-0.383301	0.691010	0.330873	-0.523926	0.372195
23554		9.454804	0.653333	2.291936	-0.004489	-0.002451	-0.004652	-0.665039	-0.440430	-0.382568	0.690995	0.330877	-0.523947	0.372191
23555		9.483297	0.653117	2.298412	-0.008173	-0.000775	-0.005840	-0.667236	-0.437500	-0.384033	0.691011	0.330889	-0.523929	0.372177
23556		9.488233	0.621343	2.286176	-0.004765	-0.001009	-0.004934	-0.666992	-0.435547	-0.388672	0.691014	0.330892	-0.523923	0.372176
23557		9.458230	0.625437	2.257611	-0.005971	-0.000687	-0.006181	-0.667480	-0.438477	-0.383057	0.691052	0.330857	-0.523924	0.372134
23558		9.428739	0.604797	2.279510	-0.003685	-0.000930	-0.002769	-0.667236	-0.437500	-0.385010	0.691035	0.330867	-0.523919	0.372165
23559		9.484558	0.614811	2.285400	0.002337	0.001276	-0.003864	-0.658447	-0.433105	-0.393799	0.691022	0.330910	-0.523865	0.372226
23560		9.493000	0.632124	2.308541	0.004540	0.001366	-0.004204	-0.666748	-0.438965	-0.376465	0.691058	0.330924	-0.523787	0.372257
23561		9.462261	0.623164	2.323336	0.002957	0.002892	-0.002693	-0.665771	-0.430908	-0.382324	0.691010	0.331007	-0.523714	0.372376
23562		9.455791	0.624843	2.350465	0.003451	-0.000302	-0.003766	-0.670898	-0.432861	-0.387207	0.690981	0.331032	-0.523700	0.372425
23563		9.420077	0.608858	2.342754	0.005997	0.002846	-0.003215	-0.673096	-0.437744	-0.384277	0.690973	0.331040	-0.523659	0.372493
23564		9.441647	0.633858	2.325967	0.004807	-0.001665	-0.001319	-0.667969	-0.442871	-0.381836	0.690907	0.331090	-0.523651	0.372580
23565		9.476569	0.632462	2.305375	0.002789	-0.001848	-0.000265	-0.665771	-0.433350	-0.381104	0.690834	0.331178	-0.523611	0.372695
23566		9.489052	0.628011	2.308232	-0.000795	0.000064	-0.004491	-0.672363	-0.443604	-0.384033	0.690821	0.331192	-0.523597	0.372725
23567		9.477079	0.613469	2.299405	-0.001466	0.004938	-0.006739	-0.664307	-0.443115	-0.388916	0.690843	0.331238	-0.523504	0.372775
23568		9.429042	0.612180	2.303543	0.001473	0.004655	-0.004222	-0.672607	-0.439697	-0.389648	0.690869	0.331289	-0.523382	0.372852
23569		9.429585	0.632003	2.332138	0.002487	0.000235	-0.002665	-0.673828	-0.441650	-0.390869	0.690854	0.331307	-0.523351	0.372906
23570		9.463095	0.632827	2.289558	-0.001924	-0.006744	-0.002542	-0.670898	-0.431641	-0.385498	0.690812	0.331326	-0.523396	0.372906
23571		9.482164	0.627953	2.264477	-0.002595	-0.004476	-0.006372	-0.668213	-0.444336	-0.386719	0.690802	0.331308	-0.523453	0.372858
23572		9.506860	0.609383	2.255841	-0.002755	-0.002417	-0.003385	-0.664795	-0.438232	-0.382568	0.690782	0.331357	-0.523425	0.372893
23573		9.468842	0.612098	2.289304	-0.001358	0.001362	-0.002447	-0.666504	-0.431641	-0.387939	0.690772	0.331375	-0.523383	0.372954
23574		9.444187	0.632101	2.297360	-0.001918	0.000054	-0.001985	-0.664307	-0.438965	-0.395508	0.690785	0.331315	-0.523399	0.372962
23575		9.457402	0.606808	2.293922	-0.004983	-0.001868	-0.005165	-0.661377	-0.445312	-0.386719	0.690834	0.331286	-0.523383	0.372919
23576		9.473362	0.611929	2.297525	-0.005412	0.000615	-0.006647	-0.664307	-0.433105	-0.383789	0.690865	0.331343	-0.523298	0.372929
23577		9.472133	0.624409	2.290047	-0.006408	0.000203	-0.005060	-0.670166	-0.447510	-0.391357	0.690895	0.331298	-0.523306	0.372904
23578		9.459601	0.630049	2.287040	-0.006382	-0.000437	-0.002940	-0.671143	-0.433594	-0.390137	0.690909	0.331302	-0.523270	0.372923
23579		9.466713	0.614658	2.325116	-0.003806	0.003661	-0.002874	-0.669434	-0.437012	-0.389160	0.690955	0.331211	-0.523266	0.372925
23580		9.484134	0.620875	2.294679	-0.001386	0.004607	-0.002985	-0.663818	-0.431885	-0.389648	0.690990	0.331171	-0.523217	0.372965
23581		9.470643	0.647483	2.298845	-0.003897	0.002405	-0.004024	-0.668457	-0.440918	-0.385986	0.691041	0.331103	-0.523201	0.372954
23582		9.440969	0.626521	2.321700	-0.006504	0.004156	-0.003045	-0.666992	-0.434082	-0.385254	0.691077	0.331064	-0.523157	0.372983
23583		9.476606	0.613933	2.310411	-0.004981	0.004929	-0.004609	-0.670166	-0.444580	-0.391357	0.691127	0.331005	-0.523123	0.372991
23584		9.449751	0.623047	2.339992	-0.004180	-0.000346	-0.003283	-0.668457	-0.433105	-0.381592	0.691137	0.331010	-0.523092	0.373011
23585		9.435827	0.630738	2.314938	-0.005852	-0.002683	-0.004504	-0.664795	-0.441650	-0.390869	0.691125	0.330982	-0.523139	0.372991
23586		9.467166	0.620602	2.293943	-0.005729	-0.000479	-0.003841	-0.676270	-0.439453	-0.376465	0.691152	0.330974	-0.523110	0.372990
23587		9.493511	0.652624	2.300266	-0.004733	0.006732	-0.004866	-0.668457	-0.434082	-0.386475	0.691162	0.330958	-0.523066	0.373047
23588		9.454474	0.636627	2.306791	-0.008052	0.001418	-0.005189	-0.672119	-0.442627	-0.388184	0.691206	0.330885	-0.523079	0.373011
23589		9.399656	0.616523	2.308729	-0.004054	-0.000747	-0.004205	-0.666260	-0.440918	-0.386230	0.691204	0.330895	-0.523064	0.373027
23590		9.446145	0.631560	2.298097	-0.000269	0.000428	-0.004471	-0.676514	-0.443359	-0.389893	0.691197	0.330945	-0.523008	0.373075
23591		9.492393	0.642866	2.344289	-0.002504	-0.000614	-0.003648	-0.673828	-0.436035	-0.388916	0.691187	0.330952	-0.522999	0.373100
23592		9.484980	0.616034	2.328910	-0.005604	-0.000881	-0.004764	-0.666260	-0.425781	-0.384766	0.691204	0.330899	-0.523031	0.373069
23593		9.441587	0.602429	2.325991	-0.005789	-0.000787	-0.005480	-0.670898	-0.432617	-0.390869	0.691235	0.330812	-0.523089	0.373010
23594		9.448254	0.612131	2.313059	-0.000301	-0.000520	-0.003987	-0.669434	-0.440918	-0.395996	0.691243	0.330776	-0.523102	0.373007
23595		9.458971	0.606107	2.351318	0.000501	0.001002	-0.002097	-0.670410	-0.437256	-0.395020	0.691259	0.330768	-0.523059	0.373045
23596		9.450696	0.599806	2.342752	0.004839	0.001897	-0.000217	-0.664307	-0.438232	-0.387207	0.691253	0.330760	-0.523017	0.373123
23597		9.481022	0.610523	2.329134	-0.001265	0.004207	-0.003906	-0.673340	-0.435303	-0.391602	0.691282	0.330762	-0.522943	0.373171
23598		9.472936	0.614192	2.335085	-0.000021	0.002231	-0.004728	-0.668701	-0.428467	-0.385742	0.691304	0.330733	-0.522922	0.373185
23599		9.444333	0.616160	2.328526	0.002798	-0.000253	-0.002870	-0.667725	-0.436035	-0.388916	0.691281	0.330718	-0.522933	0.373225
23600		9.420501	0.615336	2.329856	0.001987	-0.000761	-0.000568	-0.664307	-0.437256	-0.389648	0.691252	0.330722	-0.522923	0.373289
23601		9.474834	0.627325	2.314078	-0.001234	0.000961	-0.003371	-0.669189	-0.434814	-0.387939	0.691268	0.330719	-0.522885	0.373316
23602		9.479502	0.625964	2.321999	0.002587	-0.003711	-0.004686	-0.675049	-0.432373	-0.393555	0.691232	0.330762	-0.522891	0.373336
23603		9.473842	0.640882	2.305258	-0.003865	-0.003447	-0.005078	-0.659424	-0.441162	-0.391357	0.691243	0.330700	-0.522954	0.373282
23604		9.435561	0.634276	2.324184	-0.003248	-0.001831	-0.003903	-0.670898	-0.433838	-0.385254	0.691263	0.330721	-0.522916	0.373279
23605		9.457841	0.594916	2.323104	-0.001793	-0.000348	-0.002910	-0.670166	-0.434814	-0.388184	0.691247	0.330701	-0.522929	0.373310
23606		9.460159	0.616141	2.316107	-0.000924	0.000467	-0.003577	-0.668701	-0.440918	-0.383301	0.691247	0.330684	-0.522921	0.373335
23607		9.458152	0.649245	2.314871	-0.005605	-0.000884	-0.004767	-0.660156	-0.436768	-0.389404	0.691241	0.330701	-0.522908	0.373350
23608		9.461526	0.615740	2.337807	-0.007961	0.000062	-0.005630	-0.667480	-0.435791	-0.390137	0.691295	0.330665	-0.522890	0.373307
23609		9.442274	0.612721	2.347661	-0.009142	-0.000260	-0.004759	-0.666504	-0.434814	-0.392334	0.691340	0.330592	-0.522911	0.373259
23610		9.444992	0.603630	2.320542	-0.006291	0.002400	-0.004407	-0.667480	-0.431885	-0.389648	0.691399	0.330517	-0.522899	0.373232
23611		9.458551	0.630942	2.309458	-0.008683	0.000807	-0.002178	-0.671387	-0.439941	-0.390381	0.691437	0.330407	-0.522936	0.373207
23612		9.470868	0.626082	2.313197	-0.007041	0.003787	-0.003075	-0.668457	-0.432617	-0.385010	0.691483	0.330340	-0.522911	0.373216
23613		9.465081	0.606352	2.334515	-0.005765	0.002761	-0.004383	-0.666504	-0.432617	-0.387207	0.691510	0.330286	-0.522904	0.373224
23614		9.457021	0.609830	2.340389	-0.005639	0.002361	-0.005305	-0.668457	-0.428955	-0.386230	0.691549	0.330235	-0.522892	0.373214
23615		9.420542	0.614279	2.339201	-0.003313	0.000466	-0.003957	-0.671875	-0.437744	-0.389404	0.691555	0.330186	-0.522911	0.373219
23616		9.462264	0.631805	2.320681	-0.002940	0.001870	-0.005133	-0.666016	-0.432129	-0.385498	0.691576	0.330171	-0.522884	0.373232
23617		9.499826	0.627161	2.344632	-0.000120	0.003582	-0.004293	-0.664795	-0.441650	-0.382324	0.691588	0.330163	-0.522838	0.373280
23618		9.485811	0.638814	2.264108	0.001392	0.005371	-0.001660	-0.665283	-0.441406	-0.388916	0.691575	0.330213	-0.522732	0.373409
23619		9.404460	0.592464	2.331985	-0.001147	0.002217	-0.002221	-0.666748	-0.440918	-0.388672	0.691581	0.330228	-0.522671	0.373470
23620		9.406928	0.623210	2.339606	0.004441	0.002733	-0.003766	-0.674561	-0.436523	-0.392090	0.691571	0.330295	-0.522580	0.373558
23621		9.493065	0.644383	2.331702	0.002617	0.001437	-0.006194	-0.665527	-0.435303	-0.392822	0.691578	0.330313	-0.522543	0.373580
23622		9.494954	0.613459	2.332983	0.001902	-0.000422	-0.004327	-0.667236	-0.439453	-0.388428	0.691585	0.330327	-0.522514	0.373596
23623		9.463306	0.615586	2.339289	0.001188	-0.002280	-0.002460	-0.660645	-0.439453	-0.390137	0.691549	0.330370	-0.522495	0.373649
23624		9.446166	0.623919	2.327667	0.003794	0.000169	-0.004459	-0.666992	-0.437256	-0.385742	0.691546	0.330441	-0.522418	0.373701
23625		9.426852	0.621182	2.337664	0.000871	0.002407	-0.003275	-0.662842	-0.442139	-0.387695	0.691538	0.330463	-0.522365	0.373770
23626		9.444955	0.603155	2.357246	0.000560	0.002900	-0.003069	-0.666748	-0.438232	-0.392334	0.691543	0.330506	-0.522277	0.373845
23627		9.511650	0.610803	2.344924	0.001406	0.000165	-0.004838	-0.667480	-0.437012	-0.385986	0.691551	0.330533	-0.522234	0.373868
23628		9.473779	0.617465	2.321677	0.001464	0.000471	-0.003201	-0.663818	-0.435303	-0.381348	0.691528	0.330564	-0.522199	0.373931
23629		9.443391	0.617385	2.350514	-0.001614	0.003751	-0.003218	-0.666260	-0.442871	-0.394043	0.691529	0.330568	-0.522144	0.374002
23630		9.411490	0.619304	2.357869	-0.002044	0.002041	-0.003680	-0.672363	-0.437500	-0.390137	0.691560	0.330570	-0.522084	0.374028
23631		9.427060	0.614471	2.347877	-0.003070	0.000676	-0.001606	-0.663574	-0.428467	-0.387207	0.691558	0.330529	-0.522089	0.374061
23632		9.456386	0.636576	2.325966	-0.005946	-0.001345	-0.004085	-0.664795	-0.440674	-0.390625	0.691577	0.330462	-0.522130	0.374028
23633		9.476186	0.659474	2.344164	-0.012556	-0.001639	-0.003077	-0.669678	-0.440430	-0.386963	0.691615	0.330390	-0.522157	0.373983
23634		9.438115	0.612562	2.328929	-0.008832	-0.000762	-0.004977	-0.668457	-0.439941	-0.395264	0.691631	0.330363	-0.522163	0.373968
23635		9.417748	0.620837	2.330951	-0.007808	-0.000988	-0.004442	-0.669678	-0.430420	-0.398438	0.691672	0.330312	-0.522172	0.373926
23636		9.456603	0.647975	2.339793	-0.008773	0.001135	-0.005949	-0.663574	-0.434814	-0.378662	0.691756	0.330184	-0.522209	0.373832
23637		9.457342	0.627764	2.333728	-0.010607	0.000848	-0.004182	-0.656494	-0.437256	-0.388672	0.691768	0.330142	-0.522215	0.373838
23638		9.450271	0.610136	2.332722	-0.008803	0.000186	-0.005466	-0.668945	-0.433350	-0.386230	0.691819	0.330114	-0.522190	0.373803
23639		9.441446	0.634347	2.344554	-0.005703	0.000459	-0.004344	-0.665039	-0.438232	-0.389893	0.691831	0.330072	-0.522202	0.373802
23640		9.450317	0.620975	2.347393	-0.005459	0.002262	-0.004598	-0.663818	-0.444092	-0.390625	0.691868	0.330045	-0.522166	0.373807
23641		9.464599	0.627886	2.330203	-0.005557	0.003610	-0.004161	-0.667969	-0.430176	-0.382812	0.691911	0.330042	-0.522091	0.373836
23642		9.448552	0.633418	2.341904	-0.007371	0.006872	-0.001287	-0.667725	-0.438965	-0.393311	0.691949	0.329931	-0.522079	0.373880
23643		9.447876	0.624557	2.329282	-0.003508	0.004753	-0.005698	-0.665039	-0.441406	-0.384277	0.692006	0.329905	-0.522013	0.373889
23644		9.441244	0.626192	2.356799	-0.005761	0.000154	-0.005986	-0.662842	-0.433350	-0.383789	0.692010	0.329937	-0.521972	0.373909
23645		9.471316	0.628070	2.328868	-0.009399	0.002119	-0.005546	-0.669678	-0.429443	-0.386719	0.692052	0.329883	-0.521965	0.373890
23646		9.463216	0.631338	2.334883	-0.008786	0.003734	-0.004366	-0.669189	-0.432129	-0.394775	0.692102	0.329773	-0.521986	0.373866
23647		9.482457	0.601609	2.362348	-0.006085	0.003247	-0.004190	-0.668213	-0.432373	-0.387939	0.692163	0.329675	-0.521990	0.373834
23648		9.475083	0.627330	2.340272	-0.005668	0.007558	-0.002134	-0.674316	-0.432617	-0.385986	0.692215	0.329579	-0.521952	0.373875
23649		9.407844	0.620922	2.354338	-0.004506	0.004334	-0.004113	-0.668701	-0.437500	-0.381592	0.692232	0.329522	-0.521942	0.373907
23650		9.411892	0.609951	2.349649	-0.001063	0.005065	-0.003677	-0.672852	-0.434814	-0.385986	0.692222	0.329546	-0.521867	0.374009
23651		9.462710	0.623021	2.348440	-0.000837	0.003319	-0.005038	-0.667725	-0.439697	-0.396729	0.692222	0.329547	-0.521830	0.374060
23652		9.447910	0.617843	2.367169	-0.000653	0.003224	-0.004322	-0.663818	-0.429199	-0.390381	0.692259	0.329539	-0.521769	0.374084
23653		9.474723	0.619957	2.352993	0.000030	0.002543	-0.003094	-0.666260	-0.433594	-0.392822	0.692278	0.329501	-0.521751	0.374108
23654		9.458558	0.616684	2.349803	0.000157	0.002145	-0.004017	-0.664307	-0.439941	-0.381348	0.692298	0.329485	-0.521719	0.374130
23655		9.426778	0.618622	2.356554	0.000910	-0.000833	-0.002742	-0.666504	-0.433594	-0.388672	0.692237	0.329571	-0.521665	0.374241
23656		9.414986	0.593810	2.332623	0.001649	-0.001210	0.000126	-0.664795	-0.433350	-0.385742	0.692193	0.329573	-0.521669	0.374316
23657		9.464443	0.613604	2.380169	0.004170	0.006144	-0.000321	-0.663086	-0.433594	-0.389893	0.692179	0.329579	-0.521589	0.374447
23658		9.480943	0.640902	2.356450	-0.000070	0.003890	-0.002657	-0.669189	-0.440186	-0.383545	0.692198	0.329561	-0.521537	0.374500
23659		9.447639	0.601450	2.364312	0.000186	0.003093	-0.004502	-0.664551	-0.440186	-0.388916	0.692175	0.329620	-0.521458	0.374600
23660		9.411283	0.615265	2.377549	-0.000966	0.003716	-0.004118	-0.661865	-0.439697	-0.391357	0.692187	0.329647	-0.521375	0.374670
23661		9.438098	0.617059	2.363484	-0.002118	0.002745	-0.001123	-0.663818	-0.430420	-0.396973	0.692196	0.329641	-0.521316	0.374740
23662		9.451656	0.601072	2.374570	-0.000924	0.000471	-0.003586	-0.663574	-0.436035	-0.384766	0.692233	0.329586	-0.521322	0.374714
23663		9.472746	0.616847	2.344224	0.001764	0.002587	-0.001814	-0.663818	-0.427979	-0.389648	0.692206	0.329621	-0.521259	0.374820
23664		9.462679	0.608534	2.371017	-0.001095	0.002520	-0.000585	-0.666748	-0.438721	-0.379639	0.692218	0.329550	-0.521265	0.374852
23665		9.448920	0.625051	2.360591	-0.003627	-0.000639	-0.001155	-0.667236	-0.436279	-0.390869	0.692158	0.329585	-0.521246	0.374959
23666		9.418378	0.615133	2.374778	-0.004024	0.000194	-0.004715	-0.670898	-0.442139	-0.385254	0.692172	0.329570	-0.521234	0.374962
23667		9.426164	0.613012	2.369787	-0.003911	0.000802	-0.001435	-0.662842	-0.437988	-0.389160	0.692136	0.329588	-0.521202	0.375057
23668		9.454575	0.612714	2.376742	-0.005262	-0.000436	-0.005486	-0.669189	-0.435059	-0.386475	0.692149	0.329598	-0.521174	0.375063
23669		9.449863	0.615840	2.368558	-0.005518	0.000360	-0.003640	-0.663818	-0.425537	-0.394531	0.692148	0.329568	-0.521180	0.375082
23670		9.446279	0.607176	2.368280	-0.005931	0.002199	-0.002996	-0.665283	-0.437500	-0.394287	0.692216	0.329434	-0.521223	0.375017
23671		9.441699	0.619337	2.374687	-0.004253	0.001940	-0.003355	-0.670654	-0.438232	-0.390625	0.692248	0.329399	-0.521194	0.375027
23672		9.460715	0.623757	2.365559	-0.006643	0.001931	-0.003741	-0.668945	-0.438232	-0.394531	0.692269	0.329358	-0.521181	0.375044
23673		9.438886	0.590695	2.368422	-0.003684	0.000652	-0.005408	-0.662354	-0.436523	-0.390137	0.692294	0.329346	-0.521157	0.375039
23674		9.446819	0.598693	2.377691	0.001465	0.002076	-0.005811	-0.668213	-0.433838	-0.386230	0.692303	0.329393	-0.521082	0.375086
23675		9.456757	0.617644	2.366116	-0.001153	0.002217	-0.002226	-0.658936	-0.439941	-0.389893	0.692290	0.329382	-0.521059	0.375153
23676		9.436229	0.625246	2.368789	-0.003956	0.002451	0.000643	-0.661621	-0.431396	-0.390625	0.692289	0.329368	-0.521005	0.375242
23677		9.468708	0.603729	2.356335	-0.001892	0.002594	-0.005096	-0.669189	-0.434570	-0.389160	0.692325	0.329344	-0.520971	0.375244
23678		9.458332	0.639743	2.361545	-0.006190	0.006183	-0.006374	-0.662109	-0.443115	-0.395508	0.692385	0.329289	-0.520922	0.375248
23679		9.441809	0.627191	2.344794	-0.011793	0.002098	-0.005955	-0.667480	-0.435547	-0.385986	0.692456	0.329246	-0.520879	0.375216
23680		9.415554	0.605596	2.353634	-0.006146	0.001342	-0.003234	-0.669189	-0.438232	-0.390137	0.692457	0.329217	-0.520871	0.375250
23681		9.442779	0.616889	2.352961	-0.005816	-0.001749	-0.005035	-0.669922	-0.438721	-0.390137	0.692453	0.329216	-0.520876	0.375252
23682		9.475893	0.614765	2.367794	-0.004820	-0.001326	-0.006623	-0.665527	-0.434326	-0.387939	0.692454	0.329234	-0.520864	0.375251
23683		9.469205	0.607021	2.380305	-0.005475	-0.001292	-0.005727	-0.668213	-0.433594	-0.393311	0.692459	0.329226	-0.520870	0.375239
23684		9.434092	0.599686	2.385884	0.000044	-0.001649	-0.002081	-0.666260	-0.431396	-0.385986	0.692442	0.329213	-0.520886	0.375261
23685		9.442093	0.597479	2.380099	-0.000011	-0.003548	-0.001112	-0.669434	-0.441650	-0.392334	0.692386	0.329221	-0.520921	0.375309
23686		9.436865	0.630348	2.391669	-0.001746	-0.003593	-0.002396	-0.661133	-0.432617	-0.394287	0.692342	0.329261	-0.520916	0.375362
23687		9.435009	0.619713	2.411854	0.000274	-0.003393	-0.003444	-0.667236	-0.430908	-0.390137	0.692333	0.329269	-0.520927	0.375357
23688		9.482697	0.623713	2.408692	-0.004027	0.000194	-0.004722	-0.678711	-0.429688	-0.391113	0.692352	0.329226	-0.520942	0.375338
23689		9.447299	0.607042	2.400451	-0.005420	-0.000990	-0.004086	-0.661377	-0.442383	-0.393066	0.692358	0.329142	-0.521016	0.375297
23690		9.413960	0.601818	2.371007	-0.003798	-0.001550	-0.006086	-0.661621	-0.434082	-0.390381	0.692365	0.329193	-0.520963	0.375313
23691		9.425435	0.618837	2.380526	-0.003373	0.000159	-0.005619	-0.662598	-0.434570	-0.385498	0.692385	0.329193	-0.520939	0.375311
23692		9.441397	0.624089	2.383982	-0.000936	-0.003075	-0.004703	-0.668457	-0.436768	-0.387939	0.692348	0.329244	-0.520928	0.375348
23693		9.475317	0.591856	2.378109	-0.000272	0.000439	-0.004486	-0.666260	-0.431396	-0.399170	0.692328	0.329279	-0.520892	0.375405
23694		9.457122	0.621054	2.373149	0.002193	-0.001845	-0.004054	-0.661377	-0.442383	-0.391846	0.692341	0.329262	-0.520905	0.375378
23695		9.417557	0.625745	2.384596	0.004296	-0.000392	-0.003945	-0.665771	-0.440918	-0.392090	0.692307	0.329368	-0.520813	0.375476
23696		9.412992	0.629303	2.375693	0.001030	-0.004774	-0.004783	-0.668945	-0.436035	-0.394287	0.692260	0.329454	-0.520790	0.375517
23697		9.460625	0.624361	2.357664	-0.000835	-0.004423	-0.005143	-0.657715	-0.434326	-0.385986	0.692241	0.329476	-0.520811	0.375503
23698		9.454124	0.616643	2.369504	-0.003199	-0.003485	-0.006016	-0.673828	-0.445801	-0.390381	0.692228	0.329519	-0.520801	0.375505
23699		9.442741	0.602069	2.359028	-0.000495	-0.003965	-0.005835	-0.663574	-0.440918	-0.387939	0.692173	0.329619	-0.520767	0.375565
23700		9.435258	0.615219	2.377300	-0.002912	-0.004927	-0.005739	-0.666260	-0.433350	-0.391113	0.692134	0.329696	-0.520751	0.375593
23701		9.447781	0.601934	2.365175	-0.001304	-0.004484	-0.003530	-0.665527	-0.430908	-0.384766	0.692109	0.329699	-0.520787	0.375585
23702		9.459218	0.609201	2.359934	-0.002219	-0.002059	-0.003395	-0.666748	-0.431641	-0.390869	0.692087	0.329690	-0.520813	0.375599
23703		9.448261	0.612596	2.377882	-0.002457	-0.003864	-0.003145	-0.664795	-0.431152	-0.393311	0.692071	0.329667	-0.520862	0.375580
23704		9.433822	0.597628	2.380403	-0.000915	-0.007272	-0.003694	-0.664307	-0.438477	-0.381592	0.692042	0.329667	-0.520931	0.375538
23705		9.440988	0.616717	2.380297	-0.004619	-0.005621	-0.004898	-0.668945	-0.440186	-0.395020	0.691984	0.329734	-0.520939	0.375576
23706		9.436553	0.620312	2.370829	-0.002972	-0.005230	-0.007385	-0.675781	-0.440918	-0.390625	0.691974	0.329779	-0.520945	0.375544
23707		9.466143	0.599924	2.370465	-0.001981	-0.000255	-0.003646	-0.663574	-0.436279	-0.395264	0.691951	0.329796	-0.520928	0.375596
23708		9.488985	0.623076	2.375206	-0.002957	-0.003279	-0.003658	-0.665527	-0.431641	-0.381348	0.691953	0.329790	-0.520941	0.375580
23709		9.442192	0.643079	2.348866	-0.005290	-0.002990	-0.002402	-0.663086	-0.436035	-0.385742	0.691919	0.329770	-0.520983	0.375600
23710		9.384478	0.613023	2.348790	-0.004094	-0.005258	-0.004873	-0.669434	-0.427490	-0.386963	0.691885	0.329807	-0.521002	0.375605
23711		9.421346	0.629564	2.378012	-0.001574	-0.000495	-0.006906	-0.668457	-0.431152	-0.385498	0.691901	0.329780	-0.521029	0.375562
23712		9.484971	0.638490	2.378351	-0.000498	-0.003964	-0.005841	-0.673584	-0.429199	-0.386719	0.691870	0.329807	-0.521057	0.375556
23713		9.479468	0.600779	2.368896	-0.004814	-0.009077	-0.006739	-0.665283	-0.427734	-0.392090	0.691832	0.329800	-0.521172	0.375473
23714		9.453572	0.622976	2.353269	-0.003985	-0.008203	-0.002706	-0.664795	-0.440186	-0.377930	0.691811	0.329750	-0.521288	0.375396
23715		9.446849	0.596247	2.336249	-0.000525	-0.004913	-0.005360	-0.660645	-0.431885	-0.391113	0.691722	0.329881	-0.521249	0.375497
23716		9.439608	0.618592	2.368647	0.001239	-0.003916	-0.004559	-0.665039	-0.437256	-0.389404	0.691709	0.329907	-0.521259	0.375486
23717		9.432972	0.601493	2.366232	0.002579	-0.004629	-0.004229	-0.668213	-0.425049	-0.391602	0.691660	0.329983	-0.521246	0.375527
23718		9.483970	0.605710	2.348894	0.004028	-0.003140	-0.003221	-0.661621	-0.434326	-0.386230	0.691645	0.329959	-0.521301	0.375500
23719		9.481785	0.638952	2.347141	-0.000755	-0.003171	-0.003993	-0.674316	-0.439697	-0.391602	0.691616	0.329996	-0.521296	0.375528
23720		9.444652	0.610965	2.359360	-0.004486	-0.002473	-0.004710	-0.665771	-0.437988	-0.391357	0.691605	0.329996	-0.521309	0.375528
23721		9.420705	0.600924	2.346100	0.000611	-0.002934	-0.004146	-0.666992	-0.436523	-0.387207	0.691582	0.330040	-0.521294	0.375554
23722		9.434206	0.629105	2.334084	0.000297	-0.002443	-0.003939	-0.670166	-0.434082	-0.388672	0.691547	0.330084	-0.521281	0.375599
23723		9.463080	0.638512	2.354130	0.001273	-0.004564	-0.002434	-0.671631	-0.438965	-0.389404	0.691494	0.330110	-0.521311	0.375629
23724		9.477710	0.645456	2.335316	-0.001535	-0.002742	-0.002169	-0.672363	-0.435303	-0.388916	0.691455	0.330128	-0.521318	0.375677
23725		9.455011	0.623546	2.329816	-0.003037	-0.000985	-0.003702	-0.664551	-0.439209	-0.386719	0.691447	0.330111	-0.521331	0.375689
23726		9.439267	0.629509	2.340043	-0.001019	-0.000780	-0.004754	-0.669922	-0.436279	-0.387207	0.691427	0.330164	-0.521285	0.375742
23727		9.442848	0.648725	2.354818	-0.006057	-0.000019	-0.003673	-0.666260	-0.433105	-0.389160	0.691431	0.330134	-0.521290	0.375754
23728		9.448813	0.635403	2.370456	-0.007006	-0.002094	-0.004171	-0.670654	-0.439941	-0.390625	0.691448	0.330083	-0.521329	0.375714
23729		9.437210	0.610812	2.346134	-0.005877	-0.003662	-0.004076	-0.672119	-0.437256	-0.394287	0.691434	0.330083	-0.521349	0.375712
23730		9.448567	0.618205	2.341044	-0.006541	-0.002032	-0.005790	-0.666748	-0.434814	-0.394287	0.691460	0.330046	-0.521377	0.375658
23731		9.455348	0.637187	2.342302	-0.008450	-0.000036	-0.004060	-0.668945	-0.439941	-0.392822	0.691511	0.329962	-0.521405	0.375599
