// Start Time: Unknown
// Update Rate: 40.0Hz
// Filter Profile: human (46.1)
// Firmware Version: 4.6.0
PacketCounter	SampleTimeFine	Acc_X	Acc_Y	Acc_Z	Gyr_X	Gyr_Y	Gyr_Z	Mag_X	Mag_Y	Mag_Z	Quat_q0	Quat_q1	Quat_q2	Quat_q3
61647		9.721756	0.773127	-0.987611	0.001837	-0.005169	-0.032599	-0.672607	-0.499268	-0.062744	0.557266	0.459965	-0.582044	0.372976
61648		9.708004	0.841730	-0.951017	0.009016	-0.004219	-0.029862	-0.674805	-0.500244	-0.066650	0.557323	0.460265	-0.581860	0.372809
61649		9.726261	0.871032	-1.007141	0.008794	-0.002221	-0.027343	-0.672119	-0.498535	-0.072998	0.557387	0.460531	-0.581676	0.372670
61650		9.699922	0.860997	-1.024626	-0.008251	0.001247	-0.026846	-0.677246	-0.502441	-0.065430	0.557570	0.460666	-0.581550	0.372427
61651		9.692777	0.858204	-1.016462	-0.010615	0.000560	-0.025118	-0.675781	-0.498047	-0.076904	0.557754	0.460779	-0.581448	0.372171
61652		9.689791	0.831226	-1.032647	0.001062	-0.006928	-0.011258	-0.668213	-0.503906	-0.072510	0.557753	0.460912	-0.581423	0.372046
61653		9.725824	0.904494	-1.028790	-0.006354	-0.003012	-0.012598	-0.677734	-0.496582	-0.076416	0.557828	0.460991	-0.581399	0.371876
61654		9.711606	0.922010	-0.950011	-0.027472	0.000230	-0.014845	-0.669189	-0.503906	-0.071533	0.558061	0.460934	-0.581433	0.371542
61655		9.692794	0.926172	-1.027040	-0.018243	-0.003486	-0.013423	-0.669678	-0.501953	-0.072021	0.558221	0.460956	-0.581446	0.371255
61656		9.735701	0.901316	-0.975568	-0.007886	0.001789	-0.016244	-0.663574	-0.490479	-0.074707	0.558377	0.461060	-0.581352	0.371038
61657		9.698472	0.840760	-0.923542	-0.029549	0.005919	-0.013089	-0.671143	-0.493408	-0.082275	0.558680	0.460972	-0.581342	0.370705
61658		9.697458	0.799279	-0.965275	-0.027553	0.001412	-0.011980	-0.669434	-0.500732	-0.075684	0.558947	0.460909	-0.581347	0.370374
61659		9.741043	0.847812	-0.946761	-0.004697	-0.000974	-0.012406	-0.663086	-0.509521	-0.089844	0.559066	0.461015	-0.581262	0.370196
61660		9.734139	0.842216	-0.939034	0.001394	0.000804	-0.018356	-0.665283	-0.498779	-0.074219	0.559206	0.461192	-0.581085	0.370041
61661		9.740355	0.868986	-0.942597	-0.008956	0.001656	-0.014612	-0.671875	-0.498291	-0.081787	0.559380	0.461253	-0.580993	0.369847
61662		9.700175	0.898227	-0.957293	-0.012474	-0.000403	-0.012458	-0.668213	-0.495605	-0.079102	0.559564	0.461278	-0.580927	0.369641
61663		9.709017	0.889207	-0.964464	-0.002086	-0.000878	-0.013038	-0.665527	-0.492920	-0.086670	0.559682	0.461381	-0.580818	0.369505
61664		9.694057	0.873480	-0.925114	0.005535	0.001766	-0.009290	-0.669434	-0.496582	-0.076904	0.559766	0.461486	-0.580671	0.369479
61665		9.730714	0.927149	-0.979751	-0.000709	-0.003851	-0.009290	-0.668457	-0.502686	-0.072021	0.559841	0.461584	-0.580595	0.369361
61666		9.744424	0.953647	-0.963886	-0.008624	-0.002475	-0.009672	-0.670410	-0.504883	-0.078613	0.559975	0.461645	-0.580542	0.369165
61667		9.701175	0.955342	-0.939461	0.003183	-0.003678	-0.004900	-0.668213	-0.507324	-0.075439	0.560035	0.461761	-0.580448	0.369077
61668		9.721660	0.963666	-0.938726	-0.004205	-0.000792	-0.006648	-0.676025	-0.493408	-0.078857	0.560169	0.461839	-0.580354	0.368924
61669		9.701700	0.963983	-0.907886	-0.018447	-0.000123	-0.007291	-0.666016	-0.506836	-0.074463	0.560377	0.461780	-0.580331	0.368717
61670		9.702426	0.907879	-0.978482	-0.022998	-0.000997	-0.010632	-0.673340	-0.500488	-0.071533	0.560643	0.461762	-0.580297	0.368391
61671		9.728203	0.861149	-0.979163	-0.007306	0.005073	-0.010825	-0.663818	-0.501709	-0.072998	0.560831	0.461811	-0.580176	0.368233
61672		9.715617	0.839485	-1.019129	-0.002503	-0.002178	-0.010908	-0.668457	-0.497070	-0.068359	0.560923	0.461927	-0.580095	0.368075
61673		9.722830	0.856499	-0.994991	0.002545	0.001226	-0.008500	-0.668213	-0.504395	-0.075195	0.560950	0.462034	-0.580024	0.368010
61674		9.679876	0.844354	-0.972782	0.006835	0.006974	-0.003767	-0.676758	-0.504150	-0.080811	0.561016	0.462116	-0.579880	0.368035
61675		9.737878	0.848140	-0.956313	0.013726	0.000176	-0.004670	-0.671875	-0.496826	-0.076660	0.561015	0.462250	-0.579738	0.368091
61676		9.696536	0.935545	-0.984669	0.015255	0.000130	-0.003696	-0.664551	-0.498047	-0.069092	0.560944	0.462365	-0.579646	0.368198
61677		9.710318	0.986220	-0.960712	0.014459	0.001622	0.000605	-0.665527	-0.508301	-0.079590	0.560828	0.462488	-0.579590	0.368310
61678		9.685360	1.014242	-0.935064	0.008301	-0.000913	0.000239	-0.676270	-0.500000	-0.081055	0.560837	0.462589	-0.579491	0.368325
61679		9.720151	1.018633	-0.924864	-0.004166	0.000964	0.000094	-0.672607	-0.496094	-0.080811	0.560915	0.462527	-0.579476	0.368307
61680		9.724524	0.983030	-0.951631	-0.013449	0.000073	0.003768	-0.674561	-0.492188	-0.079102	0.561015	0.462369	-0.579541	0.368253
61681		9.706735	0.940055	-0.955582	-0.014765	0.001920	0.007889	-0.673096	-0.494141	-0.080811	0.561088	0.462147	-0.579651	0.368246
61682		9.688687	0.949762	-0.944247	-0.012541	0.001562	0.007395	-0.671631	-0.499512	-0.075195	0.561169	0.461950	-0.579736	0.368237
61683		9.709720	0.915945	-0.953810	-0.014974	0.000122	0.002802	-0.662598	-0.497803	-0.080566	0.561250	0.461850	-0.579803	0.368134
61684		9.706049	0.857810	-0.952595	-0.006105	0.002958	0.003283	-0.672363	-0.500732	-0.078125	0.561346	0.461777	-0.579784	0.368108
61685		9.707833	0.842912	-0.980254	0.004256	-0.003111	0.007334	-0.671387	-0.502686	-0.073975	0.561291	0.461774	-0.579807	0.368159
61686		9.708600	0.873362	-0.941585	0.001791	-0.003534	0.003168	-0.675537	-0.490967	-0.076904	0.561229	0.461833	-0.579824	0.368152
61687		9.727565	0.893925	-0.913038	0.000734	0.000541	-0.003444	-0.672119	-0.501221	-0.084961	0.561202	0.461785	-0.579857	0.368202
61688		9.702481	0.898648	-0.978664	-0.002711	-0.000303	-0.000113	-0.671143	-0.496826	-0.076416	0.561315	0.461701	-0.579835	0.368170
61689		9.706754	0.862615	-1.006567	-0.000582	-0.006102	0.006433	-0.671387	-0.498779	-0.079346	0.561224	0.461668	-0.579931	0.368199
61690		9.735973	0.848657	-0.961028	-0.014972	0.000125	0.002807	-0.673096	-0.499756	-0.076904	0.561318	0.461514	-0.580014	0.368118
61691		9.709836	0.811225	-0.929395	-0.029440	0.003265	-0.000447	-0.666504	-0.500977	-0.078613	0.561499	0.461293	-0.580132	0.367933
61692		9.724833	0.789992	-0.978992	-0.012705	0.002003	0.003927	-0.668701	-0.505615	-0.078125	0.561591	0.461189	-0.580169	0.367865
61693		9.696824	0.767162	-1.004602	0.006062	-0.002916	0.007405	-0.673340	-0.496338	-0.075928	0.561528	0.461246	-0.580157	0.367909
61694		9.718278	0.804545	-0.964512	0.003357	-0.002731	0.002162	-0.671143	-0.498047	-0.080566	0.561411	0.461240	-0.580225	0.367988
61695		9.733694	0.867400	-0.960785	-0.002540	-0.000744	0.003371	-0.675049	-0.493408	-0.076904	0.561416	0.461140	-0.580280	0.368016
61696		9.714501	0.898781	-0.974871	0.011522	-0.001459	0.005654	-0.673340	-0.499268	-0.077881	0.561236	0.461110	-0.580353	0.368215
61697		9.707952	0.901408	-0.963859	0.002008	-0.001256	0.003128	-0.671631	-0.495117	-0.072754	0.561178	0.461083	-0.580395	0.368272
61698		9.706596	0.836050	-0.959036	-0.006905	0.000784	-0.008302	-0.679932	-0.490723	-0.079590	0.561145	0.461117	-0.580424	0.368233
61699		9.697990	0.857232	-1.003692	-0.000105	-0.000206	-0.000754	-0.668457	-0.503662	-0.079102	0.561089	0.460938	-0.580558	0.368332
61700		9.713755	0.840454	-1.023016	0.012104	-0.003843	0.004976	-0.668457	-0.502930	-0.073486	0.561007	0.461044	-0.580511	0.368398
61701		9.727172	0.842362	-0.959285	0.005300	-0.003340	0.002562	-0.679932	-0.499268	-0.079102	0.560879	0.461202	-0.580488	0.368430
61702		9.730420	0.878430	-0.912324	0.000895	-0.001768	0.001584	-0.672363	-0.500977	-0.083496	0.560830	0.461110	-0.580575	0.368483
61703		9.673973	0.874767	-0.952552	0.004540	-0.002381	0.001303	-0.681396	-0.493164	-0.077393	0.560876	0.461049	-0.580573	0.368494
61704		9.714569	0.856544	-0.989510	0.005503	0.003693	-0.000142	-0.665283	-0.498047	-0.073730	0.560783	0.460931	-0.580650	0.368661
61705		9.714720	0.843533	-0.992166	-0.006784	0.005624	-0.001923	-0.666260	-0.503906	-0.080322	0.560811	0.460971	-0.580603	0.368642
61706		9.699240	0.819678	-0.983878	-0.007533	0.001346	0.004616	-0.673828	-0.485840	-0.083496	0.560926	0.460920	-0.580579	0.368568
61707		9.701866	0.810301	-0.979559	0.007045	-0.001108	0.003495	-0.671875	-0.494873	-0.083252	0.560875	0.460668	-0.580722	0.368735
61708		9.712760	0.834211	-0.915283	0.010013	0.002326	0.001592	-0.676270	-0.502686	-0.075684	0.560895	0.460561	-0.580717	0.368848
61709		9.709419	0.823962	-0.955080	0.003269	0.000799	-0.001683	-0.674805	-0.488770	-0.078369	0.560836	0.460634	-0.580696	0.368879
61710		9.726066	0.813753	-0.941340	-0.003702	0.003128	-0.003997	-0.678955	-0.499512	-0.078613	0.560824	0.460471	-0.580788	0.368954
61711		9.715163	0.802719	-1.001738	0.009232	-0.001836	-0.000159	-0.668457	-0.498047	-0.077881	0.560731	0.460477	-0.580813	0.369049
61712		9.707884	0.785256	-0.943107	0.014707	-0.005132	0.000756	-0.672607	-0.501709	-0.076416	0.560608	0.460611	-0.580774	0.369132
61713		9.730788	0.836379	-0.923705	0.012735	-0.003507	0.000787	-0.669678	-0.501709	-0.070557	0.560484	0.460753	-0.580731	0.369209
61714		9.704950	0.859225	-0.930323	0.004518	0.000503	0.000188	-0.677979	-0.496338	-0.082764	0.560340	0.460962	-0.580668	0.369268
61715		9.706523	0.845692	-0.958577	0.009085	-0.004280	-0.002519	-0.668945	-0.500000	-0.079590	0.560329	0.460862	-0.580720	0.369325
61716		9.694727	0.853587	-0.960619	0.009749	-0.003576	-0.003559	-0.670166	-0.494873	-0.078369	0.560328	0.460951	-0.580652	0.369323
61717		9.714306	0.855730	-0.992785	0.007581	-0.007115	-0.002369	-0.676270	-0.493896	-0.078613	0.560250	0.460985	-0.580682	0.369352
61718		9.734186	0.855444	-0.940950	0.004537	-0.003767	-0.002277	-0.668457	-0.492920	-0.068115	0.560185	0.460913	-0.580761	0.369416
61719		9.718449	0.832483	-0.934517	0.001864	-0.003218	-0.004365	-0.679932	-0.486328	-0.074707	0.559964	0.461115	-0.580768	0.369487
61720		9.707330	0.835013	-0.991924	-0.001956	-0.002647	-0.002437	-0.677246	-0.498047	-0.078125	0.559820	0.460940	-0.580971	0.369605
61721		9.697230	0.828775	-1.021287	-0.002311	-0.004597	0.002414	-0.669189	-0.499756	-0.079102	0.559794	0.460833	-0.581081	0.369606
61722		9.726453	0.802064	-0.980013	0.005094	-0.003749	0.001062	-0.670166	-0.499023	-0.091553	0.559809	0.460855	-0.581059	0.369591
61723		9.737875	0.834027	-0.968676	0.004264	-0.002627	0.002206	-0.681396	-0.502197	-0.079102	0.560093	0.460562	-0.581075	0.369500
61724		9.700391	0.863656	-0.976613	-0.003147	-0.005341	0.005108	-0.672119	-0.493896	-0.079590	0.560075	0.460428	-0.581208	0.369484
61725		9.674755	0.845648	-0.994896	-0.015161	-0.003643	0.007558	-0.678711	-0.493652	-0.081055	0.560130	0.460173	-0.581388	0.369436
61726		9.721454	0.788464	-0.999389	-0.011334	-0.002348	0.004081	-0.678955	-0.499023	-0.078369	0.560181	0.459886	-0.581572	0.369426
61727		9.707451	0.763725	-1.016164	-0.000836	-0.000745	0.002693	-0.673584	-0.490723	-0.082764	0.560168	0.459789	-0.581645	0.369451
61728		9.730595	0.774349	-1.008032	0.001148	-0.008987	0.006885	-0.677979	-0.501465	-0.071777	0.560124	0.459590	-0.581813	0.369501
61729		9.742965	0.836638	-0.957716	0.001350	-0.002437	0.009308	-0.681396	-0.491211	-0.077637	0.559942	0.459645	-0.581890	0.369588
61730		9.709312	0.808933	-0.943940	0.001252	-0.000776	0.007006	-0.676270	-0.492188	-0.087158	0.559820	0.459466	-0.582043	0.369755
61731		9.699503	0.774605	-0.979745	-0.006551	0.002675	0.005836	-0.671875	-0.502197	-0.070801	0.560014	0.459069	-0.582167	0.369759
61732		9.707733	0.769704	-1.014773	-0.000384	-0.000455	0.000144	-0.676270	-0.496582	-0.074707	0.559923	0.459256	-0.582124	0.369732
61733		9.701106	0.786204	-0.999988	0.009649	-0.002881	0.004404	-0.674805	-0.489258	-0.075195	0.559755	0.459324	-0.582152	0.369857
61734		9.743459	0.790753	-0.970386	0.012286	-0.003803	0.003335	-0.684570	-0.491455	-0.078369	0.559541	0.459358	-0.582206	0.370054
61735		9.722100	0.789781	-0.916383	0.006008	0.000560	-0.007139	-0.672852	-0.489990	-0.085205	0.559483	0.459276	-0.582261	0.370156
61736		9.704483	0.757268	-0.972579	-0.000620	0.002493	-0.007622	-0.684570	-0.491943	-0.081543	0.559678	0.459071	-0.582263	0.370113
61737		9.719110	0.750476	-1.019415	0.007147	-0.001808	-0.004470	-0.679199	-0.489502	-0.072266	0.559649	0.458935	-0.582341	0.370204
61738		9.714850	0.760478	-1.000562	0.014371	-0.002394	-0.007758	-0.672607	-0.486328	-0.078857	0.559402	0.459107	-0.582322	0.370393
61739		9.715559	0.793771	-0.961474	0.008827	0.001068	-0.006270	-0.673828	-0.492920	-0.071289	0.559368	0.459078	-0.582306	0.370506
61740		9.741693	0.806051	-1.000273	0.010969	-0.002381	-0.006395	-0.684570	-0.498047	-0.080811	0.559175	0.459301	-0.582245	0.370616
61741		9.721848	0.805909	-0.969505	-0.001449	0.003612	-0.006478	-0.679932	-0.499512	-0.077148	0.559290	0.459148	-0.582275	0.370586
61742		9.721994	0.754448	-0.983777	-0.003226	0.002395	-0.006979	-0.676270	-0.493408	-0.079102	0.559363	0.459122	-0.582265	0.370522
61743		9.760806	0.764947	-0.988645	-0.000824	0.003465	-0.005542	-0.680420	-0.491699	-0.076416	0.559436	0.459036	-0.582262	0.370525
61744		9.726111	0.748440	-1.001081	-0.006017	0.008396	-0.003776	-0.675293	-0.490479	-0.080566	0.559474	0.458895	-0.582292	0.370595
61745		9.683474	0.810717	-1.011624	0.000490	0.001616	-0.009659	-0.675293	-0.485107	-0.079102	0.559553	0.458817	-0.582286	0.370582
61746		9.665963	0.830306	-0.968505	0.005154	0.003655	-0.015827	-0.676270	-0.497559	-0.075439	0.559577	0.458801	-0.582236	0.370643
61747		9.702298	0.798393	-0.992516	0.003874	0.004966	-0.017266	-0.677002	-0.500000	-0.081787	0.559629	0.458952	-0.582097	0.370596
61748		9.686485	0.778707	-0.984484	0.003028	0.000967	-0.016605	-0.670898	-0.494385	-0.073486	0.559797	0.458981	-0.582005	0.370451
61749		9.730145	0.787145	-0.977645	0.002295	-0.000047	-0.008028	-0.681641	-0.498291	-0.072510	0.559736	0.459129	-0.581942	0.370459
61750		9.750715	0.795274	-0.976387	-0.000346	0.000395	-0.001831	-0.673828	-0.498779	-0.084473	0.559622	0.459177	-0.581978	0.370515
61751		9.715787	0.817157	-0.978901	-0.002188	0.000731	0.003650	-0.672852	-0.495605	-0.074951	0.559779	0.458980	-0.582019	0.370458
61752		9.683407	0.830698	-0.977220	-0.004729	-0.000922	-0.001693	-0.679932	-0.494873	-0.088379	0.559753	0.458996	-0.582044	0.370437
61753		9.680740	0.853229	-0.977263	-0.004365	0.004281	-0.004508	-0.674072	-0.494385	-0.077393	0.560000	0.458685	-0.582093	0.370372
61754		9.724045	0.801056	-1.016840	0.003270	0.000801	-0.001681	-0.672119	-0.499023	-0.073486	0.559968	0.458692	-0.582087	0.370420
61755		9.755849	0.792190	-0.962773	0.005104	-0.000966	0.008229	-0.678467	-0.496094	-0.079346	0.559836	0.458770	-0.582098	0.370508
61756		9.696878	0.784524	-0.870019	0.007387	0.007427	0.013407	-0.674805	-0.501953	-0.072510	0.559792	0.458606	-0.582136	0.370717
61757		9.818831	0.820997	-0.724706	0.027847	0.045799	0.015096	-0.671875	-0.486328	-0.075439	0.559836	0.458595	-0.581752	0.371268
61758		9.705070	0.789118	-0.804574	0.031975	0.051960	0.035365	-0.673340	-0.496826	-0.072998	0.559765	0.458298	-0.581485	0.372157
61759		9.778572	0.696255	-0.989840	0.028533	0.052499	0.061323	-0.681396	-0.485840	-0.079346	0.559612	0.457917	-0.581317	0.373120
61760		9.661489	0.910781	-1.037478	0.049658	0.030033	0.062911	-0.675537	-0.495117	-0.084229	0.559182	0.457529	-0.581339	0.374203
61761		9.617307	1.015384	-1.067099	0.046438	0.013246	0.027894	-0.686279	-0.487549	-0.071045	0.558996	0.457491	-0.581186	0.374763
61762		9.563095	0.935140	-0.896757	0.055684	0.002071	-0.002449	-0.685303	-0.495850	-0.073486	0.558492	0.457908	-0.580992	0.375307
61763		9.727312	0.722803	-0.853300	0.033637	-0.004207	-0.007738	-0.679199	-0.496338	-0.076660	0.558210	0.458251	-0.580860	0.375514
61764		9.808705	0.500216	-0.895565	0.026274	-0.005141	-0.017125	-0.682129	-0.497559	-0.070068	0.558102	0.458592	-0.580673	0.375546
61765		9.730444	0.527310	-0.874469	0.027345	0.001207	-0.026122	-0.670654	-0.494385	-0.073486	0.557962	0.459065	-0.580399	0.375599
61766		9.799589	0.546558	-1.023191	0.043653	-0.008748	-0.040562	-0.678467	-0.492920	-0.077148	0.557815	0.459784	-0.579982	0.375582
61767		9.789908	0.643098	-1.054064	0.056092	-0.017487	-0.055789	-0.668213	-0.499268	-0.076904	0.557631	0.460588	-0.579557	0.375527
61768		9.703323	0.634671	-0.984741	0.037824	-0.019542	-0.054946	-0.681641	-0.487549	-0.073730	0.557608	0.461372	-0.579132	0.375254
61769		9.669705	0.558102	-0.961059	0.028030	-0.014024	-0.034023	-0.672363	-0.501221	-0.079102	0.557422	0.461738	-0.579023	0.375248
61770		9.774914	0.577351	-0.957849	0.052764	-0.011898	-0.023457	-0.677002	-0.497559	-0.066406	0.557258	0.462270	-0.578692	0.375347
61771		9.752499	0.709355	-0.926458	0.042808	-0.007854	-0.031731	-0.670898	-0.489746	-0.066406	0.556985	0.462893	-0.578395	0.375443
61772		9.739814	0.837629	-0.953189	0.004487	-0.005456	-0.033764	-0.672363	-0.494629	-0.065674	0.556953	0.463210	-0.578264	0.375301
61773		9.803839	0.831717	-0.952733	0.000776	0.002313	-0.032218	-0.671143	-0.499268	-0.070801	0.556998	0.463488	-0.578086	0.375164
61774		9.796646	0.758950	-0.992977	0.001937	0.010703	-0.042017	-0.673584	-0.492920	-0.066406	0.557250	0.463767	-0.577752	0.374962
61775		9.698715	0.737790	-0.951763	-0.014020	0.012196	-0.052335	-0.673584	-0.495361	-0.078857	0.557540	0.463985	-0.577496	0.374654
61776		9.709151	0.675618	-0.941164	0.000795	0.015890	-0.037525	-0.671875	-0.502686	-0.067383	0.557904	0.463997	-0.577228	0.374510
61777		9.773324	0.790880	-1.015341	0.038756	-0.007367	-0.037107	-0.673096	-0.499023	-0.076660	0.557716	0.464647	-0.576877	0.374524
61778		9.711995	0.850772	-0.994447	0.027303	0.002628	-0.047881	-0.674561	-0.496826	-0.070801	0.557854	0.465035	-0.576499	0.374420
61779		9.645436	0.882023	-0.937740	0.020998	0.018097	-0.048791	-0.670410	-0.498535	-0.062988	0.558034	0.465363	-0.576069	0.374405
61780		9.699495	0.885010	-0.959900	0.044536	0.002388	-0.040291	-0.666260	-0.505859	-0.073975	0.557815	0.466031	-0.575646	0.374552
61781		9.690918	0.870865	-1.016279	0.054437	0.001877	-0.027563	-0.672852	-0.496826	-0.070557	0.557699	0.466578	-0.575189	0.374744
61782		9.635463	0.929347	-1.035299	0.038951	-0.003475	-0.022811	-0.674316	-0.509521	-0.066895	0.557510	0.466913	-0.574990	0.374915
61783		9.677320	1.006758	-0.928100	0.017041	-0.000147	-0.023794	-0.677002	-0.501953	-0.073486	0.557468	0.467241	-0.574779	0.374892
61784		9.712114	0.990283	-0.923932	0.018503	0.011104	-0.021512	-0.679688	-0.507324	-0.067383	0.557555	0.467310	-0.574581	0.374980
61785		9.689656	0.943996	-1.025662	0.022889	0.008370	-0.029863	-0.657227	-0.499268	-0.077637	0.557553	0.467604	-0.574309	0.375034
61786		9.667794	0.937898	-1.057970	0.037436	0.003166	-0.036212	-0.662598	-0.513184	-0.063232	0.557660	0.467984	-0.573891	0.375040
61787		9.664929	0.993781	-0.992475	0.039118	0.000102	-0.044673	-0.665771	-0.511963	-0.063721	0.557590	0.468743	-0.573370	0.374993
61788		9.737552	0.971379	-0.861871	0.026397	0.007373	-0.039757	-0.666748	-0.511475	-0.067139	0.557619	0.469284	-0.572927	0.374952
61789		9.749636	0.965831	-0.915031	0.016597	0.008018	-0.035225	-0.669678	-0.503662	-0.066895	0.557733	0.469646	-0.572571	0.374873
61790		9.698260	0.951787	-0.943828	-0.002464	0.009368	-0.031102	-0.661865	-0.507324	-0.074707	0.557907	0.469743	-0.572402	0.374749
61791		9.696782	0.965419	-0.970795	-0.004931	0.001461	-0.020809	-0.663086	-0.515137	-0.058838	0.558136	0.469759	-0.572290	0.374561
61792		9.737076	0.964609	-0.919351	0.001967	0.000869	-0.012473	-0.666992	-0.501953	-0.062500	0.558075	0.470044	-0.572151	0.374506
61793		9.706837	1.005829	-0.958289	-0.008764	0.004676	-0.014250	-0.666504	-0.506348	-0.070557	0.558110	0.470047	-0.572151	0.374449
61794		9.689375	1.033803	-0.966369	-0.017974	0.009905	-0.019719	-0.668213	-0.510986	-0.067383	0.558388	0.469936	-0.572091	0.374266
61795		9.697218	1.013432	-0.951048	-0.003372	0.002266	-0.013561	-0.667480	-0.510498	-0.065918	0.558453	0.469996	-0.572031	0.374185
61796		9.687182	0.976436	-0.934504	0.005583	-0.005038	-0.013863	-0.673828	-0.509277	-0.063965	0.558395	0.470174	-0.571978	0.374130
61797		9.710743	0.984548	-0.896683	-0.021526	0.005953	-0.007831	-0.671875	-0.508057	-0.057373	0.558501	0.470033	-0.572063	0.374019
61798		9.734466	1.058065	-0.947534	-0.035488	0.006467	-0.003698	-0.666748	-0.506836	-0.058594	0.558585	0.469853	-0.572229	0.373865
61799		9.725565	1.026027	-0.980885	-0.027241	0.003187	-0.005661	-0.658203	-0.508789	-0.076172	0.558631	0.469774	-0.572341	0.373724
61800		9.667170	0.951122	-0.936540	-0.017366	0.006065	-0.007431	-0.664795	-0.504150	-0.078857	0.558906	0.469616	-0.572308	0.373562
61801		9.695337	0.949419	-0.916952	-0.016465	0.002071	-0.007404	-0.667480	-0.505615	-0.065674	0.559150	0.469359	-0.572385	0.373403
61802		9.728031	0.991047	-0.927353	-0.020993	-0.000345	-0.006086	-0.662842	-0.506104	-0.068115	0.559210	0.469248	-0.572505	0.373268
61803		9.728022	0.959399	-0.881058	-0.018402	0.005309	-0.003122	-0.661865	-0.502686	-0.074951	0.559326	0.469115	-0.572557	0.373181
61804		9.729395	0.919697	-0.889362	-0.024863	0.008381	0.004048	-0.675537	-0.504150	-0.069824	0.559553	0.468754	-0.572688	0.373093
61805		9.751659	0.906641	-0.945601	-0.021489	0.001209	0.003108	-0.659912	-0.508057	-0.075684	0.559602	0.468464	-0.572913	0.373039
61806		9.695522	0.933284	-0.945310	-0.022094	0.005848	0.005333	-0.662354	-0.501465	-0.070557	0.559807	0.468196	-0.572997	0.372938
61807		9.642507	0.938590	-0.943798	-0.008714	0.004458	-0.000160	-0.662598	-0.501953	-0.066162	0.559850	0.468072	-0.573051	0.372947
61808		9.690876	0.955973	-0.919846	-0.005292	0.002227	-0.003042	-0.662109	-0.516602	-0.073486	0.559808	0.468072	-0.573074	0.372974
61809		9.709434	0.945740	-0.929588	-0.004625	0.001076	-0.002525	-0.664062	-0.507568	-0.064453	0.559887	0.468116	-0.573004	0.372907
61810		9.740395	0.967173	-0.951477	-0.004664	0.002494	0.001017	-0.666260	-0.511719	-0.074219	0.559811	0.468154	-0.573013	0.372960
61811		9.741543	0.979285	-0.887070	-0.012342	0.001754	-0.001921	-0.665283	-0.509033	-0.077393	0.559921	0.468057	-0.573041	0.372873
61812		9.723226	0.958319	-0.914881	-0.013577	0.002416	-0.000662	-0.666016	-0.503418	-0.079834	0.560074	0.467880	-0.573098	0.372779
61813		9.655451	0.926802	-0.909748	-0.016047	0.003739	0.001856	-0.670898	-0.498535	-0.071289	0.560254	0.467575	-0.573222	0.372699
61814		9.690945	0.939378	-0.950281	-0.012242	0.003825	-0.002715	-0.670166	-0.508301	-0.079590	0.560293	0.467377	-0.573350	0.372692
61815		9.728666	0.924234	-0.938052	-0.010722	0.001554	-0.003314	-0.661621	-0.506592	-0.075195	0.560441	0.467190	-0.573421	0.372594
61816		9.715008	0.933069	-0.915229	-0.003058	-0.002212	-0.003539	-0.668945	-0.501953	-0.074707	0.560477	0.467176	-0.573435	0.372538
61817		9.712672	0.947996	-0.888776	-0.002062	-0.005993	-0.002783	-0.668213	-0.515625	-0.068115	0.560436	0.467106	-0.573547	0.372515
61818		9.690695	0.928959	-0.870183	-0.001053	0.002153	-0.005043	-0.668457	-0.504395	-0.078613	0.560412	0.467226	-0.573475	0.372511
61819		9.716529	0.954601	-0.904485	-0.013533	0.001000	-0.004195	-0.662842	-0.493164	-0.075928	0.560555	0.467024	-0.573571	0.372402
61820		9.717324	0.981878	-0.921309	-0.022732	-0.005286	-0.003472	-0.665771	-0.502197	-0.067139	0.560651	0.466763	-0.573794	0.372241
61821		9.700690	0.980031	-0.939297	-0.014015	-0.005635	-0.003288	-0.666748	-0.507324	-0.086426	0.560588	0.466749	-0.573909	0.372175
61822		9.722810	0.954375	-0.917372	-0.013103	-0.001414	-0.003201	-0.672607	-0.502197	-0.075195	0.560819	0.466486	-0.574019	0.371987
61823		9.731802	0.903480	-0.910602	-0.025373	0.002358	0.002314	-0.668457	-0.506104	-0.074951	0.560938	0.466172	-0.574221	0.371891
61824		9.720477	0.844158	-0.904240	-0.036643	0.004206	0.007048	-0.667480	-0.502930	-0.078125	0.561129	0.465798	-0.574440	0.371731
61825		9.742957	0.850103	-0.925067	-0.021121	0.004927	0.005025	-0.671143	-0.512207	-0.076660	0.561274	0.465493	-0.574589	0.371664
61826		9.722668	0.841964	-0.924901	-0.010793	0.004376	0.003796	-0.672119	-0.502930	-0.076416	0.561356	0.465344	-0.574648	0.371637
61827		9.722849	0.841189	-0.923693	-0.012362	0.003558	0.004781	-0.668701	-0.509521	-0.081055	0.561398	0.465122	-0.574777	0.371653
61828		9.722986	0.840441	-0.922936	-0.000660	0.001542	0.002613	-0.664795	-0.503662	-0.074463	0.561456	0.465009	-0.574813	0.371650
61829		9.719014	0.835790	-0.906279	0.010003	0.006185	-0.001420	-0.666992	-0.500488	-0.078125	0.561410	0.465054	-0.574732	0.371789
61830		9.699175	0.867683	-0.919488	0.008052	0.004907	-0.000295	-0.665039	-0.503662	-0.074463	0.561391	0.465001	-0.574714	0.371910
61831		9.710808	0.926089	-0.923713	0.002719	0.000727	0.003261	-0.667725	-0.503418	-0.072754	0.561326	0.464987	-0.574733	0.371998
61832		9.707670	0.893823	-0.914986	0.005865	0.000895	0.005962	-0.667969	-0.505615	-0.079834	0.561202	0.464983	-0.574759	0.372149
61833		9.721517	0.903809	-0.902056	0.010720	0.002545	0.003342	-0.664551	-0.504883	-0.080811	0.561175	0.464940	-0.574749	0.372260
61834		9.709965	0.962499	-0.912640	0.007049	-0.000994	0.003537	-0.673340	-0.496094	-0.074951	0.561162	0.464885	-0.574772	0.372312
61835		9.714234	0.985364	-0.892962	-0.000995	0.001924	0.000793	-0.669434	-0.493164	-0.083008	0.561102	0.464766	-0.574859	0.372417
61836		9.700167	0.953893	-0.856188	-0.004800	0.005157	-0.000836	-0.674072	-0.505127	-0.077393	0.561202	0.464506	-0.574957	0.372438
61837		9.697515	0.858311	-0.924774	-0.002093	0.001387	-0.000744	-0.670410	-0.503418	-0.080078	0.561211	0.464417	-0.575010	0.372455
61838		9.713583	0.908064	-0.948947	0.002286	-0.000962	0.002237	-0.683594	-0.501221	-0.082275	0.561202	0.464319	-0.575077	0.372487
61839		9.727827	0.924509	-0.904825	-0.000668	-0.002564	0.002569	-0.670410	-0.506348	-0.079590	0.561180	0.464105	-0.575246	0.372526
61840		9.749718	0.910229	-0.878933	-0.002657	0.001284	0.004156	-0.665283	-0.507080	-0.077637	0.561214	0.463973	-0.575317	0.372530
61841		9.694755	0.896696	-0.889925	-0.001511	0.004520	0.002193	-0.667236	-0.504883	-0.077393	0.561267	0.463903	-0.575313	0.372543
61842		9.672911	0.890740	-0.950685	0.000052	0.001231	0.001166	-0.674805	-0.504883	-0.079590	0.561272	0.463856	-0.575332	0.372565
61843		9.704790	0.904546	-0.944734	0.001564	-0.001431	-0.002568	-0.667969	-0.502441	-0.078125	0.561272	0.463795	-0.575384	0.372561
61844		9.754008	0.913589	-0.893537	0.007573	0.000517	0.002183	-0.664307	-0.497803	-0.075439	0.561220	0.463775	-0.575392	0.372651
61845		9.699798	0.873061	-0.912572	0.009433	0.000114	0.004982	-0.665771	-0.503174	-0.080322	0.561097	0.463787	-0.575396	0.372815
61846		9.704875	0.868778	-0.900429	0.004238	-0.001544	0.002656	-0.666260	-0.506104	-0.077148	0.561089	0.463730	-0.575435	0.372838
61847		9.714132	0.888138	-0.868864	0.000953	-0.002373	0.004294	-0.665283	-0.495117	-0.072754	0.561059	0.463695	-0.575484	0.372851
61848		9.718097	0.872337	-0.921063	0.005709	-0.004655	0.004011	-0.668457	-0.496826	-0.077393	0.560883	0.463734	-0.575532	0.372994
61849		9.708295	0.916363	-0.876218	0.000896	-0.003995	0.000003	-0.667725	-0.503418	-0.077393	0.560822	0.463687	-0.575605	0.373029
61850		9.701202	0.902103	-0.901149	-0.000019	-0.003032	-0.007838	-0.669434	-0.493164	-0.075684	0.560842	0.463716	-0.575606	0.372963
61851		9.708345	0.904905	-0.881686	-0.002058	-0.005596	0.000335	-0.668457	-0.506836	-0.076172	0.560747	0.463659	-0.575715	0.373009
61852		9.720433	0.884122	-0.885741	-0.005867	-0.007937	0.003329	-0.667236	-0.502197	-0.080811	0.560711	0.463618	-0.575827	0.372941
61853		9.720710	0.870104	-0.891287	-0.008820	-0.009538	0.003664	-0.676758	-0.500488	-0.073730	0.560724	0.463481	-0.575999	0.372827
61854		9.720401	0.935370	-0.899034	-0.013051	-0.007602	0.004138	-0.668701	-0.504395	-0.077148	0.560650	0.463356	-0.576190	0.372797
61855		9.697826	0.909240	-0.913872	-0.009207	-0.010387	0.000681	-0.672852	-0.503418	-0.079102	0.560633	0.463299	-0.576331	0.372675
61856		9.732042	0.862413	-0.895893	-0.011015	-0.006893	-0.002490	-0.675537	-0.503418	-0.080078	0.560677	0.463188	-0.576467	0.372537
61857		9.707543	0.818628	-0.921530	-0.016045	-0.004468	0.001816	-0.671143	-0.498291	-0.077881	0.560752	0.462976	-0.576649	0.372407
61858		9.709598	0.803994	-0.950300	-0.012567	-0.008791	0.006293	-0.671143	-0.500488	-0.084717	0.560714	0.462810	-0.576856	0.372348
61859		9.707006	0.829669	-0.921559	-0.006331	-0.011938	0.008941	-0.675293	-0.496826	-0.086182	0.560701	0.462599	-0.577096	0.372258
61860		9.733455	0.858603	-0.926164	-0.005188	-0.003124	0.002352	-0.672852	-0.503174	-0.083008	0.560766	0.462359	-0.577261	0.372203
61861		9.722674	0.826346	-0.938815	-0.006022	-0.004188	-0.006327	-0.679932	-0.507324	-0.079834	0.560867	0.462250	-0.577350	0.372048
61862		9.709453	0.790093	-0.959783	0.001685	-0.004871	-0.006958	-0.672363	-0.500000	-0.081543	0.560884	0.462228	-0.577410	0.371957
61863		9.729774	0.797980	-0.959958	0.010511	-0.006101	0.001744	-0.672363	-0.503418	-0.074463	0.560802	0.462206	-0.577476	0.372006
61864		9.715343	0.831444	-0.932275	0.010984	-0.011396	0.003850	-0.670166	-0.493408	-0.076172	0.560607	0.462293	-0.577553	0.372072
61865		9.727468	0.895114	-0.907087	-0.002330	-0.003595	0.002812	-0.663330	-0.499268	-0.081543	0.560522	0.462231	-0.577639	0.372144
61866		9.699130	0.899174	-0.926031	-0.001774	-0.003489	-0.002091	-0.672852	-0.498779	-0.077393	0.560580	0.462162	-0.577692	0.372059
61867		9.683649	0.857162	-0.954642	-0.000641	-0.002501	-0.005643	-0.676270	-0.501221	-0.080566	0.560573	0.462147	-0.577725	0.372036
61868		9.690535	0.841645	-0.970661	0.001107	-0.005754	-0.008305	-0.672852	-0.502686	-0.078369	0.560588	0.462125	-0.577785	0.371949
61869		9.739043	0.846302	-0.952804	0.001598	-0.006554	-0.003031	-0.668457	-0.501709	-0.073975	0.560562	0.462114	-0.577855	0.371893
61870		9.748678	0.853056	-0.925330	-0.000085	-0.001682	0.003923	-0.673584	-0.500000	-0.075684	0.560504	0.462091	-0.577903	0.371935
61871		9.732501	0.867997	-0.907525	0.002914	-0.002959	0.004708	-0.675537	-0.503906	-0.081055	0.560413	0.462048	-0.577976	0.372012
61872		9.665147	0.875407	-0.916999	-0.004817	-0.001195	-0.002455	-0.669189	-0.500977	-0.076904	0.560496	0.461917	-0.578063	0.371914
61873		9.715280	0.860551	-0.956430	-0.006066	0.004653	-0.008945	-0.664551	-0.499512	-0.078613	0.560609	0.461874	-0.578036	0.371838
61874		9.704882	0.816351	-0.971498	0.007969	-0.001210	-0.007774	-0.671387	-0.505371	-0.079102	0.560615	0.461943	-0.577984	0.371824
61875		9.722503	0.832966	-0.975467	0.014600	-0.003508	-0.002146	-0.671143	-0.491699	-0.082031	0.560562	0.461998	-0.577977	0.371847
61876		9.703013	0.871049	-0.959072	0.009358	-0.004145	-0.004039	-0.665527	-0.511475	-0.070801	0.560494	0.461997	-0.577998	0.371918
61877		9.711652	0.853142	-0.914644	0.002595	-0.000654	-0.006867	-0.677002	-0.497314	-0.074707	0.560517	0.462108	-0.577945	0.371828
61878		9.719545	0.863612	-0.946380	0.011685	0.001309	-0.008393	-0.671631	-0.499756	-0.081787	0.560432	0.462200	-0.577879	0.371945
61879		9.701910	0.869724	-0.991615	0.012786	0.001846	-0.006856	-0.673584	-0.499023	-0.074219	0.560449	0.462212	-0.577830	0.371981
61880		9.733177	0.845434	-0.972870	0.005597	-0.001930	-0.006078	-0.678467	-0.500732	-0.078613	0.560381	0.462275	-0.577816	0.372027
61881		9.718293	0.840985	-0.930304	0.008048	-0.001057	0.001191	-0.665771	-0.499756	-0.074463	0.560320	0.462224	-0.577865	0.372106
61882		9.704529	0.829698	-0.943123	0.002278	0.000506	-0.002434	-0.679443	-0.493164	-0.073242	0.560303	0.462246	-0.577847	0.372131
61883		9.717174	0.849603	-0.958483	0.002363	0.002185	-0.006356	-0.677979	-0.494873	-0.079834	0.560227	0.462262	-0.577831	0.372251
61884		9.713964	0.872355	-0.959098	0.009224	0.000770	-0.004320	-0.675293	-0.508301	-0.071045	0.560182	0.462235	-0.577836	0.372345
61885		9.719862	0.895317	-0.963685	0.015236	-0.001385	0.000381	-0.678467	-0.501709	-0.076172	0.560054	0.462346	-0.577803	0.372450
61886		9.709051	0.894719	-0.936926	0.001758	-0.001006	-0.001075	-0.668457	-0.498779	-0.078125	0.560026	0.462293	-0.577859	0.372471
61887		9.724204	0.885671	-0.899380	-0.008815	0.001994	-0.002453	-0.667969	-0.497559	-0.077881	0.560118	0.462173	-0.577910	0.372404
61888		9.712964	0.847259	-0.942764	-0.005996	-0.001170	0.001512	-0.675049	-0.503906	-0.078125	0.560143	0.462065	-0.577989	0.372378
61889		9.711972	0.854462	-0.970893	-0.002991	0.001664	0.002337	-0.673584	-0.491943	-0.083008	0.560188	0.461933	-0.578063	0.372358
61890		9.725750	0.865600	-0.958035	0.001712	0.000013	-0.000658	-0.675049	-0.500977	-0.075684	0.560193	0.461814	-0.578125	0.372402
61891		9.726343	0.871454	-0.926527	0.002044	-0.002617	-0.000419	-0.672363	-0.497559	-0.079590	0.560147	0.461790	-0.578177	0.372419
61892		9.694007	0.871119	-0.929092	-0.004046	0.000108	0.000384	-0.677734	-0.495117	-0.074707	0.560183	0.461667	-0.578253	0.372401
61893		9.709730	0.816342	-0.934176	-0.005725	0.000543	-0.004043	-0.680420	-0.497803	-0.077148	0.560169	0.461610	-0.578297	0.372423
61894		9.709470	0.797938	-0.969317	-0.003001	0.001273	-0.000787	-0.673340	-0.488037	-0.066162	0.560166	0.461505	-0.578365	0.372452
61895		9.729565	0.818646	-0.964476	0.006620	-0.000822	0.000962	-0.673096	-0.495361	-0.079590	0.559924	0.461631	-0.578329	0.372716
61896		9.738695	0.872285	-0.977842	0.008661	-0.001580	-0.001000	-0.675049	-0.495605	-0.074219	0.559872	0.461610	-0.578355	0.372781
61897		9.704923	0.891494	-0.921107	0.002529	0.000305	0.001765	-0.668945	-0.496338	-0.080566	0.559795	0.461579	-0.578389	0.372881
61898		9.692663	0.858734	-0.909168	-0.003040	-0.001424	0.002717	-0.673584	-0.497070	-0.072754	0.559824	0.461449	-0.578482	0.372856
61899		9.698431	0.862300	-0.948376	-0.017660	0.003542	0.000183	-0.676514	-0.497559	-0.068848	0.559890	0.461298	-0.578564	0.372814
61900		9.723583	0.828627	-1.004713	-0.013184	0.001017	0.000784	-0.675293	-0.498779	-0.071777	0.559862	0.461229	-0.578633	0.372835
61901		9.733716	0.822073	-0.979832	-0.003899	-0.002556	0.002256	-0.676025	-0.491699	-0.077881	0.559788	0.461200	-0.578704	0.372872
61902		9.729890	0.836487	-0.929185	-0.000049	-0.003089	0.000379	-0.680908	-0.492188	-0.075928	0.559732	0.461124	-0.578795	0.372909
61903		9.698191	0.841871	-0.899927	-0.006759	-0.000230	0.000255	-0.681152	-0.497070	-0.079590	0.559707	0.460997	-0.578902	0.372937
61904		9.723187	0.839785	-0.917787	-0.008311	0.001590	0.005949	-0.678711	-0.499756	-0.073730	0.559740	0.460772	-0.579050	0.372937
61905		9.725780	0.811474	-0.948620	-0.003465	-0.000866	0.003279	-0.682861	-0.491211	-0.083496	0.559692	0.460701	-0.579128	0.372974
61906		9.730530	0.820835	-0.932321	-0.008648	0.001972	0.004131	-0.680908	-0.497803	-0.074219	0.559750	0.460427	-0.579297	0.372964
61907		9.732287	0.819775	-0.955846	-0.005330	-0.000463	0.000486	-0.673584	-0.502197	-0.085938	0.559721	0.460350	-0.579375	0.372981
61908		9.692700	0.784390	-0.933616	0.000751	0.000529	-0.003409	-0.670654	-0.502197	-0.075195	0.559845	0.460224	-0.579430	0.372865
61909		9.717582	0.783104	-0.951964	0.005333	-0.001396	0.001057	-0.676025	-0.504883	-0.076904	0.559799	0.460248	-0.579436	0.372895
61910		9.733194	0.812727	-0.928441	0.003419	-0.004081	-0.001358	-0.673828	-0.493408	-0.086182	0.559777	0.460250	-0.579482	0.372853
61911		9.743786	0.845682	-0.916846	-0.005944	0.001920	0.001137	-0.670410	-0.497803	-0.080078	0.559886	0.460030	-0.579592	0.372792
61912		9.714071	0.817329	-0.949660	-0.009594	0.001018	0.006051	-0.677490	-0.492676	-0.083496	0.559952	0.459840	-0.579708	0.372746
61913		9.698827	0.773497	-0.977770	-0.003329	-0.003920	0.002024	-0.676758	-0.484619	-0.084229	0.559956	0.459688	-0.579844	0.372716
61914		9.719519	0.800219	-0.941391	-0.001582	0.000652	-0.003681	-0.678955	-0.488525	-0.077881	0.559974	0.459567	-0.579906	0.372742
61915		9.723335	0.837151	-0.918623	0.003572	-0.004498	0.002093	-0.672119	-0.496582	-0.084717	0.559847	0.459536	-0.579985	0.372847
61916		9.718281	0.839399	-0.931853	-0.000269	-0.001717	0.005556	-0.674316	-0.496338	-0.080322	0.559885	0.459366	-0.580107	0.372810
61917		9.709662	0.824120	-0.932027	-0.005420	0.001574	0.001324	-0.670166	-0.498047	-0.084229	0.559943	0.459225	-0.580186	0.372774
61918		9.725921	0.808296	-0.949880	-0.013518	0.001405	-0.001024	-0.676025	-0.497559	-0.077637	0.560118	0.459007	-0.580302	0.372598
61919		9.711301	0.770534	-0.945956	-0.004027	-0.003221	0.006599	-0.676758	-0.487061	-0.080322	0.560080	0.458893	-0.580426	0.372603
61920		9.729128	0.784759	-0.949779	-0.000126	-0.002525	0.005883	-0.672852	-0.494629	-0.078857	0.559990	0.458790	-0.580527	0.372706
61921		9.719063	0.789087	-0.890879	0.002288	0.000895	0.000690	-0.669678	-0.495361	-0.079346	0.559979	0.458742	-0.580554	0.372741
61922		9.707578	0.816012	-0.940115	-0.002366	0.001528	0.003274	-0.677979	-0.490723	-0.073242	0.560006	0.458640	-0.580608	0.372743
61923		9.698914	0.801018	-0.940431	-0.010229	-0.003340	0.001959	-0.671631	-0.493652	-0.072998	0.559933	0.458581	-0.580704	0.372774
61924		9.712242	0.740462	-0.954224	-0.008325	-0.001044	0.001249	-0.682373	-0.495361	-0.075439	0.559902	0.458544	-0.580756	0.372786
61925		9.752349	0.728920	-0.935248	-0.001753	-0.000855	0.002622	-0.672607	-0.498779	-0.072021	0.559840	0.458480	-0.580831	0.372841
61926		9.729264	0.781549	-0.951036	0.007147	-0.004895	0.004223	-0.677002	-0.487061	-0.072510	0.559695	0.458555	-0.580853	0.372933
61927		9.728045	0.821119	-0.941237	-0.002579	-0.003389	-0.001385	-0.676025	-0.492920	-0.077148	0.559582	0.458575	-0.580896	0.373010
61928		9.716106	0.829043	-0.942920	0.002976	-0.002051	-0.005470	-0.680664	-0.488525	-0.074707	0.559547	0.458603	-0.580903	0.373017
61929		9.710380	0.794247	-0.942649	0.000455	-0.000104	-0.005648	-0.677490	-0.490723	-0.073975	0.559488	0.458616	-0.580913	0.373074
61930		9.705955	0.772406	-0.962358	-0.005593	-0.000641	-0.006835	-0.672607	-0.488037	-0.074463	0.559476	0.458617	-0.580933	0.373060
61931		9.716363	0.753802	-0.941319	-0.002864	-0.001777	-0.002038	-0.675537	-0.500000	-0.084229	0.559422	0.458613	-0.580966	0.373095
61932		9.727649	0.760555	-0.937649	0.007931	-0.005767	-0.002733	-0.680176	-0.492432	-0.083008	0.559423	0.458599	-0.581018	0.373029
61933		9.724840	0.822480	-0.952591	0.005113	-0.002596	-0.006691	-0.680908	-0.492920	-0.079102	0.559432	0.458566	-0.581060	0.372991
61934		9.741947	0.800347	-0.943163	-0.008491	-0.001015	-0.005326	-0.678955	-0.493652	-0.079834	0.559484	0.458466	-0.581143	0.372907
61935		9.718089	0.763562	-0.935833	-0.007925	-0.000520	-0.007101	-0.677734	-0.497803	-0.071777	0.559559	0.458380	-0.581205	0.372804
61936		9.710259	0.744525	-0.991839	-0.002356	-0.000652	-0.006519	-0.672119	-0.496338	-0.081543	0.559535	0.458434	-0.581192	0.372793
61937		9.730924	0.771945	-0.955366	0.002182	-0.001562	-0.001641	-0.672363	-0.487793	-0.074463	0.559559	0.458389	-0.581229	0.372755
61938		9.729139	0.773248	-0.932190	0.000649	-0.003786	-0.004196	-0.670410	-0.496094	-0.073242	0.559478	0.458439	-0.581244	0.372792
61939		9.705375	0.788862	-0.934379	0.002922	0.002689	-0.008133	-0.676514	-0.496826	-0.069824	0.559478	0.458530	-0.581158	0.372813
61940		9.720345	0.782641	-0.981144	0.004579	-0.002632	-0.009998	-0.680420	-0.498535	-0.073242	0.559396	0.458692	-0.581093	0.372839
61941		9.733797	0.743097	-0.960193	0.007781	-0.005342	-0.006183	-0.676758	-0.496338	-0.074951	0.559292	0.458808	-0.581084	0.372864
61942		9.739810	0.786387	-0.929555	0.004638	0.000843	-0.007250	-0.676270	-0.499512	-0.072266	0.559274	0.458868	-0.581042	0.372885
61943		9.700777	0.812041	-0.968880	0.006678	0.000088	-0.009215	-0.675293	-0.492920	-0.078857	0.559234	0.458998	-0.580962	0.372910
61944		9.700559	0.814360	-0.969116	0.006910	-0.000894	-0.011265	-0.677246	-0.490234	-0.078613	0.559237	0.459063	-0.580920	0.372889
61945		9.726721	0.794517	-0.962916	0.005055	-0.000102	-0.010930	-0.673828	-0.493652	-0.072510	0.559241	0.459097	-0.580898	0.372877
61946		9.724224	0.739084	-0.961515	0.000400	0.000525	-0.008346	-0.669678	-0.491699	-0.076904	0.559223	0.459163	-0.580857	0.372885
61947		9.724045	0.793506	-0.971084	0.002739	-0.001453	-0.006534	-0.673096	-0.481201	-0.077393	0.559211	0.459203	-0.580841	0.372879
61948		9.716256	0.825683	-0.953012	0.007113	-0.002327	-0.008228	-0.678711	-0.502686	-0.080566	0.559144	0.459241	-0.580847	0.372924
61949		9.718330	0.833126	-0.945522	0.008002	-0.000743	-0.012847	-0.674316	-0.491455	-0.074951	0.559192	0.459316	-0.580788	0.372852
61950		9.730812	0.802280	-0.951426	-0.000896	0.003668	-0.011327	-0.676270	-0.493652	-0.087158	0.559235	0.459342	-0.580736	0.372836
61951		9.729947	0.799358	-0.983002	0.000964	-0.001228	-0.011695	-0.672607	-0.495361	-0.080811	0.559352	0.459271	-0.580771	0.372694
61952		9.720643	0.800653	-0.979837	0.003065	-0.000364	-0.009375	-0.676758	-0.491699	-0.076416	0.559403	0.459280	-0.580754	0.372632
61953		9.702496	0.819415	-0.937977	0.005591	-0.002304	-0.009194	-0.681152	-0.495850	-0.084717	0.559362	0.459343	-0.580741	0.372637
61954		9.715319	0.827495	-0.957486	0.000773	0.000594	-0.011602	-0.680664	-0.497559	-0.073730	0.559468	0.459276	-0.580766	0.372521
61955		9.715572	0.816799	-0.960801	-0.002697	0.001579	-0.009866	-0.681885	-0.493896	-0.071533	0.559495	0.459295	-0.580749	0.372484
61956		9.720953	0.802647	-0.951610	-0.004263	0.000757	-0.008879	-0.678223	-0.490479	-0.075195	0.559483	0.459314	-0.580751	0.372476
61957		9.725232	0.795673	-0.971020	-0.002730	-0.001121	-0.006366	-0.675537	-0.497314	-0.077148	0.559466	0.459299	-0.580786	0.372465
61958		9.735773	0.777204	-0.949755	-0.004198	0.000516	-0.003057	-0.676270	-0.488281	-0.085449	0.559500	0.459242	-0.580822	0.372427
61959		9.710904	0.799838	-0.979887	-0.001679	0.000436	-0.004417	-0.677734	-0.501709	-0.077881	0.559572	0.459103	-0.580903	0.372365
61960		9.720333	0.860750	-0.960932	0.004029	-0.000875	-0.006626	-0.678955	-0.494385	-0.075684	0.559584	0.459129	-0.580894	0.372329
61961		9.690643	0.853374	-0.959131	0.003367	-0.001583	-0.005597	-0.672363	-0.499756	-0.082031	0.559541	0.459155	-0.580904	0.372346
61962		9.676262	0.836363	-0.919834	-0.003584	-0.000006	-0.005245	-0.676514	-0.492920	-0.078857	0.559637	0.459080	-0.580940	0.372237
61963		9.716017	0.787906	-0.971738	-0.005086	-0.001071	0.001560	-0.678223	-0.489990	-0.073975	0.559640	0.458965	-0.581037	0.372223
61964		9.770072	0.786740	-0.939573	0.005021	0.004658	0.011747	-0.677246	-0.488525	-0.077393	0.559520	0.458866	-0.581088	0.372445
61965		9.745662	0.783471	-0.920142	0.011910	0.006669	0.024709	-0.679688	-0.500000	-0.079834	0.559345	0.458676	-0.581184	0.372793
61966		9.751011	0.889691	-0.920912	-0.008483	0.010873	0.050549	-0.681641	-0.491455	-0.079590	0.559260	0.458118	-0.581494	0.373122
61967		9.735947	0.955245	-0.991396	-0.045653	-0.008351	0.099492	-0.681641	-0.499023	-0.075928	0.558984	0.457026	-0.582405	0.373455
61968		9.702344	0.924030	-1.060946	-0.041910	0.007015	0.138234	-0.677246	-0.495850	-0.079834	0.558617	0.455664	-0.583372	0.374158
61969		9.691584	0.734626	-0.755145	-0.083176	0.007095	0.160791	-0.680908	-0.486816	-0.077148	0.558415	0.453829	-0.584656	0.374686
61970		9.804132	0.701888	-0.452295	-0.153360	0.037219	0.181571	-0.676514	-0.481201	-0.082764	0.558670	0.451237	-0.586166	0.375077
61971		9.796909	0.410118	-0.894489	-0.136149	-0.011709	0.192780	-0.684326	-0.479248	-0.078857	0.558440	0.448894	-0.587989	0.375377
61972		9.706205	0.359423	-1.173872	-0.041611	-0.004201	0.227626	-0.682617	-0.480469	-0.076416	0.557517	0.446957	-0.589497	0.376692
61973		9.671584	0.084645	-0.999023	-0.004821	-0.014854	0.266916	-0.694336	-0.471191	-0.083740	0.556120	0.445084	-0.591084	0.378484
61974		9.884166	-0.410628	-1.114765	0.026059	-0.067759	0.329886	-0.692627	-0.461914	-0.079590	0.553891	0.443093	-0.593304	0.380610
61975		9.896494	-0.993868	-0.914842	0.040361	0.012375	0.424877	-0.704834	-0.455566	-0.080322	0.551684	0.440142	-0.595391	0.383965
61976		9.646007	-1.138148	-0.770979	0.037199	0.008844	0.520849	-0.710938	-0.448730	-0.086182	0.548990	0.436424	-0.598049	0.387919
61977		9.349150	-1.924179	-0.874160	0.022108	-0.007271	0.673118	-0.709229	-0.433350	-0.077393	0.545546	0.431465	-0.601699	0.392653
61978		8.686242	-2.582695	-0.925215	-0.049605	0.010354	0.917205	-0.726318	-0.410156	-0.073975	0.541293	0.424154	-0.606785	0.398632
61979		7.945537	-2.794321	-1.328919	-0.052019	-0.046460	1.223976	-0.738770	-0.397705	-0.092529	0.534926	0.414698	-0.613817	0.406336
61980		7.851691	-2.935515	-0.734422	-0.303060	0.194173	1.457612	-0.752930	-0.372070	-0.090332	0.530554	0.400281	-0.621551	0.414683
61981		7.439150	-3.320921	-0.336948	-0.315005	0.401728	1.618320	-0.770020	-0.339844	-0.095947	0.526736	0.383388	-0.628499	0.424914
61982		6.964403	-3.900295	0.125117	0.004663	0.451817	1.750479	-0.780029	-0.308838	-0.107178	0.520775	0.367140	-0.633757	0.438582
61983		7.269415	-0.181223	0.386707	0.551161	0.441933	1.795443	-0.794922	-0.271240	-0.109131	0.511724	0.353950	-0.635917	0.456583
61984		8.118384	0.829065	-1.111876	-0.161969	0.363570	1.217350	-0.780762	-0.249512	-0.113037	0.508251	0.341087	-0.639850	0.464685
61985		10.033751	-3.975275	-3.121713	-0.214188	-0.014260	0.772497	-0.794189	-0.238770	-0.111572	0.504461	0.333699	-0.644417	0.467858
61986		11.497928	-4.133389	-1.402979	0.999145	-0.209280	0.812160	-0.792969	-0.224609	-0.108154	0.493712	0.334734	-0.643195	0.480106
61987		13.677544	-0.104393	-0.067546	1.115977	0.000073	0.466965	-0.799072	-0.215088	-0.097656	0.486148	0.337904	-0.638333	0.491947
61988		18.268098	2.221594	0.529840	0.402331	-0.016129	-0.323417	-0.795166	-0.221191	-0.098145	0.486229	0.343088	-0.634590	0.493120
61989		23.246592	0.263000	0.329847	-0.229825	-0.062675	-0.863097	-0.796631	-0.231201	-0.095947	0.491961	0.348950	-0.632642	0.485770
61990		23.438292	0.444817	-0.455694	-0.333191	-0.091293	-1.512560	-0.786377	-0.270996	-0.101562	0.501718	0.359332	-0.628592	0.473320
61991		21.634234	-1.614649	-0.776937	-0.299274	-0.197314	-1.862874	-0.776611	-0.306885	-0.084717	0.512385	0.373214	-0.623018	0.458282
61992		16.031621	-2.987188	-0.297475	-0.234458	-0.257479	-1.746864	-0.764648	-0.338867	-0.078613	0.521267	0.386798	-0.617822	0.443807
61993		8.607805	-1.548378	0.504515	-0.231215	-0.185243	-1.440602	-0.757812	-0.361572	-0.072266	0.528754	0.397469	-0.613402	0.431480
61994		2.492349	-0.414511	0.056201	-0.697097	-0.219753	-1.067598	-0.758789	-0.381836	-0.058350	0.536083	0.402222	-0.613494	0.417681
61995		-0.902919	-1.852068	-2.167385	-1.252676	-0.281360	-0.818764	-0.747070	-0.398438	-0.052002	0.544220	0.401529	-0.618065	0.400743
61996		-0.200618	-5.063770	-1.168614	-0.495193	-0.077919	-0.474030	-0.757568	-0.404541	-0.047852	0.548411	0.402176	-0.618754	0.393247
61997		0.916320	-3.858124	-0.488241	1.057155	-0.141726	-0.075974	-0.761475	-0.414795	-0.039551	0.542304	0.410629	-0.614119	0.400186
61998		0.487915	-0.371973	-1.360619	1.045393	-0.196386	0.023683	-0.759521	-0.406006	-0.032471	0.535241	0.418437	-0.610312	0.407366
61999		0.138886	0.935172	0.396979	0.220688	0.030272	0.046001	-0.760498	-0.406494	-0.021973	0.534057	0.419363	-0.609254	0.409545
62000		0.438351	0.297440	1.562830	-0.371249	0.272467	0.208160	-0.746582	-0.389160	-0.041260	0.536979	0.413852	-0.610444	0.409559
62001		0.055565	-1.098339	1.010203	-0.510956	0.347647	0.426464	-0.751953	-0.398926	-0.058594	0.540043	0.405330	-0.612928	0.410343
62002		-0.230520	-2.170102	-0.342333	-0.283342	0.350809	0.603611	-0.744873	-0.381104	-0.077393	0.541019	0.396936	-0.615061	0.414053
62003		4.332154	-4.293870	-2.495093	-0.190486	0.793095	1.143313	-0.747803	-0.358643	-0.104980	0.542031	0.382654	-0.616276	0.424243
62004		17.362042	-9.582818	-2.359131	1.181967	0.218895	1.998268	-0.765625	-0.325195	-0.101807	0.527206	0.373904	-0.617839	0.447799
62005		29.780561	0.592252	-1.075338	1.073560	0.379449	1.707354	-0.765137	-0.295898	-0.115967	0.515350	0.365503	-0.617123	0.469021
62006		34.256494	4.518117	0.361991	-0.236265	0.177039	0.833674	-0.781250	-0.283691	-0.117188	0.512841	0.356450	-0.621149	0.473405
62007		33.129431	5.447052	-1.569451	-1.125940	-0.016254	-0.839356	-0.781494	-0.290527	-0.116455	0.522592	0.355750	-0.624103	0.459168
62008		26.177433	-4.247096	-2.882603	-0.456706	-0.334553	-1.849344	-0.763184	-0.323975	-0.110840	0.532462	0.368958	-0.620555	0.441890
62009		16.042307	-3.312857	-0.048518	0.616756	-0.451858	-1.904823	-0.754883	-0.364746	-0.085938	0.536448	0.390157	-0.611230	0.431740
62010		6.508405	0.622354	0.494706	-0.189296	-0.582451	-1.466820	-0.752686	-0.396484	-0.066406	0.540719	0.403104	-0.608962	0.417488
62011		-1.707619	-2.765101	-1.259747	-1.310117	-0.451666	-1.053277	-0.755859	-0.405518	-0.060059	0.549237	0.404472	-0.613484	0.397969
62012		-0.089712	-11.482712	0.222192	-0.267477	-0.023316	-0.360813	-0.759277	-0.410400	-0.057373	0.552183	0.405460	-0.613199	0.393298
62013		1.024935	-5.593327	-0.471403	0.636564	-0.451218	0.086076	-0.770508	-0.412354	-0.036865	0.545028	0.411346	-0.613625	0.396488
62014		-0.223973	2.388539	-2.466781	1.338074	-0.420076	-0.159643	-0.765137	-0.420654	-0.017334	0.535609	0.423658	-0.608971	0.403475
62015		0.581760	2.669821	1.543695	0.651024	0.096906	-0.125501	-0.772705	-0.418701	-0.008789	0.533492	0.428418	-0.604398	0.408102
62016		-0.008405	0.215839	1.537048	0.015996	-0.011660	0.022598	-0.758057	-0.417969	-0.014160	0.533182	0.428366	-0.604556	0.408328
62017		-0.019675	-0.561811	1.442120	-0.135243	-0.028584	0.208682	-0.750000	-0.418457	-0.019043	0.532601	0.425987	-0.606585	0.408566
62018		0.148492	-0.118067	0.544134	-0.009297	0.275556	0.422819	-0.760010	-0.407959	-0.030518	0.532547	0.421261	-0.607064	0.412803
62019		-0.135280	0.064166	-0.610017	0.021685	0.321453	0.538762	-0.750000	-0.400879	-0.046387	0.532051	0.415604	-0.607655	0.418271
62020		1.006518	1.181195	-0.054168	0.059102	0.376686	0.643640	-0.742676	-0.389648	-0.065918	0.531192	0.409079	-0.608184	0.424972
62021		7.405945	1.274598	3.442856	-0.104028	0.709436	0.805024	-0.746094	-0.369873	-0.089111	0.532768	0.398421	-0.608113	0.433148
62022		22.122269	-5.162816	-5.710034	-0.381910	0.574887	0.714769	-0.743896	-0.357178	-0.114502	0.535101	0.387267	-0.609874	0.437887
62023		30.661987	-7.090339	-4.560543	0.270294	0.160475	0.795789	-0.753906	-0.339600	-0.124268	0.530603	0.382067	-0.611161	0.446058
62024		39.102268	-4.009453	-0.773712	0.629258	-0.161189	0.443400	-0.756836	-0.336670	-0.118164	0.523843	0.383685	-0.610845	0.453037
62025		35.466103	6.940889	1.647802	-0.611173	-0.024855	-0.671232	-0.756836	-0.347656	-0.114258	0.530327	0.384877	-0.611248	0.443846
62026		27.861039	-0.473211	-0.878652	-1.395483	-0.149014	-1.513663	-0.737549	-0.368652	-0.114746	0.544104	0.387846	-0.612529	0.422296
62027		14.874624	-6.779155	-0.269124	-0.427321	-0.169912	-1.678622	-0.733643	-0.402832	-0.112793	0.553592	0.398553	-0.607697	0.406689
62028		3.345271	-1.703655	-2.208592	-0.391161	-0.346981	-1.110147	-0.740479	-0.413818	-0.090576	0.558464	0.405954	-0.606517	0.394279
62029		0.053588	-3.673357	-3.924644	-0.547351	-0.424156	-0.119126	-0.739258	-0.417969	-0.072754	0.558572	0.405059	-0.611602	0.387128
62030		1.362191	-8.432591	2.130505	1.549737	-0.121330	0.670308	-0.763428	-0.408691	-0.044434	0.546411	0.411196	-0.608267	0.402944
62031		1.804123	3.286038	0.771811	0.931635	-0.118804	0.647992	-0.782959	-0.399414	-0.029785	0.537374	0.413143	-0.607686	0.413836
62032		0.017407	8.903285	1.395694	-0.033736	0.065834	-0.075547	-0.794189	-0.399170	-0.024902	0.538414	0.413106	-0.607056	0.413446
62033		0.145448	0.046623	0.452014	-0.592177	0.056521	-0.186356	-0.788574	-0.400146	-0.036865	0.542828	0.410187	-0.608786	0.408000
62034		-0.001072	-2.722701	-0.061917	-0.708578	0.055534	-0.187411	-0.789307	-0.399658	-0.044678	0.547797	0.406463	-0.611065	0.401629
62035		-0.077738	-1.575047	-0.350614	-0.311465	0.183892	-0.069591	-0.793213	-0.407227	-0.056152	0.551107	0.403892	-0.611035	0.399735
62036		-0.533648	-1.248700	-0.464042	-0.065406	0.050181	0.065209	-0.782715	-0.410889	-0.052734	0.551472	0.402650	-0.611371	0.399971
62037		0.283777	-1.529061	-1.110435	-0.069052	-0.020114	0.187391	-0.769531	-0.406738	-0.068115	0.550705	0.400798	-0.612822	0.400666
62038		0.486120	-1.812259	-0.273829	0.077377	0.141010	0.432775	-0.760254	-0.392822	-0.084961	0.549198	0.397258	-0.613652	0.404968
62039		2.315465	-2.841358	-0.671188	0.245276	0.396403	0.948537	-0.760010	-0.383789	-0.099854	0.546146	0.389580	-0.614374	0.415327
62040		13.985258	-5.785101	1.264777	0.877942	0.603235	1.749981	-0.754395	-0.341553	-0.103760	0.537212	0.378830	-0.614045	0.436852
62041		16.305783	13.256898	-1.608537	0.005555	0.308857	0.900461	-0.752930	-0.330811	-0.126465	0.534567	0.370201	-0.616176	0.444429
62042		22.406117	-4.660461	-5.089979	-1.727001	-0.178828	0.604863	-0.760986	-0.318604	-0.144287	0.537657	0.354855	-0.629631	0.434243
62043		30.639560	-34.935151	-2.992261	1.153402	0.080745	1.525877	-0.775391	-0.291992	-0.135986	0.524724	0.350004	-0.629463	0.453804
62044		18.956729	22.925335	3.550863	3.000456	0.370888	1.010278	-0.776123	-0.275391	-0.125488	0.508329	0.359300	-0.613960	0.485344
62045		13.485513	15.201166	-1.823616	-2.001426	-0.371837	-0.900222	-0.777344	-0.291504	-0.130615	0.519701	0.355564	-0.624214	0.462430
62046		12.867273	-14.362491	-5.738497	-1.551032	-0.548422	-1.034473	-0.772949	-0.301025	-0.132324	0.528132	0.356575	-0.632011	0.441013
62047		10.218196	-4.885549	-0.123371	1.836398	-0.239237	-0.895342	-0.766357	-0.322754	-0.109375	0.522806	0.376912	-0.619332	0.448373
62048		8.394773	6.027623	2.635947	1.081516	-0.357188	-1.061238	-0.752441	-0.343994	-0.095459	0.520779	0.394070	-0.610548	0.448028
62049		7.867322	1.532183	1.473364	-0.905757	-0.308497	-1.210465	-0.749268	-0.367920	-0.104492	0.529554	0.399017	-0.611605	0.431622
62050		7.701681	-4.214668	-0.616552	-0.815644	-0.030785	-0.749507	-0.737793	-0.368652	-0.107910	0.537366	0.399429	-0.612458	0.420225
62051		7.727567	-5.374245	-1.457336	-0.432357	0.023303	-0.339291	-0.740723	-0.375488	-0.114258	0.541458	0.398944	-0.612906	0.414745
62052		8.801225	-6.100495	-1.073384	0.244652	-0.039169	0.030540	-0.734863	-0.380859	-0.110107	0.539759	0.400519	-0.612094	0.416636
62053		9.534744	-3.002744	-0.111127	0.913073	-0.162691	0.343187	-0.747314	-0.375488	-0.101562	0.532093	0.404823	-0.610147	0.425108
62054		10.166711	0.304803	0.452840	0.759981	-0.272320	0.321417	-0.745605	-0.370117	-0.082031	0.524407	0.408803	-0.609544	0.431663
62055		10.125858	0.758276	-0.625759	-0.000973	-0.210758	0.005414	-0.752930	-0.367432	-0.085938	0.522751	0.409848	-0.610988	0.430639
62056		9.719005	0.659566	-0.622135	-0.317875	-0.207209	-0.270649	-0.749512	-0.373535	-0.081055	0.524222	0.410903	-0.612687	0.425400
62057		9.117421	-0.082819	1.121376	-0.118227	-0.168988	-0.524867	-0.746094	-0.379150	-0.080322	0.526291	0.414993	-0.611744	0.420200
62058		9.268694	0.745122	0.343489	-0.066522	-0.033995	-0.616978	-0.742188	-0.395508	-0.081543	0.529579	0.419399	-0.609121	0.415477
62059		9.170538	0.674342	-0.355691	-0.383779	-0.070652	-0.753845	-0.730713	-0.410400	-0.083008	0.534917	0.422904	-0.607615	0.407209
62060		9.979090	-0.492058	0.498414	-0.738917	0.034441	-0.814998	-0.718262	-0.422852	-0.086426	0.543162	0.423901	-0.606799	0.396330
62061		9.661576	-2.415559	-0.379898	-0.590004	0.075190	-0.682297	-0.713135	-0.433350	-0.097412	0.550184	0.424636	-0.605570	0.387642
62062		9.043204	-2.730231	-2.034817	-0.153815	-0.104540	-0.476392	-0.700684	-0.444580	-0.100830	0.552486	0.427648	-0.604501	0.382694
62063		9.206184	-1.648360	-2.595379	0.041946	-0.312618	-0.444542	-0.697510	-0.451660	-0.095703	0.551992	0.432748	-0.604078	0.378318
62064		9.808917	-0.625675	-1.342801	0.139153	-0.148744	-0.509682	-0.688477	-0.459229	-0.088623	0.552492	0.438211	-0.601691	0.375089
62065		10.413372	0.454267	-0.966192	0.203208	-0.018444	-0.498317	-0.687012	-0.466797	-0.086426	0.553543	0.443400	-0.598140	0.373116
62066		9.653578	0.604687	-1.277318	-0.076206	0.038541	-0.460474	-0.685059	-0.472412	-0.089600	0.556371	0.446089	-0.595684	0.369617
62067		9.725114	0.909513	-0.522053	-0.272636	0.034095	-0.448964	-0.679443	-0.492432	-0.098633	0.560187	0.447328	-0.594209	0.364695
62068		10.417477	1.182111	-0.253360	-0.335522	0.070097	-0.417405	-0.674072	-0.493652	-0.102051	0.564455	0.447712	-0.592916	0.359716
62069		9.602219	0.215163	-2.911977	0.064604	-0.135836	-0.335163	-0.671631	-0.505615	-0.095947	0.564569	0.451220	-0.591716	0.357121
62070		9.416201	-0.370931	-2.852301	0.253304	-0.129176	-0.249751	-0.666016	-0.499023	-0.097168	0.563274	0.455386	-0.590103	0.356545
62071		9.748387	-0.243601	-1.065467	0.165325	-0.131095	-0.139081	-0.662598	-0.506836	-0.076172	0.561964	0.458114	-0.589524	0.356075
62072		10.030796	0.433984	-0.242071	0.108996	-0.086032	-0.065913	-0.668213	-0.517334	-0.085938	0.560978	0.459706	-0.589292	0.355963
62073		9.888858	1.448156	-0.770586	0.130142	-0.025968	-0.034335	-0.660156	-0.511963	-0.073975	0.560171	0.460945	-0.588719	0.356577
62074		9.515583	1.772795	-1.631839	-0.020689	-0.014597	-0.031573	-0.666260	-0.506592	-0.081787	0.560303	0.461058	-0.588753	0.356168
62075		9.438264	1.570151	-1.728344	-0.119240	-0.024514	-0.040600	-0.663574	-0.511230	-0.074463	0.560972	0.460586	-0.589248	0.354906
62076		9.513491	1.033053	-1.539826	0.004787	-0.058198	-0.063654	-0.662109	-0.514648	-0.072266	0.560778	0.461304	-0.589296	0.354198
62077		9.764294	0.771052	-0.981613	0.133281	-0.006016	-0.076147	-0.657959	-0.508301	-0.079590	0.560282	0.462784	-0.588337	0.354648
62078		9.793985	0.960509	-0.933359	0.104691	0.023858	-0.065506	-0.654053	-0.513916	-0.073242	0.560124	0.463847	-0.587357	0.355131
62079		9.680440	1.331017	-1.347631	0.022480	-0.004440	-0.040611	-0.657471	-0.515869	-0.071045	0.560122	0.464281	-0.587080	0.355025
62080		9.660973	1.462776	-1.338972	-0.001120	-0.005052	-0.013428	-0.667236	-0.512939	-0.069824	0.560132	0.464353	-0.587071	0.354931
62081		9.632525	1.140714	-1.153616	0.007263	0.011929	0.012130	-0.665527	-0.510742	-0.079346	0.560104	0.464217	-0.587058	0.355174
62082		9.655420	0.824865	-1.234843	-0.014821	0.013839	0.015187	-0.664551	-0.510254	-0.078857	0.560208	0.463892	-0.587151	0.355282
62083		9.688924	0.943813	-1.362515	-0.001285	0.012120	-0.008724	-0.663818	-0.508057	-0.077148	0.560327	0.463845	-0.587056	0.355313
62084		9.663907	1.242566	-1.263643	0.042244	0.013040	-0.031114	-0.668457	-0.503662	-0.069336	0.560298	0.464264	-0.586631	0.355512
62085		9.647692	1.213536	-1.209989	0.051100	0.017156	-0.051160	-0.663574	-0.512451	-0.071777	0.560334	0.464874	-0.586023	0.355662
62086		9.719074	1.100512	-1.159584	0.023253	0.039345	-0.044265	-0.656250	-0.515869	-0.069580	0.560665	0.465142	-0.585419	0.355784
62087		9.710324	1.024184	-1.238526	-0.000509	0.033354	-0.016724	-0.661621	-0.508545	-0.081299	0.560966	0.465074	-0.585119	0.355892
62088		9.668827	1.087354	-1.284628	0.023267	0.006994	0.005782	-0.661865	-0.512451	-0.082275	0.560841	0.465112	-0.585041	0.356167
62089		9.672786	1.181103	-0.988475	0.007354	0.009216	0.005164	-0.664062	-0.512451	-0.074219	0.560829	0.465034	-0.585013	0.356334
62090		9.720748	1.191415	-0.886547	0.000454	0.022716	-0.000563	-0.662598	-0.517822	-0.075928	0.560976	0.464896	-0.584883	0.356497
62091		9.695268	1.228769	-1.035806	-0.038994	0.040088	-0.004168	-0.669434	-0.521484	-0.084473	0.561496	0.464432	-0.584782	0.356447
62092		9.627381	1.151679	-1.263436	-0.077696	0.035499	-0.004964	-0.665283	-0.505615	-0.080566	0.562215	0.463717	-0.584886	0.356075
62093		9.676314	1.037949	-1.158639	-0.060177	0.026893	-0.013769	-0.660889	-0.511475	-0.076904	0.562805	0.463223	-0.584925	0.355722
62094		9.728020	0.914609	-0.944301	-0.032745	0.021806	-0.023070	-0.666748	-0.516113	-0.080322	0.563236	0.463023	-0.584815	0.355480
62095		9.823263	0.894404	-0.923961	-0.003884	0.031365	-0.022527	-0.668457	-0.513672	-0.083984	0.563569	0.462977	-0.584514	0.355507
62096		9.702536	0.967708	-1.029456	-0.030890	0.043295	-0.013312	-0.664062	-0.502441	-0.090576	0.564107	0.462615	-0.584306	0.355467
62097		9.610031	0.955881	-1.185825	-0.017841	0.023403	-0.014322	-0.669922	-0.514160	-0.081787	0.564432	0.462430	-0.584184	0.355392
62098		9.658238	1.085630	-1.106384	0.016233	0.020434	-0.017416	-0.663086	-0.513672	-0.088623	0.564545	0.462537	-0.583901	0.355540
62099		9.668539	1.048419	-0.985100	0.030536	0.023549	-0.016501	-0.667236	-0.513916	-0.093506	0.564599	0.462719	-0.583540	0.355809
62100		9.667862	1.047271	-1.011826	0.033594	0.026802	-0.023032	-0.660156	-0.502197	-0.079590	0.564692	0.462948	-0.583111	0.356066
62101		9.654274	1.187679	-1.003997	0.027047	0.025265	-0.025428	-0.665527	-0.508789	-0.085205	0.564810	0.463167	-0.582700	0.356267
62102		9.698652	1.258997	-1.017708	0.042027	0.016555	-0.024798	-0.664062	-0.506348	-0.084717	0.564780	0.463521	-0.582291	0.356524
62103		9.715530	1.201735	-0.943987	0.006511	0.025212	-0.020047	-0.664062	-0.517578	-0.085938	0.564997	0.463549	-0.582007	0.356606
62104		9.674126	1.050664	-0.983086	-0.014556	0.025137	-0.017936	-0.658691	-0.513916	-0.075684	0.565327	0.463422	-0.581822	0.356551
62105		9.644682	1.071012	-0.990811	0.016021	0.026569	-0.016449	-0.665527	-0.510010	-0.093506	0.565474	0.463507	-0.581487	0.356754
62106		9.613459	1.147012	-0.976581	0.039386	0.019747	-0.004520	-0.672607	-0.509766	-0.088135	0.565400	0.463669	-0.581193	0.357140
62107		9.722380	1.171428	-0.982406	0.023305	0.016754	0.006324	-0.662109	-0.524170	-0.083252	0.565342	0.463655	-0.581053	0.357476
62108		9.702589	1.211250	-0.928355	-0.018146	0.015086	0.007882	-0.661377	-0.514893	-0.083984	0.565502	0.463372	-0.581092	0.357528
62109		9.654393	1.165080	-0.907267	-0.016937	0.012390	0.007405	-0.668457	-0.513428	-0.088379	0.565637	0.463104	-0.581150	0.357566
62110		9.667484	1.138911	-0.938014	-0.014469	0.018560	0.005338	-0.673096	-0.504639	-0.086182	0.565816	0.462829	-0.581153	0.357635
62111		9.680470	1.074043	-0.932281	-0.002477	0.015886	0.001054	-0.656250	-0.510742	-0.087646	0.565922	0.462674	-0.581105	0.357744
62112		9.708317	1.059472	-0.975102	-0.007144	0.009694	0.009334	-0.667480	-0.508301	-0.086914	0.565975	0.462472	-0.581150	0.357848
62113		9.703198	1.117573	-0.986121	-0.018188	0.002366	0.016640	-0.672119	-0.512939	-0.084717	0.566005	0.462162	-0.581349	0.357880
62114		9.679907	1.092822	-0.918453	-0.023031	0.002452	0.017764	-0.664551	-0.512451	-0.091064	0.566055	0.461815	-0.581570	0.357890
62115		9.674498	1.039674	-0.872890	-0.039309	0.004529	0.020293	-0.663574	-0.510498	-0.089111	0.566210	0.461322	-0.581864	0.357802
62116		9.673428	1.019565	-0.967131	-0.039325	0.000928	0.025654	-0.671143	-0.505127	-0.088867	0.566311	0.460809	-0.582212	0.357737
62117		9.699770	1.002001	-0.988739	-0.027867	-0.002985	0.016965	-0.668457	-0.507568	-0.085693	0.566356	0.460448	-0.582497	0.357668
62118		9.683174	1.014388	-0.970244	-0.015909	-0.004144	0.008086	-0.665283	-0.507080	-0.094482	0.566358	0.460253	-0.582674	0.357626
62119		9.722588	1.034693	-0.912421	-0.003602	-0.002918	0.006360	-0.669922	-0.509521	-0.092529	0.566318	0.460141	-0.582787	0.357651
62120		9.715195	1.031945	-0.933573	-0.020469	-0.005354	0.004116	-0.671387	-0.513916	-0.093506	0.566364	0.459938	-0.582977	0.357528
62121		9.716518	0.902408	-0.937648	-0.028793	-0.004368	0.007002	-0.676514	-0.511963	-0.096191	0.566453	0.459655	-0.583209	0.357371
62122		9.709033	0.866695	-0.974610	-0.016437	-0.004639	0.018649	-0.669189	-0.508545	-0.089111	0.566420	0.459365	-0.583467	0.357378
62123		9.734509	0.932879	-1.015626	0.002243	-0.017618	0.021949	-0.669434	-0.510742	-0.091553	0.566161	0.459258	-0.583735	0.357488
62124		9.714178	1.027937	-0.969199	0.006786	-0.014048	0.010626	-0.663818	-0.503906	-0.095215	0.565955	0.459248	-0.583894	0.357567
62125		9.687708	1.083655	-0.929744	0.008517	-0.006071	0.005424	-0.678467	-0.508545	-0.091064	0.565828	0.459241	-0.583968	0.357656
62126		9.681853	1.022412	-0.975773	0.008925	-0.007480	0.006786	-0.674805	-0.508545	-0.083740	0.565675	0.459234	-0.584061	0.357756
62127		9.686147	0.981003	-1.013636	0.004577	-0.010154	0.005784	-0.675049	-0.513428	-0.093262	0.565521	0.459234	-0.584170	0.357822
62128		9.697138	0.986540	-1.011744	0.003393	-0.012113	0.002398	-0.676025	-0.510986	-0.079590	0.565390	0.459246	-0.584286	0.357822
62129		9.706680	0.991686	-0.985860	0.011223	-0.008423	0.008950	-0.666504	-0.513184	-0.093506	0.565190	0.459273	-0.584362	0.357980
62130		9.689384	0.998445	-1.000966	0.015654	-0.005195	0.013765	-0.671875	-0.499756	-0.093994	0.564990	0.459267	-0.584429	0.358194
62131		9.679490	1.015074	-1.047352	0.011275	-0.006341	0.008187	-0.671143	-0.510742	-0.086182	0.564833	0.459246	-0.584524	0.358312
62132		9.647804	1.016871	-1.019825	0.016405	-0.010834	0.002304	-0.673584	-0.506348	-0.085693	0.564628	0.459361	-0.584559	0.358432
62133		9.707313	0.995154	-1.014883	0.024563	-0.008755	0.009488	-0.666504	-0.504150	-0.094727	0.564358	0.459461	-0.584596	0.358668
62134		9.726030	1.000338	-0.992682	0.020664	-0.010401	0.012165	-0.674805	-0.509277	-0.089600	0.564103	0.459507	-0.584687	0.358862
62135		9.697791	0.974456	-0.996874	0.008656	-0.007738	0.007684	-0.666016	-0.502930	-0.094971	0.563948	0.459499	-0.584780	0.358965
62136		9.676661	0.977728	-0.996233	0.011201	-0.006896	0.004390	-0.663086	-0.501953	-0.091309	0.563810	0.459517	-0.584845	0.359053
62137		9.692522	0.898774	-1.048249	0.017481	-0.003249	0.001188	-0.665039	-0.507568	-0.087158	0.563670	0.459597	-0.584829	0.359197
62138		9.669665	0.911208	-1.075409	0.025388	-0.006801	-0.000778	-0.670654	-0.511475	-0.085205	0.563461	0.459779	-0.584775	0.359379
62139		9.706185	0.922088	-1.059506	0.034630	-0.006101	0.000608	-0.671875	-0.501953	-0.090088	0.563194	0.460016	-0.584681	0.359646
62140		9.726611	0.960557	-1.045111	0.031171	-0.008287	0.002731	-0.668701	-0.499512	-0.090088	0.562931	0.460192	-0.584661	0.359865
62141		9.725920	0.946211	-1.027524	0.028898	-0.006128	0.001722	-0.677002	-0.510254	-0.087646	0.562703	0.460348	-0.584631	0.360071
62142		9.689518	0.964760	-1.032033	0.025856	-0.005766	0.002923	-0.669678	-0.499268	-0.084229	0.562486	0.460485	-0.584606	0.360276
62143		9.657783	0.973976	-1.056047	0.015767	-0.006528	0.010326	-0.670898	-0.500732	-0.086426	0.562282	0.460500	-0.584678	0.360459
62144		9.711234	0.967663	-1.058776	0.010993	-0.007437	0.011039	-0.681152	-0.503174	-0.081543	0.562100	0.460475	-0.584786	0.360600
62145		9.704068	1.013275	-1.029576	0.018615	-0.004214	0.007309	-0.666260	-0.507080	-0.089355	0.561905	0.460518	-0.584816	0.360799
62146		9.702253	0.980691	-1.022027	0.016100	0.002127	-0.000134	-0.666748	-0.512451	-0.078857	0.561822	0.460578	-0.584754	0.360952
62147		9.689447	0.905433	-1.089644	-0.002767	0.000624	0.000315	-0.672852	-0.502686	-0.082031	0.561814	0.460546	-0.584759	0.360999
62148		9.676466	0.848124	-1.122489	0.000256	-0.007274	0.006790	-0.676514	-0.501221	-0.080566	0.561707	0.460487	-0.584879	0.361045
62149		9.696826	0.845925	-1.072041	0.014697	-0.013746	0.014578	-0.684570	-0.497803	-0.081543	0.561431	0.460497	-0.585032	0.361213
62150		9.711616	0.889850	-1.014706	0.007272	-0.007925	0.021350	-0.675537	-0.503174	-0.080811	0.561214	0.460357	-0.585239	0.361394
62151		9.704034	0.927287	-1.017073	-0.007067	-0.003240	0.023901	-0.675781	-0.502197	-0.087891	0.561100	0.460105	-0.585462	0.361531
62152		9.688730	0.970830	-1.091140	-0.001478	-0.002778	0.019415	-0.676270	-0.501465	-0.080566	0.560993	0.459902	-0.585646	0.361656
62153		9.674492	0.928990	-1.064207	0.013016	-0.001237	0.014523	-0.675293	-0.507324	-0.081055	0.560820	0.459851	-0.585711	0.361886
62154		9.704813	0.939831	-1.035646	0.010862	-0.004687	0.018052	-0.671631	-0.504883	-0.082031	0.560619	0.459787	-0.585814	0.362111
62155		9.715282	0.980734	-1.045013	-0.007943	-0.006446	0.024255	-0.677734	-0.495605	-0.090088	0.560488	0.459552	-0.586051	0.362227
62156		9.730054	0.991822	-1.001711	-0.020605	-0.006861	0.027297	-0.670166	-0.497559	-0.080322	0.560432	0.459155	-0.586416	0.362227
62157		9.699364	0.925936	-1.027634	-0.032587	-0.005325	0.030478	-0.676514	-0.492188	-0.079590	0.560418	0.458693	-0.586798	0.362215
62158		9.701785	0.848140	-1.054814	-0.041929	-0.002753	0.031102	-0.670166	-0.507812	-0.094238	0.560471	0.458132	-0.587228	0.362147
62159		9.687266	0.812784	-1.079642	-0.034186	-0.006247	0.022671	-0.678223	-0.494385	-0.088623	0.560526	0.457708	-0.587579	0.362030
62160		9.701335	0.859994	-1.104726	-0.005542	-0.009006	0.011772	-0.676514	-0.492676	-0.084717	0.560431	0.457552	-0.587789	0.362032
62161		9.695319	0.867841	-1.063310	0.008863	-0.007920	-0.005076	-0.670654	-0.496094	-0.082275	0.560329	0.457629	-0.587820	0.362042
62162		9.719352	0.873598	-1.026871	0.005794	0.002085	-0.001886	-0.673096	-0.503174	-0.077393	0.560297	0.457641	-0.587789	0.362126
62163		9.694020	0.823116	-1.059362	-0.003377	0.001846	0.008665	-0.672363	-0.489746	-0.081787	0.560257	0.457541	-0.587837	0.362238
62164		9.682030	0.809364	-1.096108	-0.000473	-0.003903	0.007878	-0.671631	-0.504395	-0.081787	0.560172	0.457447	-0.587950	0.362302
62165		9.712785	0.835445	-1.087659	0.007501	-0.004190	0.006277	-0.676758	-0.497803	-0.083740	0.560047	0.457462	-0.587979	0.362432
62166		9.734594	0.859856	-1.075520	0.009637	-0.001239	0.007766	-0.676025	-0.501221	-0.084229	0.559930	0.457435	-0.588018	0.362583
62167		9.689557	0.876555	-1.074900	-0.009692	-0.003345	0.007660	-0.675293	-0.489258	-0.080566	0.559909	0.457292	-0.588149	0.362583
62168		9.660238	0.847482	-1.108764	-0.010199	-0.002507	0.002465	-0.680908	-0.500244	-0.083740	0.559914	0.457161	-0.588270	0.362545
62169		9.697285	0.832529	-1.074455	0.000954	0.002204	-0.000751	-0.677246	-0.495850	-0.084229	0.559910	0.457120	-0.588275	0.362594
62170		9.678618	0.798283	-1.082729	0.019814	0.003275	-0.004322	-0.680176	-0.494141	-0.079834	0.559824	0.457227	-0.588173	0.362757
62171		9.718466	0.802417	-1.060299	0.022112	0.001609	-0.008316	-0.672607	-0.492920	-0.075928	0.559720	0.457390	-0.588051	0.362910
62172		9.725631	0.857360	-1.072539	0.021380	0.001400	-0.001853	-0.682861	-0.502441	-0.083740	0.559579	0.457525	-0.587950	0.363121
62173		9.715099	0.881267	-1.062003	0.016874	-0.002455	0.006464	-0.676514	-0.497070	-0.084717	0.559418	0.457566	-0.587955	0.363310
62174		9.674157	0.869637	-1.008504	-0.006493	0.002154	0.001021	-0.677490	-0.492676	-0.085205	0.559454	0.457455	-0.588008	0.363308
62175		9.681766	0.809107	-1.042365	-0.007320	0.004237	-0.007900	-0.680176	-0.505615	-0.083496	0.559553	0.457378	-0.588016	0.363240
62176		9.703893	0.832103	-1.084661	0.010443	0.000821	-0.010659	-0.672607	-0.492920	-0.081299	0.559529	0.457502	-0.587912	0.363290
62177		9.705921	0.839252	-1.077116	0.014742	-0.002907	-0.009663	-0.680176	-0.503906	-0.088135	0.559446	0.457648	-0.587839	0.363351
62178		9.721107	0.818388	-1.020619	0.000894	-0.000600	-0.006137	-0.684326	-0.501221	-0.080811	0.559460	0.457656	-0.587831	0.363332
62179		9.712070	0.837087	-0.981210	-0.012152	0.001262	-0.006398	-0.679199	-0.503174	-0.083984	0.559543	0.457573	-0.587870	0.363246
62180		9.684031	0.810930	-1.037690	-0.003659	0.003364	-0.011268	-0.679443	-0.495850	-0.080811	0.559623	0.457584	-0.587815	0.363198
62181		9.700769	0.837612	-1.092294	-0.001383	0.001202	-0.010243	-0.672607	-0.493896	-0.088379	0.559662	0.457599	-0.587789	0.363160
62182		9.717628	0.856168	-1.096551	0.007134	-0.009550	-0.008622	-0.679199	-0.498047	-0.080811	0.559589	0.457691	-0.587819	0.363109
62183		9.719275	0.861154	-0.982587	0.011741	-0.004759	-0.010026	-0.680420	-0.498779	-0.086426	0.559508	0.457830	-0.587769	0.363138
62184		9.727203	0.897502	-0.946965	-0.011232	0.001513	-0.014461	-0.675537	-0.488770	-0.084961	0.559642	0.457790	-0.587770	0.362980
62185		9.700912	0.867386	-1.083071	-0.027995	0.001429	-0.016728	-0.674561	-0.496826	-0.087891	0.559880	0.457633	-0.587853	0.362678
62186		9.688982	0.788973	-1.121888	-0.017314	0.001896	-0.015138	-0.674805	-0.495361	-0.083008	0.560058	0.457556	-0.587871	0.362471
62187		9.704878	0.738651	-1.104692	0.013196	-0.004819	-0.017915	-0.676514	-0.497314	-0.080078	0.560009	0.457757	-0.587775	0.362449
62188		9.728938	0.823882	-1.033767	0.022077	-0.004604	-0.016393	-0.670898	-0.500488	-0.089844	0.559895	0.458020	-0.587637	0.362517
62189		9.732678	0.947712	-1.052207	0.001280	-0.004306	-0.015146	-0.679932	-0.500000	-0.079590	0.559929	0.458109	-0.587602	0.362409
62190		9.703344	0.915794	-1.033927	-0.012338	-0.000258	-0.017092	-0.675781	-0.496826	-0.091064	0.560046	0.458116	-0.587586	0.362244
62191		9.642100	0.819744	-1.071452	-0.013917	0.004707	-0.019913	-0.681152	-0.500244	-0.091553	0.560259	0.458062	-0.587559	0.362026
62192		9.655887	0.728245	-1.132854	0.001386	-0.000505	-0.019782	-0.669678	-0.503418	-0.083008	0.560346	0.458135	-0.587504	0.361889
62193		9.699989	0.803397	-1.096452	0.024596	-0.008554	-0.015455	-0.679688	-0.499023	-0.093018	0.560193	0.458445	-0.587364	0.361960
62194		9.765979	0.877470	-1.032017	0.026583	-0.007518	-0.010837	-0.675293	-0.494385	-0.086426	0.560050	0.458649	-0.587304	0.362021
62195		9.722110	0.889921	-1.004182	0.013009	-0.001044	-0.010489	-0.671143	-0.498535	-0.068848	0.560010	0.458747	-0.587249	0.362048
62196		9.697670	0.887416	-1.041410	0.001805	0.002753	-0.014544	-0.665527	-0.505127	-0.081543	0.560019	0.458879	-0.587119	0.362076
62197		9.640117	0.917949	-1.148750	0.005587	-0.000987	-0.016800	-0.674316	-0.499023	-0.086914	0.560036	0.459049	-0.586987	0.362049
62198		9.696976	0.916016	-1.114204	0.020537	-0.003064	-0.021887	-0.668457	-0.496582	-0.085449	0.559993	0.459303	-0.586835	0.362042
62199		9.711982	0.956308	-1.059443	0.025155	-0.005659	-0.023688	-0.678223	-0.497803	-0.076660	0.559909	0.459624	-0.586661	0.362047
62200		9.713917	0.958945	-1.001076	0.008479	-0.005226	-0.022147	-0.673340	-0.500488	-0.086670	0.559886	0.459829	-0.586567	0.361973
62201		9.721007	0.947915	-1.016373	-0.024789	0.003730	-0.022945	-0.674805	-0.503906	-0.083008	0.560160	0.459742	-0.586565	0.361661
62202		9.698861	0.819051	-1.078220	-0.021996	0.004696	-0.019033	-0.672119	-0.497070	-0.080566	0.560393	0.459667	-0.586547	0.361425
62203		9.683906	0.774570	-1.137849	0.007994	-0.001702	-0.013880	-0.675293	-0.509033	-0.078857	0.560373	0.459787	-0.586478	0.361415
62204		9.690061	0.868854	-1.079790	0.014825	-0.005067	-0.011178	-0.675781	-0.501709	-0.079590	0.560271	0.459990	-0.586379	0.361475
62205		9.703373	0.915195	-1.053413	0.013727	-0.007199	-0.016887	-0.669189	-0.497070	-0.080078	0.560189	0.460205	-0.586299	0.361459
62206		9.699110	0.972642	-1.039296	0.005393	0.001327	-0.021678	-0.675537	-0.501465	-0.079834	0.560244	0.460353	-0.586173	0.361391
62207		9.705687	0.897648	-1.085374	0.001999	0.002437	-0.019195	-0.672607	-0.504395	-0.081787	0.560313	0.460453	-0.586069	0.361324
62208		9.698422	0.816511	-1.088292	0.012665	0.001372	-0.021822	-0.675781	-0.501221	-0.083496	0.560331	0.460661	-0.585898	0.361309
62209		9.686843	0.903819	-1.078642	0.029197	-0.002165	-0.021362	-0.673828	-0.506836	-0.089600	0.560234	0.460966	-0.585709	0.361378
62210		9.685495	0.991582	-1.097335	0.027979	-0.004266	-0.016655	-0.671631	-0.501221	-0.080078	0.560131	0.461231	-0.585561	0.361438
62211		9.694825	1.001926	-1.070218	0.008081	-0.002718	-0.014262	-0.677490	-0.503418	-0.072998	0.560109	0.461360	-0.585495	0.361416
62212		9.687944	0.951631	-1.058021	-0.000254	0.001479	-0.019831	-0.671631	-0.506592	-0.088135	0.560162	0.461477	-0.585391	0.361351
62213		9.697703	0.958608	-1.085494	0.005286	-0.001704	-0.027726	-0.669189	-0.500488	-0.069336	0.560257	0.461658	-0.585260	0.361185
62214		9.713387	0.937529	-1.083904	0.010719	0.005119	-0.030607	-0.676270	-0.507324	-0.076904	0.560309	0.461941	-0.584998	0.361168
62215		9.715467	0.891614	-1.074045	0.018429	0.005002	-0.028232	-0.671631	-0.504639	-0.069580	0.560334	0.462227	-0.584737	0.361186
62216		9.720059	0.933641	-1.097922	0.015305	0.001201	-0.025468	-0.668945	-0.506836	-0.079590	0.560309	0.462523	-0.584508	0.361215
62217		9.680653	0.971436	-1.073298	0.016370	-0.002672	-0.016679	-0.668457	-0.499023	-0.081299	0.560250	0.462744	-0.584372	0.361244
62218		9.679262	0.987876	-1.070033	0.005192	0.001147	-0.011965	-0.671387	-0.502441	-0.083008	0.560275	0.462790	-0.584329	0.361217
62219		9.657436	0.950909	-1.062025	0.000304	0.004315	-0.011224	-0.667725	-0.506104	-0.071289	0.560352	0.462779	-0.584290	0.361174
62220		9.646918	0.954225	-1.142233	0.014704	-0.000651	-0.016791	-0.668701	-0.502441	-0.082275	0.560285	0.463020	-0.584119	0.361244
62221		9.675708	1.031084	-1.115138	0.030433	-0.005283	-0.016744	-0.669678	-0.502197	-0.075195	0.560141	0.463312	-0.583972	0.361330
62222		9.747584	1.051983	-1.004919	0.014319	-0.001975	-0.014712	-0.667236	-0.500244	-0.070801	0.560078	0.463491	-0.583868	0.361367
62223		9.733227	0.985635	-0.992322	-0.005449	0.004249	-0.010141	-0.671387	-0.505615	-0.079590	0.560138	0.463488	-0.583824	0.361349
62224		9.679901	0.939784	-1.041319	-0.005392	0.003978	-0.004426	-0.673584	-0.507812	-0.063965	0.560204	0.463412	-0.583834	0.361328
62225		9.652078	0.950283	-1.134125	0.004913	0.002853	-0.003823	-0.667969	-0.494385	-0.080322	0.560129	0.463498	-0.583747	0.361476
62226		9.685340	0.972028	-1.120642	0.015113	-0.001301	-0.009280	-0.669189	-0.508301	-0.073730	0.560072	0.463572	-0.583724	0.361507
62227		9.679465	1.026853	-1.083336	0.019152	-0.006093	-0.005468	-0.675049	-0.514893	-0.068115	0.559900	0.463773	-0.583645	0.361643
62228		9.689335	1.079392	-1.061463	0.016668	-0.004004	-0.004895	-0.669678	-0.509766	-0.081299	0.559726	0.463988	-0.583531	0.361820
62229		9.694213	1.065036	-1.029415	-0.001188	0.001574	-0.008720	-0.670898	-0.507080	-0.076416	0.559776	0.463999	-0.583496	0.361785
62230		9.683862	0.983705	-1.067815	-0.012785	0.001238	-0.007293	-0.669922	-0.509766	-0.079590	0.559866	0.463925	-0.583526	0.361692
62231		9.661731	0.952829	-1.112147	-0.006010	-0.001068	-0.004168	-0.667969	-0.503906	-0.077881	0.559897	0.463889	-0.583551	0.361649
62232		9.692307	0.975870	-1.159532	0.001883	-0.005905	0.000827	-0.671875	-0.506836	-0.073975	0.559822	0.463876	-0.583625	0.361664
62233		9.674781	0.996982	-1.086430	0.002717	-0.005128	-0.001791	-0.668701	-0.509521	-0.083740	0.559740	0.463910	-0.583655	0.361699
62234		9.710914	1.029182	-1.034226	-0.002193	-0.004787	-0.006389	-0.671875	-0.504395	-0.078857	0.559750	0.463915	-0.583689	0.361622
62235		9.717762	1.008413	-1.081536	-0.010185	0.001808	-0.004857	-0.668213	-0.505615	-0.073242	0.559832	0.463808	-0.583744	0.361544
62236		9.694006	0.964647	-1.081885	-0.013142	-0.002801	-0.001781	-0.673584	-0.511963	-0.075684	0.559856	0.463730	-0.583821	0.361482
62237		9.680359	0.940104	-1.074438	-0.012606	-0.001539	0.002593	-0.673340	-0.508057	-0.078369	0.559869	0.463627	-0.583901	0.361464
62238		9.699382	0.961693	-1.069849	-0.012694	-0.001749	0.001866	-0.670654	-0.508057	-0.079102	0.559901	0.463494	-0.584009	0.361411
62239		9.692950	0.977568	-1.078424	-0.014302	-0.000378	0.004395	-0.665283	-0.507568	-0.079102	0.559943	0.463332	-0.584121	0.361372
62240		9.701932	0.946956	-1.097227	-0.012425	-0.001118	0.004055	-0.669434	-0.509521	-0.080078	0.559970	0.463207	-0.584210	0.361347
62241		9.674020	0.923366	-1.097991	-0.011812	0.002331	-0.000397	-0.668701	-0.506104	-0.074951	0.560039	0.463099	-0.584250	0.361314
62242		9.700582	0.916198	-1.087829	-0.002398	0.000705	-0.002894	-0.672119	-0.505859	-0.074219	0.560034	0.463091	-0.584243	0.361343
62243		9.712173	0.884562	-1.046266	0.008319	0.003353	-0.002090	-0.672119	-0.506348	-0.078613	0.559979	0.463133	-0.584185	0.361470
62244		9.721492	0.898944	-1.069479	0.004232	0.001644	0.002175	-0.664551	-0.504150	-0.084473	0.559935	0.463101	-0.584194	0.361563
62245		9.706770	0.970243	-1.099544	-0.002466	-0.001855	0.002873	-0.679688	-0.497559	-0.072510	0.559931	0.463014	-0.584270	0.361558
62246		9.686452	1.012151	-1.049824	0.001076	-0.001036	-0.002706	-0.671387	-0.504150	-0.080322	0.559892	0.462958	-0.584343	0.361571
62247		9.649462	0.988205	-1.046968	-0.004194	0.005227	-0.007181	-0.677734	-0.509033	-0.069336	0.559977	0.462901	-0.584327	0.361541
62248		9.678595	0.918433	-1.114795	-0.008703	0.003323	-0.008482	-0.675537	-0.502197	-0.079102	0.560019	0.462905	-0.584283	0.361540
62249		9.692545	0.874183	-1.100684	0.004253	0.000907	-0.003943	-0.661621	-0.502441	-0.075928	0.560004	0.462882	-0.584301	0.361564
62250		9.717002	0.956419	-1.052812	0.004019	-0.000851	0.001502	-0.665527	-0.506104	-0.082031	0.559938	0.462896	-0.584296	0.361655
62251		9.707002	0.935526	-1.061260	-0.001832	-0.000757	0.004915	-0.666016	-0.506592	-0.081299	0.559915	0.462820	-0.584352	0.361698
62252		9.683688	0.935005	-1.066658	0.002087	0.000164	-0.003865	-0.668945	-0.504395	-0.071045	0.559911	0.462840	-0.584326	0.361721
62253		9.670630	0.968495	-1.083932	0.013514	0.001308	-0.005621	-0.671143	-0.504883	-0.079590	0.559811	0.462981	-0.584215	0.361875
62254		9.678392	0.952648	-1.099239	0.019978	0.001461	-0.005065	-0.663086	-0.503906	-0.076904	0.559714	0.463106	-0.584117	0.362023
62255		9.697311	1.006668	-1.079561	0.015170	-0.001557	-0.003571	-0.677246	-0.503174	-0.077393	0.559605	0.463237	-0.584037	0.362152
62256		9.692562	1.015943	-1.060570	0.006208	-0.000848	-0.004689	-0.670898	-0.504395	-0.078613	0.559563	0.463248	-0.584049	0.362183
62257		9.697836	0.982760	-1.063360	-0.002241	0.003468	-0.007932	-0.667480	-0.509766	-0.080566	0.559621	0.463230	-0.584022	0.362161
62258		9.693131	0.898079	-1.089010	-0.002508	0.004432	-0.005923	-0.676758	-0.507324	-0.081299	0.559678	0.463232	-0.583958	0.362174
62259		9.697950	0.903822	-1.128346	0.013419	-0.000122	-0.007477	-0.667969	-0.510010	-0.075684	0.559623	0.463321	-0.583900	0.362238
62260		9.706466	0.957074	-1.081268	0.017984	-0.000079	-0.004656	-0.673340	-0.503906	-0.085693	0.559498	0.463507	-0.583763	0.362414
62261		9.708577	0.962342	-1.073619	0.016351	0.000441	-0.000207	-0.665527	-0.507080	-0.076172	0.559427	0.463518	-0.583762	0.362510
62262		9.673881	0.973813	-1.047709	0.002200	0.002819	-0.000863	-0.670410	-0.502686	-0.076172	0.559408	0.463533	-0.583713	0.362599
62263		9.679911	0.965009	-1.090627	0.004889	0.002007	-0.001896	-0.665527	-0.507080	-0.073486	0.559379	0.463528	-0.583702	0.362669
62264		9.672014	0.982083	-1.075295	0.003334	-0.000084	-0.002049	-0.665527	-0.511963	-0.076904	0.559323	0.463591	-0.583649	0.362760
62265		9.700709	0.979757	-1.057719	0.003144	-0.000132	-0.000449	-0.666748	-0.502930	-0.074951	0.559268	0.463661	-0.583583	0.362862
62266		9.703958	0.971510	-1.053498	0.005566	0.000020	0.000525	-0.669678	-0.507568	-0.078857	0.559205	0.463673	-0.583577	0.362954
62267		9.704311	0.984201	-1.073223	-0.000655	0.004435	-0.000152	-0.667725	-0.506592	-0.077637	0.559222	0.463632	-0.583553	0.363018
62268		9.686215	0.936388	-1.060500	-0.006621	0.001869	0.000254	-0.676514	-0.508545	-0.076660	0.559248	0.463566	-0.583571	0.363032
62269		9.671104	0.932344	-1.100675	-0.006798	0.001448	-0.001202	-0.675537	-0.509277	-0.073242	0.559268	0.463503	-0.583598	0.363039
62270		9.684672	0.957478	-1.108065	0.005589	0.000871	-0.001396	-0.670410	-0.499512	-0.078125	0.559194	0.463561	-0.583548	0.363160
62271		9.690601	0.915705	-1.058763	0.003800	0.001821	-0.000329	-0.671143	-0.502930	-0.085938	0.559181	0.463499	-0.583584	0.363200
62272		9.729360	0.933585	-1.032530	-0.001943	0.001379	-0.002312	-0.672607	-0.505371	-0.081055	0.559237	0.463398	-0.583641	0.363152
62273		9.712268	0.969669	-1.085759	-0.001652	0.001265	-0.006240	-0.673584	-0.506592	-0.074219	0.559277	0.463373	-0.583641	0.363122
62274		9.651266	0.971063	-1.104506	-0.000099	0.004953	-0.001895	-0.665039	-0.513184	-0.078857	0.559278	0.463358	-0.583600	0.363205
62275		9.659791	0.915697	-1.081612	-0.008821	0.005437	0.001084	-0.667725	-0.497559	-0.078125	0.559328	0.463323	-0.583543	0.363266
62276		9.683989	0.858838	-1.074208	-0.001219	0.001095	-0.003733	-0.680908	-0.505615	-0.080566	0.559356	0.463252	-0.583589	0.363239
62277		9.691217	0.945083	-1.095667	0.018322	-0.001679	-0.004000	-0.667725	-0.505859	-0.082275	0.559243	0.463341	-0.583558	0.363350
62278		9.703283	1.002211	-1.064572	0.007644	0.000556	-0.000276	-0.676758	-0.510254	-0.082031	0.559202	0.463359	-0.583534	0.363428
62279		9.719385	0.917155	-1.037010	-0.009688	0.007374	0.000261	-0.675293	-0.509277	-0.086426	0.559296	0.463227	-0.583544	0.363436
62280		9.645288	0.905869	-1.067428	-0.000632	0.005286	-0.002072	-0.670654	-0.505371	-0.082031	0.559356	0.463159	-0.583531	0.363452
62281		9.672786	0.937109	-1.117584	0.013257	0.002280	-0.003589	-0.675293	-0.507324	-0.078857	0.559307	0.463222	-0.583462	0.363556
62282		9.703573	0.971864	-1.076430	0.009546	0.000668	-0.002533	-0.674561	-0.508057	-0.080322	0.559243	0.463277	-0.583418	0.363655
62283		9.695087	0.963075	-1.020605	0.005155	0.002641	0.000293	-0.670898	-0.509033	-0.080811	0.559212	0.463272	-0.583394	0.363748
62284		9.690073	0.978898	-1.052307	-0.001810	0.004888	-0.001236	-0.670166	-0.495850	-0.074707	0.559245	0.463240	-0.583355	0.363800
62285		9.681300	0.914618	-1.078056	-0.007073	0.005975	-0.004559	-0.680664	-0.504883	-0.082764	0.559331	0.463113	-0.583394	0.363767
62286		9.701135	0.879824	-1.071018	-0.006774	0.002295	-0.003128	-0.675049	-0.502686	-0.082031	0.559398	0.462990	-0.583463	0.363710
62287		9.694626	0.896463	-1.079437	0.006378	-0.000050	-0.000164	-0.671631	-0.507812	-0.067627	0.559361	0.462955	-0.583497	0.363758
62288		9.708145	0.921292	-1.087414	0.015192	-0.000320	-0.002406	-0.672363	-0.507080	-0.083252	0.559195	0.463146	-0.583365	0.363981
62289		9.710624	0.951116	-1.012236	0.007557	0.000347	-0.000999	-0.676758	-0.504639	-0.079590	0.559156	0.463164	-0.583345	0.364050
62290		9.701216	0.956832	-1.060746	-0.005821	0.000567	-0.001581	-0.674316	-0.509033	-0.076172	0.559184	0.463076	-0.583404	0.364025
62291		9.686546	0.945848	-1.049016	-0.009498	0.001030	-0.001313	-0.677734	-0.507080	-0.081299	0.559208	0.463029	-0.583416	0.364028
62292		9.697779	0.889697	-1.074858	-0.002866	0.000389	-0.000426	-0.674561	-0.501465	-0.082764	0.559214	0.462965	-0.583457	0.364034
62293		9.708869	0.896736	-1.070300	-0.004499	-0.000689	-0.000174	-0.679688	-0.507324	-0.072510	0.559241	0.462847	-0.583553	0.363989
62294		9.692727	0.917638	-1.019570	-0.010676	0.000634	-0.000475	-0.667969	-0.509033	-0.081299	0.559247	0.462779	-0.583595	0.364000
62295		9.689869	0.907110	-1.059040	-0.012300	0.000780	0.000913	-0.669678	-0.503174	-0.077881	0.559300	0.462697	-0.583624	0.363975
62296		9.693818	0.893008	-1.110196	-0.005844	-0.000283	0.000343	-0.672363	-0.502441	-0.070557	0.559305	0.462633	-0.583668	0.363978
62297		9.686675	0.883765	-1.078636	0.001423	-0.001419	-0.000923	-0.672119	-0.497070	-0.082031	0.559228	0.462663	-0.583666	0.364061
62298		9.694162	0.886091	-1.058666	0.007267	-0.001136	-0.001265	-0.676514	-0.511475	-0.079590	0.559195	0.462616	-0.583726	0.364078
62299		9.714414	0.939183	-1.062808	0.004577	-0.000325	-0.000234	-0.674316	-0.494629	-0.073486	0.559129	0.462671	-0.583681	0.364180
62300		9.700065	0.940216	-1.071824	-0.001457	-0.000656	0.001708	-0.668457	-0.512939	-0.078613	0.559097	0.462561	-0.583788	0.364199
62301		9.684649	0.954351	-1.076964	0.002342	0.001167	0.001382	-0.671875	-0.506104	-0.080811	0.559041	0.462635	-0.583700	0.364330
62302		9.664649	0.945538	-1.077690	0.000288	0.001484	0.000264	-0.673340	-0.496826	-0.077393	0.559030	0.462614	-0.583693	0.364385
62303		9.680052	0.931544	-1.072546	-0.008004	-0.002626	-0.003774	-0.675537	-0.503662	-0.078125	0.559062	0.462509	-0.583803	0.364292
62304		9.687545	0.903124	-1.067687	-0.005183	0.000073	-0.003728	-0.675293	-0.495605	-0.089600	0.559082	0.462466	-0.583832	0.364271
62305		9.713074	0.877162	-1.069529	0.007095	0.001264	0.002604	-0.669434	-0.499756	-0.075195	0.559091	0.462310	-0.583949	0.364266
62306		9.722982	0.928475	-1.046556	-0.002688	-0.005577	0.001061	-0.673828	-0.496094	-0.083008	0.559027	0.462286	-0.584026	0.364273
62307		9.693827	0.949636	-1.029661	-0.003911	-0.002885	0.001519	-0.672852	-0.501221	-0.082031	0.559037	0.462136	-0.584174	0.364208
62308		9.657939	0.943299	-1.015869	-0.002293	0.000535	-0.005223	-0.668701	-0.508301	-0.081299	0.559077	0.462090	-0.584199	0.364165
62309		9.698387	0.911251	-1.064443	-0.010015	0.000990	-0.004541	-0.667969	-0.499756	-0.082275	0.559145	0.462066	-0.584183	0.364118
62310		9.708461	0.868911	-1.086798	-0.014840	-0.001661	0.000001	-0.664307	-0.501953	-0.079834	0.559223	0.461909	-0.584303	0.364005
62311		9.684995	0.900230	-1.077457	-0.002687	-0.005578	0.001060	-0.669678	-0.494873	-0.086426	0.559178	0.461900	-0.584356	0.364000
62312		9.702218	0.878364	-1.044672	-0.001051	0.000293	-0.003411	-0.679688	-0.512451	-0.077637	0.559238	0.461782	-0.584443	0.363920
62313		9.683247	0.826406	-1.064438	-0.007555	0.001625	-0.008539	-0.667725	-0.503662	-0.077637	0.559280	0.461823	-0.584379	0.363905
62314		9.700484	0.870364	-1.108089	0.001439	-0.001790	-0.003979	-0.674072	-0.500000	-0.084229	0.559244	0.461880	-0.584346	0.363939
62315		9.702428	0.907781	-1.085259	0.009956	-0.001944	-0.002302	-0.674561	-0.505371	-0.077148	0.559193	0.461885	-0.584370	0.363974
62316		9.703811	0.919218	-1.022237	0.000770	-0.003372	-0.001044	-0.684570	-0.493408	-0.085449	0.559129	0.461916	-0.584380	0.364019
62317		9.710462	0.916555	-1.034539	-0.009722	-0.003916	-0.004244	-0.676758	-0.491211	-0.082275	0.559202	0.461700	-0.584596	0.363832
62318		9.729317	0.908174	-1.045496	-0.008224	0.000042	-0.005601	-0.665771	-0.496582	-0.080322	0.559288	0.461525	-0.584737	0.363695
62319		9.704845	0.891124	-1.062218	-0.013142	0.000747	-0.007139	-0.671875	-0.492432	-0.082275	0.559397	0.461427	-0.584790	0.363568
62320		9.679137	0.811672	-1.085879	-0.012871	-0.000216	-0.009143	-0.674316	-0.511230	-0.084229	0.559519	0.461281	-0.584900	0.363387
62321		9.675639	0.822410	-1.090308	-0.002827	-0.001945	-0.010720	-0.666504	-0.505371	-0.079346	0.559565	0.461345	-0.584852	0.363313
62322		9.702119	0.830461	-1.101923	0.017706	-0.005943	-0.014426	-0.670898	-0.500000	-0.076904	0.559460	0.461620	-0.584703	0.363365
62323		9.711054	0.859736	-1.038897	0.018345	0.001177	-0.015461	-0.672363	-0.506348	-0.083740	0.559399	0.461831	-0.584543	0.363449
62324		9.695381	0.845777	-1.059668	0.014105	-0.000108	-0.014578	-0.669189	-0.502930	-0.079834	0.559384	0.462000	-0.584413	0.363465
62325		9.693561	0.913301	-1.113491	0.019624	-0.001781	-0.010212	-0.669678	-0.497070	-0.084229	0.559288	0.462195	-0.584290	0.363562
62326		9.672519	0.988872	-1.049272	0.019341	-0.003264	-0.010470	-0.669189	-0.503906	-0.086670	0.559220	0.462313	-0.584248	0.363584
62327		9.703986	0.967916	-1.007616	0.011059	0.001450	-0.012261	-0.672607	-0.500244	-0.083252	0.559252	0.462397	-0.584164	0.363564
62328		9.725334	0.947012	-1.045632	0.003058	0.001632	-0.010707	-0.673340	-0.504883	-0.081055	0.559305	0.462398	-0.584146	0.363509
62329		9.709063	0.970654	-1.103345	0.003677	-0.004502	-0.006717	-0.671143	-0.486084	-0.078125	0.559273	0.462449	-0.584152	0.363484
62330		9.662760	0.963792	-1.062379	-0.009849	0.000167	-0.004214	-0.677002	-0.501465	-0.079102	0.559342	0.462262	-0.584305	0.363371
62331		9.668008	0.918443	-1.044459	-0.017589	0.002948	-0.010012	-0.686035	-0.507080	-0.086914	0.559490	0.462134	-0.584361	0.363215
62332		9.683017	0.882519	-1.106009	-0.003580	0.001040	-0.012718	-0.670654	-0.501465	-0.086182	0.559596	0.462076	-0.584391	0.363077
62333		9.731168	0.866916	-1.155232	0.009627	-0.004363	-0.009385	-0.675537	-0.503174	-0.076904	0.559579	0.462133	-0.584394	0.363025
62334		9.717581	0.899989	-1.065657	0.014415	-0.000955	-0.007818	-0.672119	-0.507324	-0.080811	0.559487	0.462266	-0.584317	0.363124
62335		9.690165	0.959651	-1.024543	0.007173	0.002238	-0.007337	-0.679688	-0.499268	-0.073242	0.559486	0.462332	-0.584240	0.363164
62336		9.708338	0.946252	-1.066697	-0.001798	0.001688	-0.009597	-0.673828	-0.507812	-0.081543	0.559491	0.462341	-0.584226	0.363167
62337		9.702091	0.901312	-1.105076	-0.000047	0.006281	-0.008775	-0.673828	-0.502930	-0.083252	0.559572	0.462340	-0.584153	0.363162
62338		9.685533	0.943048	-1.126191	0.011428	-0.000034	-0.002864	-0.669434	-0.502441	-0.082275	0.559526	0.462360	-0.584146	0.363220
62339		9.672284	0.987835	-1.056207	-0.000433	-0.001056	-0.003632	-0.670166	-0.510254	-0.082764	0.559541	0.462326	-0.584177	0.363188
62340		9.697357	0.982661	-1.022230	-0.016155	0.002740	-0.009798	-0.665039	-0.504395	-0.080078	0.559705	0.462251	-0.584177	0.363031
62341		9.702673	0.881748	-1.086693	-0.007246	0.003934	-0.010179	-0.663086	-0.506836	-0.073975	0.559812	0.462241	-0.584125	0.362961
62342		9.694045	0.863608	-1.118124	-0.000280	0.000486	-0.009786	-0.671387	-0.511230	-0.076172	0.559811	0.462366	-0.584012	0.362986
62343		9.720229	0.889786	-1.092953	0.001135	0.000669	-0.006525	-0.676270	-0.514404	-0.083008	0.559795	0.462456	-0.583927	0.363033
62344		9.694704	0.897703	-1.018187	0.005510	0.003877	-0.010506	-0.673584	-0.498779	-0.078857	0.559833	0.462544	-0.583809	0.363052
62345		9.698616	0.886003	-1.068342	0.013742	0.008283	-0.012167	-0.678711	-0.500244	-0.080078	0.559848	0.462617	-0.583683	0.363139
62346		9.720173	0.909252	-1.110014	0.012346	0.005758	-0.008950	-0.677979	-0.506348	-0.083008	0.559841	0.462651	-0.583616	0.363215
62347		9.701194	0.876333	-1.092892	0.014455	0.009601	-0.009400	-0.669189	-0.503906	-0.081299	0.559868	0.462704	-0.583485	0.363315
62348		9.666560	0.901862	-1.086004	0.030312	0.006509	-0.007456	-0.676025	-0.497803	-0.075439	0.559768	0.462894	-0.583290	0.363539
62349		9.647667	0.982567	-1.120691	0.037370	0.000830	-0.008578	-0.673828	-0.507080	-0.072754	0.559552	0.463151	-0.583128	0.363805
62350		9.682185	1.028713	-1.064222	0.031811	0.002010	-0.007971	-0.670654	-0.504150	-0.070801	0.559358	0.463442	-0.582910	0.364084
62351		9.690633	1.005964	-1.027122	0.019589	0.004177	-0.005220	-0.670654	-0.503906	-0.078369	0.559230	0.463621	-0.582747	0.364313
62352		9.726294	1.014773	-1.040436	0.014628	0.005115	-0.012453	-0.669922	-0.507568	-0.078613	0.559223	0.463749	-0.582603	0.364391
62353		9.683411	0.989067	-1.081159	0.015471	0.007118	-0.013926	-0.671143	-0.504150	-0.078857	0.559232	0.463908	-0.582410	0.364484
62354		9.679136	0.923657	-1.070382	0.016861	0.007691	-0.007617	-0.674316	-0.513672	-0.076660	0.559212	0.463996	-0.582273	0.364620
62355		9.728090	0.943755	-1.070621	0.006353	0.005143	-0.001320	-0.676025	-0.501221	-0.072266	0.559183	0.464047	-0.582177	0.364754
62356		9.683935	0.985138	-1.025568	0.007762	0.002883	-0.000315	-0.664062	-0.510010	-0.079834	0.559105	0.464053	-0.582161	0.364891
62357		9.695001	0.992616	-1.020260	-0.001807	0.004496	-0.004291	-0.675049	-0.500488	-0.075195	0.559161	0.464059	-0.582091	0.364909
62358		9.699990	0.941101	-1.032803	-0.004598	0.009863	-0.008214	-0.678955	-0.504395	-0.078369	0.559262	0.463980	-0.582053	0.364915
62359		9.686530	0.879881	-1.070084	0.011780	0.006846	-0.003011	-0.678955	-0.494629	-0.073975	0.559235	0.463983	-0.581996	0.365044
62360		9.660795	0.906024	-1.067645	0.017212	0.001312	-0.002742	-0.673828	-0.500488	-0.079346	0.559115	0.464012	-0.581995	0.365190
62361		9.720010	0.952065	-1.029318	0.008772	0.000404	-0.004847	-0.672852	-0.505615	-0.087646	0.559082	0.464019	-0.581999	0.365228
62362		9.735640	0.937728	-1.023671	0.011704	0.004310	0.002739	-0.667969	-0.503174	-0.077148	0.559078	0.463943	-0.582016	0.365303
62363		9.713716	0.922712	-1.032399	0.017699	0.000521	0.002404	-0.663574	-0.502686	-0.078369	0.558947	0.464017	-0.581967	0.365488
62364		9.669075	0.970386	-1.040334	0.018849	0.003626	-0.001853	-0.673828	-0.500977	-0.076416	0.558865	0.464116	-0.581861	0.365657
62365		9.658928	0.981447	-1.033304	0.016351	-0.000306	0.001791	-0.673096	-0.506592	-0.081543	0.558733	0.464158	-0.581851	0.365818
62366		9.695664	1.005360	-1.036224	0.015655	-0.000265	0.008891	-0.677734	-0.503174	-0.077148	0.558608	0.464139	-0.581879	0.365991
62367		9.703766	0.973534	-1.031256	0.012250	0.000437	0.008275	-0.674072	-0.507080	-0.077637	0.558479	0.464098	-0.581923	0.366168
62368		9.680453	0.958573	-1.015961	0.007123	0.004613	0.002958	-0.677734	-0.503662	-0.084473	0.558440	0.464074	-0.581897	0.366300
62369		9.683552	0.956337	-1.062926	0.003324	0.002771	0.003273	-0.672363	-0.501465	-0.070801	0.558454	0.463939	-0.581976	0.366324
62370		9.691998	0.951160	-1.098122	0.006252	-0.000689	0.004101	-0.670166	-0.503174	-0.065430	0.558332	0.463958	-0.581980	0.366480
62371		9.676238	0.951548	-1.083868	0.006929	-0.003891	0.005398	-0.674072	-0.497314	-0.073242	0.558142	0.464050	-0.581960	0.366684
62372		9.678899	0.961885	-1.045194	0.003012	-0.004475	0.000428	-0.665283	-0.499756	-0.070801	0.558051	0.464034	-0.582032	0.366729
62373		9.699762	0.945319	-1.028037	-0.003918	-0.000585	-0.004970	-0.675049	-0.507568	-0.074951	0.558040	0.464058	-0.582016	0.366741
62374		9.702130	0.919746	-1.035165	-0.012865	-0.001408	-0.001581	-0.667969	-0.495361	-0.077881	0.558076	0.463983	-0.582075	0.366687
62375		9.753037	0.861817	-1.070584	-0.008718	-0.002253	0.006357	-0.668701	-0.500977	-0.076416	0.558081	0.463798	-0.582239	0.366653
62376		9.714457	0.854311	-1.009257	-0.010289	-0.002738	0.010376	-0.677979	-0.501465	-0.076660	0.558055	0.463629	-0.582390	0.366666
62377		9.714904	0.863890	-1.030035	-0.014585	-0.003264	0.017328	-0.679199	-0.504150	-0.072266	0.558013	0.463355	-0.582633	0.366690
62378		9.684103	0.888784	-1.040711	-0.020940	0.000059	0.017809	-0.671875	-0.506348	-0.082031	0.557996	0.463075	-0.582840	0.366742
62379		9.684997	0.866651	-1.075718	-0.009440	0.000493	0.010033	-0.679688	-0.498047	-0.078125	0.558018	0.462892	-0.582959	0.366749
62380		9.654125	0.848533	-1.081695	0.003810	-0.005257	0.010387	-0.675049	-0.501465	-0.074707	0.557895	0.462779	-0.583115	0.366832
62381		9.723468	0.911085	-1.036864	0.003760	-0.006946	0.014225	-0.676514	-0.496094	-0.081055	0.557719	0.462715	-0.583244	0.366975
62382		9.727685	0.904901	-1.001667	-0.004049	-0.001818	0.018662	-0.672363	-0.494385	-0.085938	0.557655	0.462445	-0.583476	0.367044
62383		9.691428	0.918846	-1.004241	-0.018551	0.001009	0.024905	-0.675537	-0.499756	-0.075684	0.557703	0.461981	-0.583812	0.367021
62384		9.666198	0.914900	-1.068697	-0.033601	0.002806	0.021109	-0.675781	-0.500488	-0.080811	0.557788	0.461555	-0.584088	0.366989
62385		9.672805	0.902413	-1.110931	-0.036709	-0.000291	0.013203	-0.678223	-0.497314	-0.078613	0.557937	0.461145	-0.584377	0.366818
62386		9.711923	0.856443	-1.115407	-0.019984	-0.004740	-0.003390	-0.671631	-0.501221	-0.077881	0.558014	0.460993	-0.584531	0.366647
62387		9.761519	0.819415	-1.007382	-0.013177	0.003401	-0.010606	-0.673096	-0.499268	-0.073730	0.558141	0.460958	-0.584503	0.366541
62388		9.727205	0.724616	-1.005442	-0.022116	0.007876	0.000378	-0.669678	-0.498535	-0.074951	0.558270	0.460782	-0.584539	0.366510
62389		9.691496	0.736719	-1.062201	-0.024861	0.002204	0.009461	-0.681152	-0.498291	-0.081787	0.558340	0.460545	-0.584676	0.366481
62390		9.690825	0.761299	-1.077631	-0.017353	0.004434	0.006969	-0.677490	-0.501709	-0.076172	0.558433	0.460275	-0.584828	0.366437
62391		9.682872	0.777922	-1.061915	-0.003664	-0.001150	-0.003921	-0.675781	-0.499756	-0.083252	0.558415	0.460294	-0.584820	0.366453
62392		9.691060	0.819517	-1.102581	0.014606	-0.000539	-0.006328	-0.681152	-0.505615	-0.079102	0.558358	0.460387	-0.584760	0.366517
62393		9.684683	0.874405	-1.064945	0.022333	-0.002199	-0.008118	-0.674561	-0.497314	-0.085205	0.558218	0.460611	-0.584624	0.366668
62394		9.700363	0.854982	-1.008134	0.016203	0.000801	-0.012264	-0.670410	-0.501465	-0.084229	0.558209	0.460717	-0.584540	0.366681
62395		9.701308	0.844468	-1.011769	0.004253	0.000789	-0.012655	-0.679688	-0.497803	-0.083740	0.558266	0.460790	-0.584465	0.366623
62396		9.701563	0.872322	-1.052734	-0.003309	-0.004364	-0.007455	-0.680908	-0.500244	-0.085205	0.558296	0.460744	-0.584544	0.366509
62397		9.698042	0.881910	-1.057921	0.004516	-0.002128	-0.005126	-0.674561	-0.503906	-0.081543	0.558295	0.460725	-0.584582	0.366474
62398		9.698792	0.901642	-1.046654	-0.001304	-0.000357	-0.005585	-0.672852	-0.497314	-0.074463	0.558321	0.460733	-0.584569	0.366445
62399		9.703718	0.888318	-1.014165	-0.008093	-0.001771	-0.012114	-0.680176	-0.497803	-0.077881	0.558360	0.460775	-0.584548	0.366365
62400		9.692073	0.847006	-1.065529	-0.013542	0.001698	-0.011583	-0.672852	-0.495117	-0.083252	0.558471	0.460709	-0.584575	0.366237
62401		9.713435	0.813234	-1.082802	-0.008107	0.001061	-0.006803	-0.675537	-0.502197	-0.078613	0.558567	0.460610	-0.584632	0.366124
62402		9.690597	0.820325	-1.056514	0.001755	-0.003138	-0.009007	-0.675293	-0.497559	-0.083496	0.558547	0.460692	-0.584598	0.366105
62403		9.675552	0.899757	-1.055956	0.007969	-0.002361	-0.009478	-0.680420	-0.502686	-0.072510	0.558536	0.460745	-0.584585	0.366076
62404		9.708432	0.922962	-1.042659	0.003078	0.001623	-0.010684	-0.681885	-0.498779	-0.087891	0.558506	0.460865	-0.584482	0.366137
62405		9.725354	0.866363	-1.055822	0.000404	0.002046	-0.012708	-0.670898	-0.498047	-0.077881	0.558610	0.460816	-0.584497	0.366015
62406		9.682265	0.853064	-1.009671	0.002654	0.001788	-0.013181	-0.677246	-0.501465	-0.091064	0.558641	0.460903	-0.584409	0.365998
62407		9.710200	0.905117	-1.048592	0.001196	0.002354	-0.010349	-0.672363	-0.500244	-0.079590	0.558757	0.460842	-0.584423	0.365876
62408		9.729163	0.897706	-1.058666	-0.004312	0.001668	-0.008248	-0.683105	-0.501465	-0.083008	0.558815	0.460837	-0.584400	0.365830
62409		9.668736	0.905544	-1.045565	-0.005608	0.004991	-0.010438	-0.675537	-0.500488	-0.083252	0.558928	0.460769	-0.584396	0.365749
62410		9.691677	0.940208	-1.022543	-0.011143	0.013145	-0.006114	-0.676514	-0.494873	-0.081543	0.559119	0.460610	-0.584368	0.365702
62411		9.689416	0.862943	-1.120253	-0.029787	0.020367	-0.013116	-0.669434	-0.506104	-0.080322	0.559487	0.460324	-0.584354	0.365523
62412		9.666324	0.784525	-1.163285	-0.016428	0.013239	-0.016237	-0.670166	-0.496826	-0.078369	0.559734	0.460283	-0.584219	0.365413
62413		9.699972	0.789807	-1.183555	0.018269	0.000546	-0.011120	-0.682373	-0.499268	-0.081055	0.559646	0.460473	-0.584081	0.365528
62414		9.731312	0.837308	-1.078848	0.043237	0.003644	-0.006574	-0.674316	-0.502441	-0.085693	0.559426	0.460741	-0.583879	0.365850
62415		9.692741	0.868867	-0.969311	0.032022	0.009454	-0.002725	-0.678711	-0.500000	-0.079590	0.559338	0.460872	-0.583698	0.366107
62416		9.720550	0.949701	-0.991999	0.010486	0.006618	0.000151	-0.672363	-0.498291	-0.075928	0.559295	0.460870	-0.583643	0.366263
62417		9.684397	0.993570	-1.033722	0.006717	0.008074	0.000809	-0.680176	-0.499756	-0.080322	0.559261	0.460872	-0.583565	0.366437
62418		9.681469	0.957409	-1.031244	0.009924	0.008429	-0.004579	-0.678223	-0.501221	-0.077637	0.559260	0.460881	-0.583482	0.366558
62419		9.690521	0.902757	-1.007636	0.001347	0.006837	-0.002459	-0.672607	-0.503418	-0.081055	0.559270	0.460860	-0.583431	0.366652
62420		9.700152	0.910581	-0.977710	-0.003013	0.005702	0.000716	-0.674805	-0.501953	-0.087402	0.559310	0.460790	-0.583416	0.366701
62421		9.709519	0.924507	-1.000310	-0.000285	0.003422	0.004254	-0.671875	-0.498047	-0.086670	0.559344	0.460656	-0.583477	0.366722
62422		9.703017	0.882741	-0.982801	-0.007906	0.003668	0.002582	-0.678955	-0.493408	-0.083252	0.559427	0.460475	-0.583567	0.366679
62423		9.690854	0.888495	-0.983120	-0.017044	-0.000895	0.004176	-0.683350	-0.493896	-0.085205	0.559490	0.460228	-0.583763	0.366581
62424		9.707984	0.930694	-1.027176	-0.015493	-0.003701	-0.000181	-0.672119	-0.495850	-0.073730	0.559552	0.460013	-0.583965	0.366434
62425		9.715017	0.921662	-0.986737	-0.010794	-0.000608	-0.008048	-0.666260	-0.501709	-0.078613	0.559572	0.460025	-0.583959	0.366400
62426		9.752940	0.835076	-0.961301	-0.020860	0.005860	-0.010727	-0.673340	-0.498047	-0.083008	0.559751	0.459957	-0.583922	0.366271
62427		9.730726	0.772675	-0.994864	-0.032280	0.009284	0.001169	-0.673828	-0.493408	-0.082031	0.559988	0.459629	-0.584049	0.366116
62428		9.707608	0.791792	-1.070916	-0.025470	0.000642	0.004341	-0.674316	-0.493652	-0.085938	0.560097	0.459355	-0.584238	0.365992
62429		9.708188	0.797378	-1.038630	-0.015740	-0.000661	0.001043	-0.674561	-0.500488	-0.082275	0.560181	0.459148	-0.584394	0.365875
62430		9.713828	0.807602	-1.046104	-0.007335	0.001735	-0.001399	-0.678711	-0.499268	-0.086182	0.560217	0.459078	-0.584420	0.365864
62431		9.719196	0.805561	-1.033104	-0.003342	0.002404	-0.004434	-0.673340	-0.499756	-0.083008	0.560273	0.459004	-0.584449	0.365827
62432		9.694653	0.819240	-1.033993	0.011440	0.006013	-0.005889	-0.677002	-0.501953	-0.084961	0.560258	0.459075	-0.584336	0.365940
62433		9.724366	0.849018	-1.023786	0.016780	0.003944	-0.002970	-0.674561	-0.496582	-0.080078	0.560195	0.459154	-0.584244	0.366085
62434		9.706248	0.890237	-1.021213	0.009136	0.003342	-0.002722	-0.675537	-0.502197	-0.087402	0.560138	0.459203	-0.584181	0.366211
62435		9.664822	0.930948	-1.024191	0.004556	0.002415	-0.003635	-0.683838	-0.502197	-0.083984	0.560158	0.459190	-0.584162	0.366228
62436		9.685004	0.953426	-1.042742	-0.000644	0.002831	-0.004322	-0.674561	-0.502441	-0.083496	0.560181	0.459151	-0.584163	0.366238
62437		9.710857	0.871948	-1.017772	-0.007559	0.009186	-0.007427	-0.670410	-0.504150	-0.088623	0.560310	0.459090	-0.584101	0.366218
62438		9.705812	0.832025	-1.023261	-0.000419	0.006181	-0.005562	-0.673096	-0.502441	-0.088379	0.560405	0.459056	-0.584047	0.366201
62439		9.709115	0.882267	-1.043313	-0.000502	-0.000046	-0.003221	-0.678711	-0.498291	-0.083984	0.560439	0.459019	-0.584065	0.366165
62440		9.714692	0.930008	-1.003659	0.003990	0.003121	-0.000770	-0.677734	-0.496582	-0.082031	0.560422	0.458985	-0.584065	0.366235
62441		9.700541	0.873628	-0.986073	-0.002202	0.008082	0.002303	-0.671631	-0.500732	-0.080078	0.560449	0.458874	-0.584069	0.366326
62442		9.701997	0.860093	-0.988289	-0.010235	0.002478	0.001205	-0.675293	-0.495361	-0.093262	0.560478	0.458798	-0.584090	0.366343
62443		9.703334	0.903895	-1.016768	-0.003262	-0.000951	0.001618	-0.672119	-0.503418	-0.094971	0.560528	0.458632	-0.584222	0.366266
62444		9.705928	0.914396	-0.976480	0.005504	0.004372	0.001305	-0.681641	-0.500732	-0.081055	0.560584	0.458539	-0.584235	0.366274
62445		9.723422	0.892658	-0.941461	-0.005201	0.007655	-0.002622	-0.677246	-0.493164	-0.085205	0.560636	0.458470	-0.584207	0.366325
62446		9.712625	0.849109	-0.991195	-0.018691	0.006733	-0.002060	-0.679932	-0.500000	-0.085449	0.560784	0.458250	-0.584296	0.366232
62447		9.716861	0.822856	-1.020824	-0.008487	0.003404	-0.001353	-0.669189	-0.489258	-0.093506	0.560846	0.458136	-0.584341	0.366207
62448		9.710996	0.800706	-0.991921	0.008603	0.003675	-0.002893	-0.680176	-0.500000	-0.092529	0.560880	0.458063	-0.584362	0.366213
62449		9.703548	0.836105	-0.964613	0.009023	0.002284	-0.001528	-0.681396	-0.498291	-0.080322	0.560884	0.458017	-0.584377	0.366241
62450		9.712013	0.869351	-0.952379	-0.002452	0.001430	0.003193	-0.675537	-0.499756	-0.092773	0.560836	0.457960	-0.584412	0.366332
62451		9.715221	0.868010	-0.999806	-0.002783	0.000584	0.000292	-0.677734	-0.501465	-0.076416	0.560894	0.457834	-0.584491	0.366273
62452		9.710940	0.844957	-0.994930	0.001404	0.004979	-0.000934	-0.669678	-0.499023	-0.092529	0.560847	0.457877	-0.584410	0.366421
62453		9.705619	0.847995	-1.006913	0.003234	-0.001125	-0.000838	-0.675537	-0.494629	-0.084473	0.560865	0.457827	-0.584450	0.366392
62454		9.699407	0.869846	-0.983989	0.005846	0.000319	-0.000317	-0.679443	-0.492188	-0.089111	0.560810	0.457825	-0.584455	0.366471
62455		9.707087	0.884736	-0.983808	0.007728	0.000817	0.000486	-0.680176	-0.491943	-0.090332	0.560770	0.457768	-0.584502	0.366529
62456		9.685111	0.870487	-0.993203	-0.000928	-0.002219	0.000741	-0.684814	-0.496338	-0.070557	0.560765	0.457648	-0.584621	0.366496
62457		9.712709	0.893969	-0.992344	-0.005992	-0.002231	0.003413	-0.673584	-0.489746	-0.081787	0.560634	0.457662	-0.584647	0.366638
62458		9.704772	0.865564	-0.972696	-0.006608	-0.002114	0.002509	-0.678711	-0.493652	-0.089844	0.560600	0.457574	-0.584738	0.366654
62459		9.702016	0.841332	-0.992711	-0.008241	-0.001977	0.003884	-0.678955	-0.497070	-0.083984	0.560626	0.457395	-0.584892	0.366593
62460		9.732793	0.863251	-1.039739	-0.010632	-0.004861	0.006320	-0.674561	-0.493896	-0.088379	0.560593	0.457263	-0.585038	0.366575
62461		9.718398	0.900932	-1.002284	-0.003907	-0.002909	0.001493	-0.669922	-0.490967	-0.087646	0.560591	0.457165	-0.585138	0.366538
62462		9.700137	0.885040	-0.975367	-0.010728	-0.000014	-0.004277	-0.676025	-0.496826	-0.081543	0.560673	0.457056	-0.585210	0.366434
62463		9.697066	0.812993	-1.021383	-0.021993	0.002752	-0.006464	-0.676270	-0.493652	-0.083984	0.560803	0.456937	-0.585255	0.366312
62464		9.694528	0.746233	-1.035415	-0.012643	0.001086	-0.000899	-0.681396	-0.498291	-0.082275	0.560855	0.456818	-0.585328	0.366265
62465		9.733137	0.777376	-1.029191	-0.007559	-0.000393	0.000971	-0.679932	-0.497803	-0.082764	0.560844	0.456750	-0.585381	0.366282
62466		9.743355	0.802955	-0.988748	-0.005316	0.001801	0.002766	-0.671387	-0.491943	-0.086426	0.560832	0.456673	-0.585420	0.366335
62467		9.727410	0.791108	-0.951912	-0.015576	0.010670	0.003969	-0.679688	-0.498291	-0.085693	0.560968	0.456440	-0.585472	0.366333
62468		9.692604	0.771765	-1.022655	-0.018776	0.012648	0.002906	-0.678955	-0.497314	-0.085938	0.561129	0.456201	-0.585507	0.366328
62469		9.690475	0.754201	-1.008321	0.000991	0.003927	-0.004557	-0.676758	-0.500732	-0.083740	0.561147	0.456195	-0.585470	0.366367
62470		9.697615	0.801374	-0.992164	0.020059	0.002184	-0.001166	-0.683350	-0.503906	-0.084961	0.561016	0.456347	-0.585342	0.366583
62471		9.724395	0.843752	-0.955340	0.013905	-0.000472	0.000799	-0.680908	-0.498047	-0.088379	0.560896	0.456439	-0.585284	0.366744
62472		9.701109	0.843246	-0.960922	0.002312	0.001451	-0.004291	-0.676025	-0.492920	-0.091309	0.560905	0.456427	-0.585278	0.366756
62473		9.710002	0.846067	-0.964138	0.009507	0.001371	-0.005119	-0.683105	-0.488281	-0.095215	0.560898	0.456436	-0.585261	0.366782
62474		9.702563	0.844195	-0.984907	0.002388	-0.003133	0.000624	-0.687500	-0.491211	-0.095703	0.560891	0.456301	-0.585404	0.366731
62475		9.705793	0.836204	-0.981337	-0.002440	-0.003469	-0.001336	-0.678467	-0.497314	-0.084473	0.560918	0.456149	-0.585561	0.366629
62476		9.706695	0.868019	-0.990564	0.003437	-0.002298	-0.003565	-0.676758	-0.490967	-0.088623	0.560866	0.456193	-0.585553	0.366667
62477		9.711880	0.866118	-0.978888	0.009933	-0.002469	-0.006022	-0.683105	-0.498779	-0.089111	0.560813	0.456246	-0.585547	0.366692
62478		9.706019	0.857528	-0.972176	0.000381	-0.005649	-0.005804	-0.674561	-0.493408	-0.079102	0.560794	0.456252	-0.585600	0.366628
62479		9.719430	0.839283	-0.975453	-0.010642	0.000196	-0.003550	-0.672607	-0.496826	-0.090820	0.560806	0.456227	-0.585612	0.366624
62480		9.721339	0.795335	-0.993232	-0.014724	0.007777	-0.002034	-0.680664	-0.496582	-0.083008	0.560974	0.456042	-0.585650	0.366535
62481		9.709730	0.770581	-1.008042	-0.009215	0.002458	-0.001066	-0.682373	-0.494385	-0.096680	0.561004	0.455964	-0.585679	0.366540
62482		9.738348	0.769132	-0.989495	0.005374	0.002355	-0.004316	-0.679199	-0.495605	-0.090820	0.561054	0.455884	-0.585716	0.366503
62483		9.724080	0.770950	-0.997530	-0.001180	0.005614	-0.002226	-0.678223	-0.498779	-0.084229	0.561120	0.455790	-0.585725	0.366506
62484		9.717875	0.743120	-0.999617	-0.008714	0.008519	-0.000899	-0.681152	-0.490479	-0.089111	0.561201	0.455693	-0.585701	0.366541
62485		9.696978	0.767690	-1.067576	-0.005626	0.005479	0.001353	-0.680908	-0.489990	-0.100098	0.561254	0.455540	-0.585761	0.366555
62486		9.738140	0.809239	-1.020275	0.013539	0.006305	-0.000977	-0.682129	-0.494141	-0.091309	0.561287	0.455440	-0.585779	0.366598
62487		9.735006	0.810296	-0.971722	0.020377	0.003309	-0.003928	-0.679932	-0.495850	-0.090332	0.561216	0.455512	-0.585705	0.366736
62488		9.666678	0.845198	-0.964475	0.015064	0.003883	-0.002297	-0.676025	-0.498291	-0.097168	0.561171	0.455549	-0.585646	0.366854
62489		9.645008	0.901833	-1.018613	0.005098	0.000869	-0.004579	-0.679199	-0.493896	-0.087891	0.561226	0.455499	-0.585666	0.366799
62490		9.687266	0.844518	-1.050382	0.007249	0.001897	-0.010317	-0.675293	-0.489014	-0.092041	0.561229	0.455567	-0.585599	0.366817
62491		9.728659	0.799710	-0.994763	0.025412	0.000297	-0.012617	-0.682617	-0.495117	-0.088623	0.561152	0.455747	-0.585477	0.366906
62492		9.743070	0.863787	-0.979648	0.011243	-0.002222	-0.009150	-0.676758	-0.491699	-0.082520	0.561101	0.455838	-0.585440	0.366929
62493		9.725403	0.918065	-0.914148	0.000587	0.001639	-0.009314	-0.678223	-0.493408	-0.090820	0.561099	0.455898	-0.585381	0.366952
62494		9.683771	0.852616	-0.919050	-0.001417	0.002526	-0.006669	-0.676758	-0.500488	-0.088867	0.561162	0.455845	-0.585392	0.366904
62495		9.686561	0.790518	-0.973046	-0.007623	0.000503	-0.007348	-0.675049	-0.492920	-0.090820	0.561248	0.455798	-0.585408	0.366805
62496		9.688265	0.804797	-1.017363	-0.008374	-0.003744	-0.007422	-0.672363	-0.503418	-0.086426	0.561308	0.455739	-0.585483	0.366667
62497		9.732805	0.865868	-1.008647	0.017315	-0.004555	-0.007640	-0.678223	-0.496826	-0.086670	0.561208	0.455929	-0.585386	0.366738
62498		9.717457	0.880469	-0.930846	0.014869	0.000439	-0.009766	-0.677490	-0.504883	-0.089111	0.561154	0.456066	-0.585286	0.366811
62499		9.705267	0.845140	-0.927197	-0.008352	-0.002633	-0.015000	-0.680176	-0.498291	-0.091797	0.561265	0.456086	-0.585280	0.366625
62500		9.694930	0.822533	-0.967623	-0.016404	-0.002125	-0.010452	-0.675781	-0.495361	-0.088135	0.561408	0.455974	-0.585370	0.366403
62501		9.732558	0.787382	-1.000428	-0.013129	-0.001433	-0.006391	-0.679443	-0.492676	-0.084961	0.561492	0.455887	-0.585438	0.366273
62502		9.726785	0.779187	-0.992896	-0.004247	-0.002272	-0.005952	-0.677734	-0.498535	-0.088379	0.561485	0.455881	-0.585468	0.366243
62503		9.716964	0.810519	-0.974679	0.002132	-0.002270	-0.006088	-0.681885	-0.492676	-0.088867	0.561479	0.455905	-0.585471	0.366219
62504		9.698012	0.847045	-1.005375	-0.000759	-0.003980	-0.005745	-0.674561	-0.493164	-0.086914	0.561463	0.455890	-0.585527	0.366171
62505		9.716803	0.826184	-0.996547	-0.006239	-0.003837	-0.005569	-0.680420	-0.494873	-0.082275	0.561474	0.455867	-0.585579	0.366099
62506		9.713941	0.804152	-1.016994	-0.000645	-0.002916	-0.006927	-0.683105	-0.496338	-0.090820	0.561433	0.455920	-0.585574	0.366105
62507		9.694473	0.815300	-1.007227	0.006634	-0.002767	-0.007025	-0.679199	-0.498779	-0.086670	0.561409	0.455948	-0.585587	0.366087
62508		9.704733	0.868241	-1.008425	0.006885	-0.003357	-0.005982	-0.676758	-0.500977	-0.087158	0.561355	0.456020	-0.585571	0.366106
62509		9.730215	0.881371	-0.963553	0.003591	-0.000375	-0.006645	-0.681885	-0.494385	-0.090332	0.561356	0.456063	-0.585538	0.366103
62510		9.698863	0.861396	-1.000662	-0.009856	0.004045	-0.006513	-0.672852	-0.493164	-0.091553	0.561469	0.455941	-0.585582	0.366011
62511		9.698869	0.813466	-1.026657	-0.017653	0.001773	-0.008850	-0.680908	-0.495605	-0.089844	0.561635	0.455799	-0.585653	0.365821
62512		9.701200	0.776841	-1.013307	-0.004432	0.000022	-0.010801	-0.673828	-0.492188	-0.090820	0.561704	0.455777	-0.585665	0.365722
62513		9.710613	0.799415	-1.004843	0.006231	0.001931	-0.008028	-0.678711	-0.500488	-0.087402	0.561720	0.455802	-0.585628	0.365726
62514		9.731036	0.828285	-0.991653	0.002597	0.001720	-0.005145	-0.681152	-0.495361	-0.092773	0.561730	0.455813	-0.585600	0.365742
62515		9.704950	0.854943	-0.989815	0.004006	-0.000539	-0.004152	-0.679932	-0.491943	-0.090332	0.561734	0.455779	-0.585634	0.365723
62516		9.682236	0.873804	-0.983278	-0.008786	0.003386	-0.006152	-0.673828	-0.493896	-0.093750	0.561827	0.455670	-0.585677	0.365647
62517		9.691030	0.815093	-0.992363	-0.013295	0.004150	-0.010877	-0.683594	-0.503662	-0.091064	0.562004	0.455548	-0.585710	0.365473
62518		9.719900	0.778591	-1.020690	0.003317	0.002940	-0.011087	-0.675537	-0.498779	-0.095703	0.562071	0.455566	-0.585663	0.365425
62519		9.731274	0.806369	-1.004177	0.012256	0.000249	-0.009152	-0.683105	-0.491211	-0.086426	0.562086	0.455615	-0.585622	0.365405
62520		9.732680	0.850616	-0.949163	0.003231	-0.000843	-0.006500	-0.678223	-0.504883	-0.087402	0.562044	0.455647	-0.585619	0.365436
62521		9.718669	0.858649	-0.925858	-0.003678	0.003998	-0.005056	-0.678223	-0.492920	-0.089111	0.562115	0.455606	-0.585598	0.365410
62522		9.703636	0.849646	-0.997170	-0.001948	0.007380	-0.005347	-0.681152	-0.495117	-0.087891	0.562185	0.455542	-0.585569	0.365428
62523		9.689303	0.852538	-1.004786	0.003230	0.003953	-0.010676	-0.677490	-0.499268	-0.090820	0.562217	0.455578	-0.585506	0.365435
62524		9.709073	0.863344	-1.003041	0.016006	0.002487	-0.006413	-0.681641	-0.500488	-0.091553	0.562180	0.455663	-0.585423	0.365521
62525		9.711308	0.875498	-0.963036	0.011605	0.000741	-0.007010	-0.673584	-0.489502	-0.094482	0.562161	0.455715	-0.585381	0.365551
62526		9.715965	0.856133	-0.961846	-0.003432	0.003673	-0.009677	-0.677490	-0.495361	-0.095703	0.562263	0.455650	-0.585388	0.365465
62527		9.713294	0.834726	-0.980872	0.004723	0.001906	-0.008957	-0.676514	-0.496094	-0.093994	0.562320	0.455631	-0.585381	0.365411
62528		9.711410	0.843797	-1.009009	0.012836	0.000513	-0.005203	-0.683350	-0.497559	-0.084717	0.562295	0.455665	-0.585355	0.365449
62529		9.721987	0.839234	-0.984580	0.005375	-0.002151	-0.005780	-0.681641	-0.500732	-0.088867	0.562230	0.455732	-0.585337	0.365496
62530		9.705064	0.873709	-0.954689	0.003509	0.000644	-0.006227	-0.678223	-0.503174	-0.089355	0.562237	0.455742	-0.585324	0.365493
62531		9.708568	0.879636	-0.970275	0.003579	0.002081	-0.004375	-0.670410	-0.490967	-0.092041	0.562260	0.455733	-0.585306	0.365498
62532		9.703998	0.851807	-0.997824	-0.005064	-0.000995	-0.004129	-0.679932	-0.499756	-0.090576	0.562301	0.455666	-0.585359	0.365432
62533		9.700454	0.861143	-1.002610	-0.004063	-0.003085	-0.005624	-0.674316	-0.499756	-0.085449	0.562332	0.455624	-0.585418	0.365343
62534		9.716385	0.853854	-0.965764	0.004376	-0.000059	-0.004284	-0.680908	-0.491943	-0.096436	0.562303	0.455671	-0.585383	0.365386
62535		9.714861	0.867968	-0.962384	0.005082	-0.001187	-0.003787	-0.683350	-0.495850	-0.080322	0.562302	0.455619	-0.585440	0.365360
62536		9.710883	0.858087	-0.978361	-0.006723	0.001582	-0.000504	-0.674805	-0.499756	-0.078613	0.562275	0.455583	-0.585455	0.365421
62537		9.705297	0.848912	-0.970219	-0.010182	-0.000394	-0.004096	-0.671387	-0.494385	-0.090088	0.562280	0.455587	-0.585449	0.365418
62538		9.701449	0.852461	-1.006480	-0.000651	-0.000469	-0.004656	-0.671143	-0.499512	-0.089111	0.562298	0.455569	-0.585463	0.365392
62539		9.697032	0.817701	-0.982087	-0.001721	0.000184	-0.005013	-0.677002	-0.491943	-0.094971	0.562334	0.455555	-0.585462	0.365355
62540		9.720173	0.819714	-0.976719	-0.000228	-0.001860	-0.003298	-0.677979	-0.501709	-0.087891	0.562351	0.455485	-0.585533	0.365301
62541		9.750874	0.836296	-0.971182	0.002615	0.000231	-0.000606	-0.678223	-0.503174	-0.094727	0.562334	0.455467	-0.585543	0.365335
62542		9.708833	0.863500	-0.954466	0.003546	0.001231	-0.002470	-0.673340	-0.493164	-0.082520	0.562375	0.455407	-0.585570	0.365304
62543		9.691322	0.885639	-0.987667	-0.002311	0.002108	-0.001031	-0.684326	-0.491699	-0.088623	0.562348	0.455402	-0.585553	0.365379
62544		9.708048	0.853567	-1.017845	-0.009623	-0.003171	-0.006173	-0.677002	-0.494385	-0.087158	0.562372	0.455336	-0.585637	0.365289
62545		9.701654	0.813944	-1.001465	-0.004315	0.002030	-0.005180	-0.676025	-0.495605	-0.090088	0.562405	0.455303	-0.585639	0.365277
62546		9.727914	0.802231	-1.022964	0.005626	0.001791	-0.003255	-0.675293	-0.490723	-0.088135	0.562393	0.455304	-0.585621	0.365321
62547		9.724829	0.816551	-0.995288	-0.003924	-0.000214	-0.001919	-0.668945	-0.495605	-0.088623	0.562391	0.455254	-0.585662	0.365322
62548		9.746949	0.836894	-0.954191	-0.002411	-0.000181	-0.000979	-0.677979	-0.493408	-0.092773	0.562398	0.455216	-0.585685	0.365322
62549		9.689538	0.828091	-0.969773	-0.000786	0.000916	-0.001218	-0.675781	-0.497803	-0.093506	0.562417	0.455136	-0.585736	0.365311
62550		9.712097	0.818252	-1.027570	0.002304	0.002687	-0.003144	-0.677734	-0.501709	-0.093506	0.562458	0.455083	-0.585743	0.365302
62551		9.719940	0.839501	-0.995157	0.006129	0.000613	-0.001173	-0.675781	-0.495361	-0.087402	0.562461	0.455050	-0.585759	0.365313
62552		9.706480	0.864597	-0.960747	0.011783	-0.000313	-0.001027	-0.686035	-0.489990	-0.086670	0.562370	0.455112	-0.585724	0.365431
62553		9.706422	0.865004	-0.960967	0.001762	-0.000288	-0.003675	-0.679199	-0.495850	-0.086426	0.562320	0.455111	-0.585741	0.365482
62554		9.709210	0.839665	-0.968157	-0.000174	0.001069	-0.005973	-0.678223	-0.499023	-0.096680	0.562324	0.455121	-0.585724	0.365492
62555		9.708571	0.822792	-0.979672	0.005149	0.000521	-0.007590	-0.669189	-0.493652	-0.091309	0.562375	0.455100	-0.585731	0.365429
62556		9.706478	0.818833	-0.987976	0.007872	-0.001751	-0.004072	-0.682129	-0.504150	-0.085449	0.562338	0.455142	-0.585717	0.365454
62557		9.717284	0.826407	-0.983934	0.006929	-0.001526	-0.001080	-0.685791	-0.498779	-0.092041	0.562273	0.455179	-0.585708	0.365522
62558		9.701815	0.846281	-0.957970	0.004849	-0.002085	-0.000296	-0.677246	-0.498291	-0.090576	0.562237	0.455138	-0.585767	0.365536
62559		9.721770	0.868455	-0.977288	0.000772	0.000576	-0.003309	-0.669434	-0.498779	-0.089111	0.562256	0.455104	-0.585783	0.365523
62560		9.710321	0.843779	-0.993110	-0.000643	0.002830	-0.004301	-0.684082	-0.489502	-0.085938	0.562304	0.455082	-0.585760	0.365512
62561		9.697397	0.832516	-1.005473	-0.001012	-0.000946	-0.004514	-0.677246	-0.504639	-0.092285	0.562266	0.455080	-0.585782	0.365539
62562		9.734141	0.802333	-0.982863	0.003633	-0.003081	-0.003225	-0.682617	-0.492676	-0.087158	0.562269	0.455069	-0.585815	0.365495
