// Start Time: Unknown
// Update Rate: 40.0Hz
// Filter Profile: human (46.1)
// Firmware Version: 4.6.0
PacketCounter	SampleTimeFine	Acc_X	Acc_Y	Acc_Z	Gyr_X	Gyr_Y	Gyr_Z	Mag_X	Mag_Y	Mag_Z	Quat_q0	Quat_q1	Quat_q2	Quat_q3
61647		9.492957	-1.557654	-1.711392	0.006378	0.002776	0.011594	-0.584961	0.495117	0.334229	0.366880	-0.691695	-0.330389	-0.527068
61648		9.518277	-1.551165	-1.750922	0.011909	0.002168	0.009948	-0.584717	0.492676	0.327881	0.367057	-0.691667	-0.330372	-0.526992
61649		9.515230	-1.538823	-1.734036	0.011510	0.003275	0.006567	-0.583740	0.497803	0.318604	0.367216	-0.691615	-0.330377	-0.526946
61650		9.522978	-1.504557	-1.717453	0.013464	-0.000523	0.005063	-0.591064	0.495117	0.323486	0.367363	-0.691578	-0.330426	-0.526862
61651		9.545357	-1.500178	-1.713208	0.016328	-0.002766	0.006876	-0.587646	0.495361	0.315430	0.367533	-0.691548	-0.330490	-0.526741
61652		9.542585	-1.456186	-1.678101	0.002406	0.001030	0.005972	-0.582520	0.490234	0.318115	0.367588	-0.691552	-0.330458	-0.526718
61653		9.536449	-1.441245	-1.694713	-0.003454	-0.002327	0.006017	-0.591309	0.494385	0.319580	0.367572	-0.691597	-0.330410	-0.526700
61654		9.526575	-1.482445	-1.720368	-0.006341	-0.004496	0.006814	-0.582520	0.492676	0.322021	0.367515	-0.691666	-0.330357	-0.526683
61655		9.507781	-1.501547	-1.732775	-0.016126	-0.004333	0.010095	-0.580078	0.496826	0.321533	0.367385	-0.691789	-0.330220	-0.526698
61656		9.521849	-1.542170	-1.731633	-0.015593	-0.003581	0.012209	-0.574951	0.502441	0.321289	0.367268	-0.691913	-0.330072	-0.526709
61657		9.522473	-1.571314	-1.743459	-0.014625	-0.004194	0.007988	-0.582275	0.502930	0.310791	0.367127	-0.692020	-0.329972	-0.526730
61658		9.496486	-1.564075	-1.733348	-0.012721	-0.004834	0.006884	-0.581543	0.491699	0.316406	0.366994	-0.692119	-0.329901	-0.526737
61659		9.486351	-1.614181	-1.745263	-0.002068	-0.005953	0.007349	-0.571533	0.491943	0.307129	0.366949	-0.692186	-0.329894	-0.526685
61660		9.506960	-1.613356	-1.751113	0.004980	-0.003014	0.008128	-0.576172	0.499268	0.316162	0.367005	-0.692211	-0.329904	-0.526607
61661		9.501078	-1.567837	-1.748788	0.004669	-0.002895	0.006297	-0.583740	0.497314	0.311768	0.367039	-0.692238	-0.329921	-0.526537
61662		9.502445	-1.547801	-1.769204	0.005948	-0.003630	0.003909	-0.576904	0.500488	0.321533	0.367063	-0.692251	-0.329978	-0.526467
61663		9.515984	-1.537797	-1.723378	0.004944	-0.004529	0.001423	-0.578125	0.504395	0.309814	0.367047	-0.692283	-0.330045	-0.526394
61664		9.527678	-1.552748	-1.720397	0.000003	-0.005335	-0.002350	-0.580811	0.502441	0.319824	0.366979	-0.692308	-0.330126	-0.526357
61665		9.510833	-1.557361	-1.738001	0.000068	-0.004738	-0.000603	-0.575928	0.494873	0.321045	0.366903	-0.692346	-0.330185	-0.526324
61666		9.518988	-1.601808	-1.786527	0.001253	-0.005148	0.000219	-0.581787	0.493652	0.313965	0.366842	-0.692390	-0.330241	-0.526273
61667		9.485634	-1.615918	-1.743806	-0.002996	-0.004936	-0.002900	-0.580078	0.490967	0.317627	0.366734	-0.692427	-0.330310	-0.526257
61668		9.503939	-1.588984	-1.748157	-0.002260	-0.001743	-0.000298	-0.584961	0.505371	0.316162	0.366661	-0.692464	-0.330332	-0.526245
61669		9.503824	-1.597707	-1.734258	-0.003290	-0.001393	-0.000204	-0.578613	0.491699	0.318604	0.366599	-0.692500	-0.330336	-0.526238
61670		9.502054	-1.618945	-1.715054	-0.007139	-0.002282	0.000056	-0.583252	0.499268	0.323242	0.366495	-0.692570	-0.330312	-0.526235
61671		9.497305	-1.620623	-1.756889	0.000517	-0.002677	-0.002412	-0.574707	0.495605	0.320557	0.366433	-0.692608	-0.330343	-0.526207
61672		9.501614	-1.648643	-1.735621	0.007638	-0.003819	-0.006996	-0.578857	0.502197	0.326660	0.366428	-0.692607	-0.330454	-0.526143
61673		9.500616	-1.619863	-1.725763	0.010548	-0.003231	-0.007994	-0.576172	0.494385	0.322266	0.366431	-0.692611	-0.330565	-0.526066
61674		9.504039	-1.602021	-1.722654	0.020823	-0.004823	-0.011117	-0.582275	0.494629	0.313721	0.366509	-0.692543	-0.330796	-0.525957
61675		9.518278	-1.562405	-1.719754	0.025748	-0.007103	-0.014256	-0.582764	0.501953	0.317383	0.366634	-0.692401	-0.331121	-0.525851
61676		9.518613	-1.542120	-1.749374	0.027270	-0.008541	-0.016567	-0.575928	0.503418	0.328613	0.366752	-0.692276	-0.331456	-0.525722
61677		9.525289	-1.515306	-1.729240	0.013618	-0.007036	-0.017570	-0.574707	0.488037	0.317627	0.366703	-0.692274	-0.331669	-0.525625
61678		9.498128	-1.538385	-1.746826	0.001935	-0.006238	-0.013169	-0.587158	0.499023	0.312500	0.366583	-0.692257	-0.331835	-0.525626
61679		9.503903	-1.582887	-1.750990	0.000278	-0.006311	-0.011980	-0.585449	0.501221	0.314697	0.366513	-0.692204	-0.331984	-0.525650
61680		9.517745	-1.582118	-1.753569	-0.007268	-0.002175	-0.012947	-0.584473	0.508057	0.315430	0.366394	-0.692176	-0.332054	-0.525727
61681		9.472701	-1.600460	-1.748516	-0.013439	-0.005742	-0.012346	-0.582031	0.504150	0.315674	0.366250	-0.692218	-0.332067	-0.525763
61682		9.490553	-1.668241	-1.734334	-0.009617	-0.003263	-0.012412	-0.580078	0.497314	0.318848	0.366139	-0.692230	-0.332097	-0.525805
61683		9.504495	-1.667445	-1.736557	0.001077	-0.001854	-0.012396	-0.573975	0.497803	0.314941	0.366077	-0.692206	-0.332194	-0.525818
61684		9.487323	-1.593466	-1.752582	0.004858	-0.001878	-0.012030	-0.584473	0.497070	0.315430	0.366104	-0.692168	-0.332291	-0.525788
61685		9.525872	-1.533785	-1.751070	0.004635	-0.002411	-0.014696	-0.580811	0.493652	0.322266	0.366082	-0.692082	-0.332444	-0.525820
61686		9.550702	-1.528797	-1.723884	-0.009070	0.002226	-0.015290	-0.587402	0.507080	0.319092	0.365877	-0.692090	-0.332484	-0.525928
61687		9.503103	-1.496615	-1.759230	0.000267	-0.000303	-0.014401	-0.582031	0.494141	0.311523	0.365874	-0.692033	-0.332568	-0.525951
61688		9.488161	-1.534535	-1.771930	0.001349	-0.003804	-0.014898	-0.578125	0.499268	0.316650	0.365826	-0.691941	-0.332721	-0.526009
61689		9.496060	-1.535003	-1.762067	-0.006369	-0.004362	-0.011788	-0.580811	0.496582	0.319336	0.365741	-0.691970	-0.332763	-0.526004
61690		9.509982	-1.525188	-1.778538	-0.012228	0.002014	-0.011995	-0.581787	0.496826	0.319092	0.365575	-0.691989	-0.332756	-0.526099
61691		9.510789	-1.508211	-1.731121	-0.016648	-0.002134	-0.013419	-0.579346	0.495117	0.319580	0.365348	-0.692043	-0.332754	-0.526187
61692		9.516992	-1.560736	-1.720600	-0.003777	-0.003635	-0.014628	-0.577637	0.486816	0.320068	0.365206	-0.692057	-0.332850	-0.526206
61693		9.511078	-1.562854	-1.771707	0.002561	-0.005437	-0.016668	-0.584717	0.496582	0.322754	0.365010	-0.692050	-0.333033	-0.526235
61694		9.496510	-1.578097	-1.751365	0.001345	-0.003450	-0.017289	-0.581299	0.495850	0.316406	0.364875	-0.692030	-0.333188	-0.526257
61695		9.503057	-1.581345	-1.750197	0.003809	-0.004577	-0.018864	-0.586914	0.499268	0.321045	0.364825	-0.691957	-0.333375	-0.526270
61696		9.532483	-1.546966	-1.725757	0.002595	-0.002925	-0.017103	-0.583496	0.497070	0.319824	0.364759	-0.691904	-0.333530	-0.526288
61697		9.516559	-1.526257	-1.709014	0.004630	-0.002371	-0.014713	-0.582275	0.496826	0.326904	0.364730	-0.691855	-0.333668	-0.526284
61698		9.486688	-1.516814	-1.739011	0.009186	-0.005763	-0.016681	-0.591797	0.505371	0.317383	0.364634	-0.691883	-0.333852	-0.526196
61699		9.479272	-1.540730	-1.770157	0.006500	-0.005498	-0.015394	-0.576416	0.490723	0.318359	0.364712	-0.691772	-0.334019	-0.526182
61700		9.536951	-1.539112	-1.759108	0.000630	-0.003550	-0.012984	-0.580811	0.491211	0.324707	0.364619	-0.691784	-0.334115	-0.526170
61701		9.514693	-1.542410	-1.763925	-0.005373	-0.002785	-0.014076	-0.588379	0.493164	0.321533	0.364390	-0.691854	-0.334189	-0.526190
61702		9.506164	-1.556140	-1.755902	0.000492	-0.004389	-0.018873	-0.582764	0.491943	0.314453	0.364222	-0.691795	-0.334382	-0.526260
61703		9.494765	-1.554739	-1.732308	0.005335	-0.006318	-0.018808	-0.590088	0.496826	0.321533	0.364187	-0.691688	-0.334597	-0.526289
61704		9.511734	-1.576821	-1.736292	0.010684	-0.005927	-0.016421	-0.575684	0.494873	0.324463	0.364171	-0.691600	-0.334827	-0.526269
61705		9.508921	-1.532184	-1.764466	0.011750	-0.004101	-0.014567	-0.576416	0.485596	0.320312	0.364164	-0.691656	-0.334958	-0.526117
61706		9.539381	-1.508008	-1.779074	0.001025	-0.003639	-0.016759	-0.583496	0.503174	0.316650	0.363977	-0.691677	-0.335094	-0.526133
61707		9.484480	-1.494434	-1.720675	-0.001569	-0.004031	-0.016303	-0.583496	0.494141	0.315918	0.364048	-0.691641	-0.335157	-0.526090
61708		9.510357	-1.529803	-1.752673	0.009023	-0.005661	-0.017620	-0.584229	0.489014	0.323486	0.364080	-0.691535	-0.335362	-0.526077
61709		9.527410	-1.551928	-1.756339	0.010022	-0.004423	-0.017518	-0.582275	0.499756	0.322266	0.363949	-0.691499	-0.335591	-0.526070
61710		9.508113	-1.530209	-1.771788	0.015840	-0.003870	-0.014765	-0.583984	0.493652	0.320557	0.364072	-0.691468	-0.335755	-0.525920
61711		9.514541	-1.494403	-1.765464	0.012301	-0.004234	-0.017431	-0.580078	0.491455	0.322998	0.364073	-0.691397	-0.335970	-0.525875
61712		9.516333	-1.469105	-1.785967	0.006296	-0.003483	-0.018520	-0.580322	0.484375	0.319824	0.363965	-0.691409	-0.336136	-0.525829
61713		9.521603	-1.494006	-1.764648	0.004802	-0.003631	-0.016407	-0.578857	0.487305	0.325439	0.363798	-0.691380	-0.336319	-0.525865
61714		9.510535	-1.541873	-1.730685	0.007855	-0.002736	-0.018886	-0.585938	0.493652	0.314697	0.363613	-0.691420	-0.336498	-0.525827
61715		9.501757	-1.529142	-1.765324	0.014983	-0.004462	-0.018736	-0.579102	0.489990	0.319824	0.363728	-0.691237	-0.336756	-0.525822
61716		9.511123	-1.539066	-1.793846	0.011803	-0.003127	-0.015225	-0.577148	0.493164	0.320557	0.363729	-0.691209	-0.336918	-0.525754
61717		9.511580	-1.504755	-1.774980	0.004832	-0.001459	-0.014461	-0.585449	0.494141	0.319580	0.363725	-0.691245	-0.336982	-0.525670
61718		9.530319	-1.492248	-1.749994	-0.002515	-0.000598	-0.014898	-0.577148	0.495605	0.328613	0.363667	-0.691212	-0.337055	-0.525705
61719		9.516064	-1.508015	-1.728661	-0.000328	0.000241	-0.013976	-0.589111	0.506104	0.325928	0.363548	-0.691378	-0.337044	-0.525576
61720		9.493893	-1.533940	-1.765871	0.006045	0.000651	-0.014077	-0.584961	0.491943	0.320557	0.363651	-0.691381	-0.337088	-0.525474
61721		9.512503	-1.512496	-1.755148	0.003357	-0.002502	-0.017324	-0.579346	0.488525	0.319092	0.363580	-0.691333	-0.337237	-0.525490
61722		9.535413	-1.493071	-1.766178	0.001864	-0.002655	-0.015209	-0.580078	0.490967	0.306396	0.363500	-0.691330	-0.337339	-0.525484
61723		9.528640	-1.503501	-1.748548	-0.003803	0.000457	-0.014891	-0.589355	0.487793	0.321045	0.363605	-0.691165	-0.337375	-0.525605
61724		9.530966	-1.504619	-1.725431	-0.005118	-0.000655	-0.016833	-0.579346	0.493164	0.320557	0.363397	-0.691105	-0.337511	-0.525740
61725		9.487640	-1.470588	-1.720005	0.002230	-0.001502	-0.016398	-0.588379	0.494385	0.319092	0.363377	-0.691126	-0.337581	-0.525682
61726		9.518291	-1.485992	-1.739056	-0.002575	-0.001512	-0.014273	-0.590088	0.489990	0.318115	0.363346	-0.691070	-0.337659	-0.525727
61727		9.514148	-1.493465	-1.766215	-0.007550	-0.001119	-0.015456	-0.579834	0.496338	0.319824	0.363210	-0.690991	-0.337751	-0.525865
61728		9.528414	-1.500344	-1.754036	-0.004106	-0.003485	-0.016502	-0.587402	0.489014	0.327393	0.363196	-0.691047	-0.337770	-0.525789
61729		9.521457	-1.501519	-1.751311	-0.001301	-0.002208	-0.016680	-0.591064	0.494385	0.322510	0.362978	-0.691084	-0.337910	-0.525801
61730		9.512950	-1.506508	-1.757465	-0.002605	-0.003662	-0.016234	-0.582520	0.490723	0.313965	0.362890	-0.691052	-0.338027	-0.525828
61731		9.499995	-1.477482	-1.723330	0.000056	-0.003209	-0.022313	-0.580566	0.482422	0.327393	0.362873	-0.690950	-0.338162	-0.525888
61732		9.504899	-1.497316	-1.778986	0.010205	-0.005615	-0.019234	-0.586914	0.487793	0.323975	0.362653	-0.691005	-0.338392	-0.525819
61733		9.517614	-1.508121	-1.775746	0.012551	-0.004833	-0.017392	-0.585938	0.494873	0.322266	0.362591	-0.690955	-0.338628	-0.525776
61734		9.513485	-1.493708	-1.769229	0.000853	-0.000128	-0.013173	-0.592773	0.496582	0.320801	0.362609	-0.690950	-0.338672	-0.525741
61735		9.522902	-1.481767	-1.763962	0.006177	-0.001865	-0.012744	-0.581543	0.493408	0.312256	0.362697	-0.690854	-0.338792	-0.525730
61736		9.514701	-1.506079	-1.740871	0.011044	-0.004100	-0.010294	-0.595215	0.491211	0.317627	0.362921	-0.690763	-0.338860	-0.525651
61737		9.524801	-1.442654	-1.736310	0.024107	-0.000513	-0.011493	-0.587158	0.495361	0.325684	0.363124	-0.690514	-0.339127	-0.525666
61738		9.492833	-1.430380	-1.788782	0.017294	-0.005173	-0.011523	-0.580322	0.499268	0.322754	0.363234	-0.690510	-0.339312	-0.525476
61739		9.518984	-1.422291	-1.753127	0.011392	-0.002604	-0.013878	-0.582520	0.489502	0.327881	0.363396	-0.690543	-0.339393	-0.525268
61740		9.547239	-1.450140	-1.713101	-0.001471	-0.001598	-0.010237	-0.596191	0.488525	0.320557	0.363266	-0.690657	-0.339448	-0.525173
61741		9.529772	-1.475181	-1.709787	0.006521	-0.002670	-0.006126	-0.587646	0.485596	0.322998	0.363260	-0.690546	-0.339593	-0.525228
61742		9.506805	-1.486005	-1.776356	0.013871	-0.003490	-0.005698	-0.587402	0.493408	0.321777	0.363272	-0.690513	-0.339752	-0.525162
61743		9.485545	-1.457288	-1.752879	0.006884	-0.004367	-0.004486	-0.588379	0.492920	0.324707	0.363354	-0.690527	-0.339805	-0.525051
61744		9.538793	-1.486368	-1.739476	0.002671	-0.002730	-0.000863	-0.584961	0.495117	0.316162	0.363390	-0.690584	-0.339815	-0.524945
61745		9.526988	-1.488984	-1.715143	0.004468	-0.002344	-0.003538	-0.583984	0.497803	0.322021	0.363550	-0.690566	-0.339786	-0.524876
61746		9.513103	-1.477909	-1.728532	0.013736	-0.004109	-0.001837	-0.583740	0.490479	0.322998	0.363774	-0.690597	-0.339818	-0.524660
61747		9.514290	-1.465195	-1.734689	0.015574	-0.005295	-0.004712	-0.587158	0.486328	0.320557	0.363873	-0.690610	-0.339941	-0.524494
61748		9.506270	-1.452286	-1.760868	0.012356	-0.005807	-0.005535	-0.579346	0.494141	0.325195	0.363889	-0.690574	-0.340088	-0.524435
61749		9.557480	-1.467038	-1.785489	0.004442	-0.004502	-0.005493	-0.591309	0.486572	0.327637	0.363928	-0.690698	-0.340100	-0.524238
61750		9.511166	-1.470001	-1.755005	-0.000159	-0.003329	-0.005465	-0.583008	0.488770	0.315918	0.363780	-0.690726	-0.340222	-0.524224
61751		9.508713	-1.493455	-1.744878	-0.004221	-0.004806	-0.007858	-0.580078	0.488770	0.323242	0.363732	-0.690744	-0.340208	-0.524243
61752		9.495537	-1.498162	-1.730032	0.000954	-0.003965	-0.008794	-0.589111	0.494629	0.314697	0.363665	-0.690826	-0.340242	-0.524159
61753		9.506170	-1.505562	-1.750428	0.012557	-0.007980	-0.012196	-0.583252	0.491211	0.320557	0.363804	-0.690710	-0.340394	-0.524116
61754		9.509815	-1.456241	-1.783030	0.005968	-0.006449	-0.015198	-0.579346	0.488037	0.323975	0.363781	-0.690707	-0.340527	-0.524050
61755		9.525325	-1.426762	-1.744405	-0.014122	-0.010471	-0.027315	-0.586670	0.490479	0.322754	0.363421	-0.690833	-0.340653	-0.524053
61756		9.684084	-1.256913	-1.741606	-0.018327	0.027695	-0.051588	-0.584473	0.484131	0.327637	0.363070	-0.690546	-0.340817	-0.524566
61757		9.654641	-1.043374	-1.854530	-0.020220	0.128488	-0.090974	-0.584961	0.495850	0.322998	0.362756	-0.689501	-0.340881	-0.526114
61758		9.693009	-1.296694	-1.965594	-0.081814	0.154847	-0.098639	-0.588867	0.485840	0.321533	0.362176	-0.688536	-0.340388	-0.528094
61759		9.168658	-0.912314	-2.098123	-0.163733	0.172136	-0.154791	-0.594482	0.489014	0.317871	0.360482	-0.687548	-0.339818	-0.530900
61760		9.493194	-1.705934	-1.713626	-0.290634	0.052411	-0.129524	-0.590820	0.476807	0.312500	0.357455	-0.687989	-0.338690	-0.533090
61761		9.503281	-2.122828	-1.363674	-0.091628	0.044150	-0.124943	-0.602539	0.479004	0.326416	0.356104	-0.687572	-0.338849	-0.534431
61762		9.483884	-1.958860	-1.449780	0.058875	0.031496	-0.110469	-0.607910	0.465820	0.323242	0.356034	-0.686668	-0.340051	-0.534877
61763		9.485694	-1.667480	-1.541170	0.077381	0.026957	-0.063720	-0.601318	0.470703	0.321777	0.356278	-0.685831	-0.341076	-0.535135
61764		9.513033	-1.431431	-1.501072	0.085947	0.035108	-0.022402	-0.605713	0.467529	0.319092	0.356987	-0.685157	-0.341673	-0.535144
61765		9.606030	-1.514118	-1.449428	0.126841	0.018054	0.008920	-0.589844	0.474609	0.319824	0.358146	-0.684494	-0.342391	-0.534759
61766		9.600618	-1.451296	-1.591028	0.162318	-0.014611	0.025478	-0.600586	0.476562	0.312988	0.359647	-0.684141	-0.343197	-0.533686
61767		9.532254	-1.301115	-1.696641	0.157306	-0.052573	0.040310	-0.588623	0.475586	0.313721	0.361081	-0.683972	-0.344078	-0.532366
61768		9.511288	-1.064110	-1.565640	0.128452	-0.064091	0.045470	-0.602051	0.490479	0.311768	0.362205	-0.684142	-0.344707	-0.530975
61769		9.638834	-0.919278	-1.518810	0.104174	-0.079162	0.044600	-0.591797	0.476074	0.306885	0.363213	-0.684394	-0.345287	-0.529583
61770		9.658726	-1.014554	-1.611039	0.083675	-0.076907	0.037753	-0.595947	0.483154	0.317627	0.363856	-0.684697	-0.345783	-0.528426
61771		9.506521	-1.103881	-1.677113	0.075530	-0.074114	0.027146	-0.589355	0.490967	0.318115	0.364348	-0.685027	-0.346358	-0.527281
61772		9.562931	-1.162302	-1.724003	0.053050	-0.075743	0.023258	-0.589111	0.487549	0.317383	0.364695	-0.685517	-0.346744	-0.526149
61773		9.628474	-1.257608	-1.701278	0.034397	-0.065248	0.026455	-0.592041	0.486084	0.316162	0.364906	-0.686007	-0.346960	-0.525221
61774		9.613949	-1.397109	-1.719079	0.020847	-0.049247	0.035865	-0.591797	0.497803	0.320557	0.365119	-0.686436	-0.346971	-0.524505
61775		9.531062	-1.453081	-1.694823	0.015090	-0.035299	0.039325	-0.595947	0.492432	0.310059	0.365460	-0.686864	-0.346807	-0.523815
61776		9.539225	-1.414492	-1.661067	0.016371	-0.033796	0.038840	-0.586426	0.484375	0.317627	0.365821	-0.687130	-0.346668	-0.523306
61777		9.620714	-1.485731	-1.719514	0.029301	-0.030261	0.033380	-0.592285	0.491943	0.313232	0.366126	-0.687403	-0.346669	-0.522733
61778		9.512565	-1.576617	-1.691192	0.031882	-0.018531	0.028006	-0.590820	0.497559	0.313965	0.366576	-0.687485	-0.346667	-0.522311
61779		9.473073	-1.518493	-1.673659	0.044786	-0.016270	0.025584	-0.587646	0.496094	0.322021	0.367179	-0.687508	-0.346728	-0.521816
61780		9.492592	-1.470213	-1.682617	0.053797	-0.015591	0.021703	-0.586426	0.489502	0.307617	0.367757	-0.687546	-0.346921	-0.521230
61781		9.572455	-1.503230	-1.741471	0.043593	-0.019244	0.020203	-0.590576	0.498535	0.309082	0.368229	-0.687541	-0.347024	-0.520836
61782		9.563542	-1.567801	-1.737442	0.013762	-0.003756	0.025733	-0.587158	0.488770	0.312256	0.368628	-0.687584	-0.346818	-0.520634
61783		9.501346	-1.565771	-1.665769	0.014724	-0.002169	0.023410	-0.595459	0.496582	0.312988	0.368890	-0.687633	-0.346681	-0.520474
61784		9.494023	-1.502870	-1.685052	0.038606	-0.009857	0.012190	-0.593994	0.491699	0.313721	0.369328	-0.687517	-0.346869	-0.520191
61785		9.528555	-1.546070	-1.696473	0.045926	-0.012733	0.010631	-0.577393	0.501221	0.304932	0.369737	-0.687390	-0.347152	-0.519880
61786		9.547011	-1.551868	-1.711193	0.035706	-0.007064	0.017734	-0.579834	0.493652	0.316406	0.370294	-0.687397	-0.347069	-0.519529
61787		9.471475	-1.508610	-1.687815	0.030827	-0.004910	0.015281	-0.582520	0.490723	0.315430	0.370625	-0.687451	-0.347084	-0.519212
61788		9.522278	-1.476641	-1.713823	0.036481	-0.007586	0.012540	-0.582275	0.494873	0.311035	0.370940	-0.687447	-0.347203	-0.518912
61789		9.554478	-1.483584	-1.730091	0.028505	-0.009464	0.011334	-0.587891	0.500732	0.312500	0.371241	-0.687463	-0.347254	-0.518642
61790		9.557115	-1.511677	-1.731775	0.006522	-0.004511	0.019504	-0.577881	0.500000	0.301270	0.371476	-0.687551	-0.347105	-0.518457
61791		9.490321	-1.533918	-1.734341	-0.000112	-0.001516	0.016709	-0.579590	0.496094	0.318604	0.371714	-0.687639	-0.346799	-0.518373
61792		9.469449	-1.519412	-1.750757	0.010844	-0.008973	0.007467	-0.582031	0.504883	0.315674	0.371784	-0.687787	-0.346787	-0.518136
61793		9.527815	-1.601261	-1.748120	0.005335	-0.009445	0.004209	-0.583008	0.503418	0.311523	0.371899	-0.687914	-0.346746	-0.517912
61794		9.519869	-1.584658	-1.713397	-0.006555	-0.005749	0.008214	-0.582764	0.498291	0.311768	0.371963	-0.688047	-0.346573	-0.517805
61795		9.532141	-1.609214	-1.695689	-0.009227	-0.003047	0.009068	-0.583496	0.500000	0.313232	0.371963	-0.688173	-0.346384	-0.517764
61796		9.484673	-1.597539	-1.694816	-0.006626	-0.006350	0.006461	-0.592041	0.500000	0.314453	0.371964	-0.688299	-0.346257	-0.517681
61797		9.502303	-1.635306	-1.737677	-0.013382	-0.006428	0.008017	-0.587402	0.501221	0.326172	0.371912	-0.688396	-0.346153	-0.517659
61798		9.514155	-1.651084	-1.735067	-0.018116	-0.003081	0.009078	-0.583252	0.498535	0.321533	0.371787	-0.688608	-0.346010	-0.517562
61799		9.507133	-1.613445	-1.720494	-0.012042	-0.004036	0.006885	-0.572510	0.499512	0.307373	0.371696	-0.688787	-0.345879	-0.517477
61800		9.506394	-1.605574	-1.736553	-0.010023	-0.004044	0.001879	-0.578857	0.505127	0.301758	0.371675	-0.688937	-0.345631	-0.517458
61801		9.495605	-1.595643	-1.719303	-0.014415	-0.007036	0.003134	-0.585205	0.502686	0.318359	0.371708	-0.689046	-0.345370	-0.517463
61802		9.497902	-1.602480	-1.751327	-0.015186	-0.004923	0.002861	-0.575928	0.502197	0.313965	0.371624	-0.689187	-0.345245	-0.517420
61803		9.499215	-1.598245	-1.744168	-0.016027	-0.003412	0.000838	-0.573486	0.505127	0.313232	0.371542	-0.689361	-0.345023	-0.517395
61804		9.519530	-1.608809	-1.798709	-0.013287	-0.006447	-0.003251	-0.586182	0.504150	0.314209	0.371478	-0.689540	-0.344834	-0.517328
61805		9.529625	-1.623232	-1.751535	-0.014550	-0.004181	-0.006283	-0.575684	0.497803	0.311768	0.371384	-0.689594	-0.344768	-0.517368
61806		9.504186	-1.589954	-1.708386	-0.010118	-0.005251	-0.007258	-0.573975	0.507080	0.315186	0.371259	-0.689696	-0.344661	-0.517392
61807		9.472398	-1.595713	-1.733211	-0.005169	-0.005236	-0.008516	-0.574219	0.504883	0.320801	0.371251	-0.689809	-0.344571	-0.517308
61808		9.481464	-1.584203	-1.729572	0.003438	-0.006674	-0.010555	-0.576416	0.492676	0.315430	0.371247	-0.689906	-0.344602	-0.517160
61809		9.519158	-1.618571	-1.786183	-0.007938	-0.005304	-0.011345	-0.578857	0.500244	0.323486	0.371048	-0.689984	-0.344585	-0.517210
61810		9.519048	-1.622295	-1.719710	-0.015888	-0.004073	-0.005624	-0.580811	0.495850	0.312744	0.370866	-0.690145	-0.344499	-0.517183
61811		9.523366	-1.623192	-1.742144	-0.006268	-0.002088	-0.005647	-0.576904	0.499756	0.313721	0.370787	-0.690169	-0.344438	-0.517250
61812		9.509150	-1.579484	-1.737697	-0.011944	-0.001564	-0.004842	-0.581543	0.503906	0.307129	0.370699	-0.690259	-0.344288	-0.517292
61813		9.477747	-1.594113	-1.747696	-0.016406	-0.005153	-0.005345	-0.583740	0.509277	0.317627	0.370632	-0.690320	-0.344125	-0.517366
61814		9.484044	-1.599236	-1.747022	-0.005215	-0.003654	-0.008338	-0.583008	0.499512	0.310303	0.370653	-0.690351	-0.344107	-0.517323
61815		9.508211	-1.608847	-1.768937	-0.002801	-0.005650	-0.009291	-0.572021	0.497314	0.316406	0.370616	-0.690337	-0.344105	-0.517368
61816		9.503281	-1.586869	-1.778194	-0.009086	-0.003069	-0.007832	-0.579834	0.501709	0.315186	0.370489	-0.690459	-0.343985	-0.517377
61817		9.502003	-1.565258	-1.755008	-0.008642	-0.002580	-0.009868	-0.580078	0.489746	0.325439	0.370413	-0.690500	-0.343931	-0.517413
61818		9.497671	-1.550998	-1.749372	-0.013782	-0.002217	-0.011931	-0.578369	0.498291	0.313477	0.370115	-0.690595	-0.343938	-0.517494
61819		9.509311	-1.574617	-1.740465	-0.010263	-0.003935	-0.011238	-0.571289	0.509033	0.318604	0.369990	-0.690644	-0.343877	-0.517559
61820		9.494362	-1.596784	-1.781880	-0.013851	-0.001888	-0.008702	-0.578125	0.502197	0.322754	0.369933	-0.690799	-0.343693	-0.517515
61821		9.516018	-1.599222	-1.773549	-0.018192	-0.001467	-0.008561	-0.576660	0.498291	0.308105	0.369763	-0.690932	-0.343572	-0.517539
61822		9.506281	-1.595292	-1.740794	-0.021522	-0.000123	-0.005938	-0.583496	0.501953	0.318848	0.369617	-0.691014	-0.343330	-0.517695
61823		9.497145	-1.570654	-1.728545	-0.022814	-0.001585	-0.005467	-0.583252	0.496826	0.322754	0.369452	-0.691117	-0.343178	-0.517776
61824		9.517498	-1.609085	-1.747789	-0.018685	-0.002867	-0.005888	-0.578857	0.497559	0.318115	0.369251	-0.691222	-0.343090	-0.517837
61825		9.509412	-1.594895	-1.774515	-0.011319	-0.002349	-0.008557	-0.582275	0.492920	0.319824	0.369125	-0.691290	-0.343007	-0.517892
61826		9.479786	-1.605057	-1.775346	-0.006508	-0.002603	-0.008336	-0.583008	0.497803	0.320557	0.368995	-0.691315	-0.342999	-0.517956
61827		9.493548	-1.604535	-1.778183	0.004097	-0.007759	-0.011886	-0.582031	0.493408	0.317139	0.368957	-0.691311	-0.343110	-0.517914
61828		9.502779	-1.569297	-1.741245	0.005147	-0.004334	-0.015492	-0.577637	0.498535	0.321045	0.368893	-0.691253	-0.343230	-0.517958
61829		9.488666	-1.546594	-1.769883	0.005896	-0.006110	-0.017632	-0.581299	0.502930	0.319580	0.368841	-0.691251	-0.343347	-0.517920
61830		9.516681	-1.555170	-1.759806	0.012820	-0.008569	-0.017813	-0.576416	0.496338	0.323486	0.368891	-0.691200	-0.343538	-0.517826
61831		9.513755	-1.588989	-1.743878	0.011223	-0.007760	-0.017241	-0.578125	0.496094	0.325928	0.368849	-0.691206	-0.343695	-0.517744
61832		9.486587	-1.543173	-1.791636	0.008096	-0.006466	-0.019328	-0.577637	0.496826	0.316162	0.368761	-0.691209	-0.343865	-0.517690
61833		9.515165	-1.582907	-1.799986	0.002843	-0.006709	-0.017513	-0.577148	0.495605	0.315674	0.368689	-0.691201	-0.343944	-0.517699
61834		9.499327	-1.600133	-1.734497	0.004975	-0.004262	-0.016426	-0.585693	0.504883	0.322021	0.368645	-0.691173	-0.344012	-0.517722
61835		9.489379	-1.557109	-1.751162	0.004975	-0.004259	-0.016428	-0.579346	0.507324	0.316895	0.368670	-0.691118	-0.344156	-0.517682
61836		9.504899	-1.574638	-1.778059	0.013360	-0.007782	-0.015709	-0.583008	0.494873	0.317627	0.368793	-0.691076	-0.344289	-0.517563
61837		9.489044	-1.586153	-1.780285	0.006195	-0.002469	-0.013670	-0.578369	0.496094	0.318604	0.368775	-0.691011	-0.344385	-0.517599
61838		9.498304	-1.573938	-1.775812	-0.005978	-0.002766	-0.011208	-0.594971	0.499756	0.315918	0.368669	-0.691055	-0.344346	-0.517641
61839		9.505474	-1.586301	-1.760103	-0.003285	-0.004197	-0.015129	-0.581787	0.492432	0.321533	0.368620	-0.690946	-0.344483	-0.517730
61840		9.512710	-1.568641	-1.779370	0.004805	-0.004189	-0.017359	-0.575928	0.499268	0.318359	0.368521	-0.690913	-0.344610	-0.517761
61841		9.486097	-1.590210	-1.742144	0.000953	-0.004854	-0.019440	-0.574707	0.495850	0.320068	0.368446	-0.690922	-0.344669	-0.517762
61842		9.493871	-1.580510	-1.747291	0.003195	-0.008032	-0.018275	-0.582764	0.495361	0.321533	0.368344	-0.690963	-0.344743	-0.517730
61843		9.492299	-1.601541	-1.736756	0.011159	-0.003645	-0.017539	-0.580811	0.496826	0.322510	0.368336	-0.690890	-0.344912	-0.517722
61844		9.515145	-1.560893	-1.768983	0.011471	-0.005910	-0.017642	-0.575684	0.498291	0.321045	0.368328	-0.690849	-0.345078	-0.517671
61845		9.487313	-1.536234	-1.795909	0.003131	-0.003967	-0.018549	-0.577637	0.493408	0.318604	0.368263	-0.690863	-0.345139	-0.517658
61846		9.509849	-1.545452	-1.772980	0.002149	-0.005215	-0.018633	-0.574707	0.491699	0.319824	0.368151	-0.690862	-0.345212	-0.517690
61847		9.506197	-1.538556	-1.752644	0.008807	-0.004450	-0.019371	-0.574951	0.501221	0.327637	0.368073	-0.690850	-0.345309	-0.517698
61848		9.498333	-1.545766	-1.812033	0.009329	-0.005848	-0.019198	-0.578369	0.500732	0.321533	0.368046	-0.690885	-0.345425	-0.517593
61849		9.509187	-1.528746	-1.799001	0.002971	-0.002999	-0.014482	-0.581299	0.489746	0.323242	0.368033	-0.690897	-0.345458	-0.517564
61850		9.502062	-1.551418	-1.775093	-0.004351	0.001107	-0.015951	-0.579834	0.503174	0.318848	0.367871	-0.690888	-0.345482	-0.517674
61851		9.498781	-1.524361	-1.774512	-0.001600	-0.002236	-0.012015	-0.582764	0.486816	0.327881	0.367873	-0.690907	-0.345457	-0.517664
61852		9.497106	-1.516549	-1.798181	0.001755	-0.000130	-0.015761	-0.577148	0.492676	0.318359	0.367724	-0.690887	-0.345553	-0.517733
61853		9.517596	-1.521665	-1.797879	-0.009245	-0.000509	-0.014873	-0.588623	0.497314	0.328369	0.367560	-0.690928	-0.345484	-0.517840
61854		9.504749	-1.545621	-1.761768	-0.014588	-0.000138	-0.012210	-0.577637	0.489990	0.323975	0.367391	-0.690966	-0.345473	-0.517917
61855		9.518895	-1.543806	-1.763579	-0.010994	0.002502	-0.013273	-0.584473	0.489014	0.319824	0.367196	-0.691023	-0.345382	-0.518040
61856		9.498602	-1.543904	-1.758174	-0.006691	0.001192	-0.012780	-0.587158	0.490479	0.321533	0.367062	-0.691000	-0.345370	-0.518174
61857		9.502776	-1.534339	-1.793965	-0.001516	0.000887	-0.016369	-0.579834	0.495605	0.324707	0.366960	-0.690929	-0.345448	-0.518288
61858		9.504027	-1.538990	-1.779283	-0.005993	0.000997	-0.014737	-0.580078	0.492432	0.313232	0.366844	-0.690960	-0.345412	-0.518353
61859		9.497549	-1.496448	-1.762907	-0.004356	0.001131	-0.015964	-0.585693	0.497070	0.312744	0.366761	-0.690921	-0.345381	-0.518486
61860		9.536567	-1.514180	-1.770459	-0.001780	0.001597	-0.016461	-0.582031	0.490723	0.319092	0.366752	-0.690823	-0.345414	-0.518600
61861		9.530579	-1.524111	-1.752015	-0.000220	-0.000116	-0.016395	-0.589355	0.489014	0.321777	0.366662	-0.690785	-0.345445	-0.518692
61862		9.505471	-1.513183	-1.739965	0.001993	0.000430	-0.013089	-0.579590	0.493408	0.318604	0.366606	-0.690707	-0.345527	-0.518781
61863		9.511527	-1.553003	-1.765219	0.008123	-0.003292	-0.012438	-0.580322	0.491699	0.326660	0.366622	-0.690688	-0.345567	-0.518770
61864		9.500142	-1.523725	-1.775296	0.008778	0.000233	-0.012255	-0.579102	0.497070	0.320801	0.366608	-0.690677	-0.345607	-0.518767
61865		9.510908	-1.507726	-1.761364	-0.002992	-0.000557	-0.011174	-0.573730	0.495605	0.321777	0.366566	-0.690714	-0.345544	-0.518790
61866		9.510074	-1.538891	-1.735339	-0.000515	-0.000712	-0.007779	-0.583252	0.494629	0.321289	0.366537	-0.690798	-0.345422	-0.518780
61867		9.511038	-1.545466	-1.720664	0.015056	-0.001046	-0.011139	-0.586182	0.491943	0.319580	0.366635	-0.690725	-0.345516	-0.518745
61868		9.501616	-1.514844	-1.775008	0.016860	-0.000965	-0.011444	-0.582031	0.488770	0.324463	0.366740	-0.690611	-0.345649	-0.518733
61869		9.508573	-1.498913	-1.793200	-0.001718	-0.000344	-0.008598	-0.580811	0.492920	0.326172	0.366647	-0.690645	-0.345603	-0.518785
61870		9.543543	-1.545192	-1.744693	-0.008395	0.001358	-0.008320	-0.581787	0.489990	0.320801	0.366527	-0.690719	-0.345489	-0.518847
61871		9.524611	-1.542468	-1.730579	-0.000815	0.000330	-0.010278	-0.588135	0.489502	0.317383	0.366462	-0.690721	-0.345453	-0.518914
61872		9.484392	-1.557871	-1.759026	0.009158	-0.003585	-0.012553	-0.579834	0.490723	0.319824	0.366483	-0.690629	-0.345574	-0.518942
61873		9.517776	-1.557143	-1.774731	0.016186	-0.000715	-0.015148	-0.576416	0.495361	0.319824	0.366534	-0.690551	-0.345673	-0.518944
61874		9.513419	-1.543404	-1.767787	0.013176	-0.001688	-0.012608	-0.580566	0.487305	0.317627	0.366598	-0.690533	-0.345699	-0.518905
61875		9.507863	-1.563839	-1.734551	0.006510	0.000894	-0.007321	-0.581299	0.503174	0.317627	0.366610	-0.690505	-0.345669	-0.518954
61876		9.499403	-1.527495	-1.726564	0.007978	0.001092	-0.009475	-0.573975	0.480469	0.324707	0.366741	-0.690466	-0.345658	-0.518921
61877		9.502373	-1.487818	-1.743952	0.015607	-0.003642	-0.013575	-0.584717	0.497559	0.320801	0.366663	-0.690481	-0.345702	-0.518926
61878		9.517882	-1.482688	-1.737146	0.025183	-0.005855	-0.017517	-0.581543	0.494141	0.312744	0.366808	-0.690363	-0.345936	-0.518825
61879		9.502493	-1.473361	-1.759357	0.015664	-0.003935	-0.016829	-0.584229	0.491455	0.322754	0.366893	-0.690258	-0.346073	-0.518813
61880		9.516602	-1.515912	-1.774110	0.005271	-0.005186	-0.013993	-0.584961	0.491211	0.313721	0.366834	-0.690253	-0.346144	-0.518814
61881		9.515844	-1.546770	-1.748641	-0.001695	-0.002839	-0.008141	-0.577881	0.490234	0.320312	0.366813	-0.690238	-0.346123	-0.518863
61882		9.515785	-1.521513	-1.716253	0.005353	-0.002447	-0.010284	-0.587891	0.502686	0.322266	0.366778	-0.690265	-0.346092	-0.518873
61883		9.518658	-1.481180	-1.734346	0.017359	-0.005343	-0.018255	-0.589600	0.497070	0.317627	0.366887	-0.690168	-0.346297	-0.518788
61884		9.517087	-1.496557	-1.791694	0.022729	-0.009422	-0.017412	-0.583252	0.485596	0.320557	0.367018	-0.690037	-0.346572	-0.518686
61885		9.502763	-1.525201	-1.765047	0.004766	-0.006269	-0.013714	-0.586914	0.489258	0.321045	0.366916	-0.690039	-0.346630	-0.518716
61886		9.498830	-1.519691	-1.744957	-0.005546	-0.003538	-0.010219	-0.578613	0.492188	0.318604	0.366795	-0.690064	-0.346609	-0.518782
61887		9.507952	-1.486608	-1.761275	0.000934	-0.002662	-0.011895	-0.577148	0.494629	0.322754	0.366736	-0.690096	-0.346567	-0.518811
61888		9.515417	-1.498868	-1.745365	0.001621	-0.005002	-0.015805	-0.584961	0.485107	0.316406	0.366638	-0.690156	-0.346553	-0.518809
61889		9.516617	-1.482596	-1.752323	0.003255	-0.004855	-0.017039	-0.584961	0.501709	0.313477	0.366539	-0.690105	-0.346645	-0.518885
61890		9.498120	-1.501191	-1.772218	0.002843	-0.005320	-0.020655	-0.586426	0.491455	0.320068	0.366543	-0.690040	-0.346759	-0.518891
61891		9.534805	-1.534435	-1.784401	-0.003403	-0.007820	-0.018241	-0.587891	0.492432	0.317139	0.366395	-0.690050	-0.346831	-0.518936
61892		9.528568	-1.607342	-1.705704	-0.014363	0.000307	-0.009530	-0.588379	0.494873	0.322510	0.366272	-0.690070	-0.346735	-0.519060
61893		9.510135	-1.527262	-1.705787	0.002047	-0.000225	-0.008297	-0.589355	0.493652	0.322021	0.366288	-0.690049	-0.346732	-0.519078
61894		9.483614	-1.502959	-1.777017	0.015086	-0.006805	-0.015280	-0.582275	0.500000	0.327881	0.366339	-0.689972	-0.346912	-0.519025
61895		9.530467	-1.503238	-1.795380	0.014179	-0.006212	-0.016662	-0.585449	0.496094	0.316162	0.366375	-0.689968	-0.347033	-0.518924
61896		9.509675	-1.480788	-1.757625	0.004002	-0.001073	-0.012696	-0.584229	0.497314	0.321045	0.366406	-0.689917	-0.347060	-0.518951
61897		9.525144	-1.475661	-1.750954	-0.007716	-0.002288	-0.009169	-0.581787	0.494629	0.316895	0.366337	-0.689975	-0.346975	-0.518980
61898		9.487567	-1.459881	-1.729614	-0.007594	-0.004149	-0.012609	-0.585205	0.495117	0.327148	0.366231	-0.690026	-0.346908	-0.519032
61899		9.523452	-1.506849	-1.735486	0.001690	-0.004395	-0.014057	-0.585205	0.492432	0.329102	0.366165	-0.690051	-0.346943	-0.519022
61900		9.527884	-1.506660	-1.757697	0.003139	-0.004232	-0.010550	-0.587402	0.489746	0.324707	0.366109	-0.690090	-0.346955	-0.519001
61901		9.528416	-1.527840	-1.791519	-0.009875	-0.002307	-0.005048	-0.587402	0.498779	0.322021	0.365989	-0.690165	-0.346842	-0.519061
61902		9.525987	-1.518849	-1.762340	-0.009094	-0.001863	-0.010915	-0.591553	0.496338	0.324951	0.365915	-0.690201	-0.346782	-0.519106
61903		9.495691	-1.497325	-1.744513	-0.001588	-0.003416	-0.014660	-0.591553	0.492920	0.320312	0.365859	-0.690178	-0.346845	-0.519133
61904		9.513807	-1.519106	-1.748174	0.004832	-0.007783	-0.013929	-0.588867	0.490723	0.327393	0.365837	-0.690140	-0.346956	-0.519126
61905		9.509102	-1.505286	-1.742673	0.003637	-0.003130	-0.010842	-0.589355	0.496338	0.316650	0.365799	-0.690133	-0.346996	-0.519134
61906		9.516991	-1.520144	-1.780110	-0.000384	-0.003775	-0.013846	-0.590088	0.490723	0.327881	0.365782	-0.690096	-0.347032	-0.519173
61907		9.506691	-1.507746	-1.761701	0.002772	-0.002883	-0.009807	-0.584961	0.486816	0.313965	0.365748	-0.690090	-0.347064	-0.519182
61908		9.504117	-1.456928	-1.773481	0.003704	-0.004689	-0.011032	-0.580566	0.485352	0.322754	0.365707	-0.690073	-0.347056	-0.519239
61909		9.519501	-1.451656	-1.767316	0.007066	-0.005022	-0.014342	-0.588135	0.484375	0.327637	0.365624	-0.690088	-0.347074	-0.519266
61910		9.511183	-1.457759	-1.773178	0.004950	-0.004070	-0.016540	-0.580566	0.491455	0.311523	0.365510	-0.690065	-0.347155	-0.519323
61911		9.514278	-1.481888	-1.783630	-0.001451	-0.004392	-0.013090	-0.580078	0.490967	0.320068	0.365452	-0.690077	-0.347107	-0.519380
61912		9.517430	-1.527465	-1.773520	-0.004584	-0.002268	-0.010155	-0.585205	0.496338	0.315186	0.365361	-0.690138	-0.347001	-0.519433
61913		9.511569	-1.481992	-1.749163	-0.002924	-0.001188	-0.012043	-0.583984	0.500488	0.318359	0.365346	-0.690124	-0.346963	-0.519488
61914		9.504713	-1.463106	-1.766479	0.007616	-0.004205	-0.017893	-0.586670	0.497070	0.321777	0.365386	-0.690078	-0.347052	-0.519462
61915		9.529535	-1.491261	-1.767629	0.008154	-0.005596	-0.017719	-0.579346	0.489990	0.320068	0.365394	-0.690034	-0.347167	-0.519437
61916		9.517132	-1.494650	-1.752186	-0.003594	-0.002221	-0.012686	-0.583496	0.486084	0.322266	0.365287	-0.690085	-0.347082	-0.519501
61917		9.514647	-1.520439	-1.749942	-0.003794	-0.003085	-0.012964	-0.578857	0.489014	0.317139	0.365149	-0.690123	-0.347029	-0.519584
61918		9.514206	-1.508822	-1.765189	0.004652	-0.002133	-0.014036	-0.586670	0.489502	0.321045	0.365109	-0.690122	-0.347001	-0.519633
61919		9.511600	-1.457372	-1.776661	0.007165	-0.003488	-0.013242	-0.588379	0.498535	0.319824	0.365099	-0.690086	-0.347049	-0.519654
61920		9.506337	-1.455674	-1.764692	0.004280	-0.002935	-0.015242	-0.580566	0.486084	0.321777	0.365123	-0.690039	-0.347113	-0.519657
61921		9.514176	-1.467403	-1.748269	-0.001047	-0.000449	-0.016270	-0.577393	0.486816	0.322266	0.364994	-0.690051	-0.347069	-0.519761
61922		9.515178	-1.486857	-1.781509	0.001738	-0.002499	-0.015388	-0.585693	0.493896	0.326416	0.364883	-0.690089	-0.347021	-0.519820
61923		9.521603	-1.467274	-1.747026	0.002081	-0.002617	-0.013534	-0.579834	0.489990	0.332031	0.364839	-0.690101	-0.347027	-0.519832
61924		9.511395	-1.436195	-1.802229	0.005759	-0.001841	-0.012387	-0.593018	0.488281	0.327637	0.364778	-0.690152	-0.346997	-0.519827
61925		9.533641	-1.458479	-1.772832	-0.001498	-0.001887	-0.013568	-0.583740	0.486328	0.332031	0.364688	-0.690129	-0.347032	-0.519898
61926		9.502636	-1.449483	-1.748958	-0.004437	-0.003188	-0.014264	-0.583008	0.498047	0.330566	0.364512	-0.690199	-0.346987	-0.519958
61927		9.535996	-1.504337	-1.772171	0.003830	-0.004362	-0.012545	-0.586182	0.490723	0.330322	0.364485	-0.690255	-0.346975	-0.519911
61928		9.509071	-1.498632	-1.769389	0.010966	-0.002397	-0.013599	-0.589844	0.492432	0.324463	0.364492	-0.690232	-0.347039	-0.519894
61929		9.535328	-1.467181	-1.754631	0.004720	-0.001532	-0.012282	-0.585205	0.494141	0.326416	0.364494	-0.690196	-0.347070	-0.519919
61930		9.502492	-1.442361	-1.759601	0.004299	-0.002050	-0.010227	-0.581299	0.495117	0.326660	0.364494	-0.690212	-0.347046	-0.519913
61931		9.518432	-1.460774	-1.785699	0.012050	-0.003037	-0.011294	-0.582764	0.489014	0.318848	0.364544	-0.690222	-0.347054	-0.519861
61932		9.542507	-1.446264	-1.773736	0.003015	-0.000129	-0.010858	-0.587891	0.490723	0.320557	0.364522	-0.690217	-0.346991	-0.519925
61933		9.519743	-1.443635	-1.791624	-0.001725	0.000602	-0.009286	-0.588623	0.492188	0.324463	0.364492	-0.690209	-0.346923	-0.520001
61934		9.511730	-1.471954	-1.776183	0.005508	-0.002403	-0.009412	-0.586670	0.489990	0.321777	0.364510	-0.690197	-0.346925	-0.520004
61935		9.519992	-1.472962	-1.765526	0.002767	-0.000706	-0.007874	-0.587891	0.483398	0.328369	0.364511	-0.690195	-0.346871	-0.520041
61936		9.508691	-1.453343	-1.761034	0.003705	-0.000366	-0.007146	-0.581299	0.485596	0.320801	0.364480	-0.690195	-0.346839	-0.520085
61937		9.522294	-1.432134	-1.783205	0.010641	-0.001394	-0.010436	-0.580566	0.495361	0.328613	0.364494	-0.690178	-0.346819	-0.520111
61938		9.519311	-1.471477	-1.774545	-0.002910	-0.002456	-0.008987	-0.580078	0.489014	0.328369	0.364420	-0.690276	-0.346696	-0.520115
61939		9.509518	-1.501781	-1.714609	0.003408	-0.000594	-0.006583	-0.589111	0.485840	0.330078	0.364392	-0.690338	-0.346586	-0.520124
61940		9.526603	-1.496144	-1.752101	0.017305	-0.001784	-0.008135	-0.591553	0.485596	0.323975	0.364480	-0.690279	-0.346668	-0.520087
61941		9.508377	-1.449159	-1.770241	0.014269	-0.002455	-0.007989	-0.587402	0.488525	0.326416	0.364562	-0.690205	-0.346745	-0.520077
61942		9.516614	-1.450494	-1.759436	0.010047	-0.001847	-0.009313	-0.584473	0.485596	0.327881	0.364593	-0.690179	-0.346764	-0.520076
61943		9.537364	-1.478153	-1.738359	0.006714	-0.000613	-0.006645	-0.586426	0.494141	0.320068	0.364591	-0.690193	-0.346713	-0.520094
61944		9.526012	-1.459052	-1.733589	0.010686	0.000405	-0.006066	-0.586914	0.495361	0.321045	0.364697	-0.690159	-0.346675	-0.520090
61945		9.514237	-1.455094	-1.776649	0.020169	-0.005373	-0.007446	-0.583496	0.490479	0.325928	0.364854	-0.690115	-0.346739	-0.519995
61946		9.520870	-1.460940	-1.774888	0.009627	-0.002361	-0.007258	-0.579834	0.492432	0.322754	0.364888	-0.690131	-0.346704	-0.519974
61947		9.526949	-1.443410	-1.740147	0.000149	-0.000923	-0.004103	-0.583740	0.505859	0.323975	0.364870	-0.690211	-0.346536	-0.519992
61948		9.516405	-1.468490	-1.748315	0.009407	-0.004151	-0.006880	-0.589844	0.482422	0.318604	0.364961	-0.690258	-0.346471	-0.519908
61949		9.513499	-1.475478	-1.766446	0.010443	-0.004444	-0.006993	-0.583008	0.492188	0.326416	0.365003	-0.690206	-0.346513	-0.519920
61950		9.505907	-1.492494	-1.757175	0.009676	-0.002705	-0.004838	-0.587891	0.490967	0.315918	0.365054	-0.690240	-0.346454	-0.519879
61951		9.504454	-1.495944	-1.766287	0.008616	-0.003336	-0.004072	-0.581787	0.488525	0.318604	0.365135	-0.690221	-0.346416	-0.519872
61952		9.520724	-1.467660	-1.771464	0.007602	-0.002115	-0.004615	-0.589111	0.495361	0.320068	0.365173	-0.690239	-0.346329	-0.519879
61953		9.523742	-1.458754	-1.754334	0.007579	-0.003040	-0.003961	-0.590332	0.488281	0.314209	0.365257	-0.690235	-0.346289	-0.519853
61954		9.504512	-1.458170	-1.740544	0.010416	-0.003225	-0.004388	-0.589111	0.491943	0.323730	0.365353	-0.690180	-0.346292	-0.519856
61955		9.524353	-1.444901	-1.761108	0.011106	-0.003400	-0.006360	-0.590820	0.494873	0.327881	0.365427	-0.690156	-0.346309	-0.519824
61956		9.535450	-1.474516	-1.760039	0.002372	-0.002496	-0.002745	-0.588379	0.497070	0.323730	0.365460	-0.690188	-0.346246	-0.519801
61957		9.512081	-1.471197	-1.725150	-0.003773	-0.002297	-0.002254	-0.587158	0.491699	0.322021	0.365455	-0.690254	-0.346112	-0.519806
61958		9.511187	-1.497818	-1.767408	0.001065	-0.003646	-0.004676	-0.590332	0.497803	0.313477	0.365448	-0.690291	-0.346033	-0.519814
61959		9.513275	-1.480050	-1.765339	0.009699	-0.003910	-0.007453	-0.587646	0.484863	0.319092	0.365549	-0.690245	-0.346040	-0.519800
61960		9.540466	-1.514961	-1.742776	0.002275	-0.003997	-0.003859	-0.589111	0.494141	0.324951	0.365536	-0.690262	-0.345973	-0.519832
61961		9.501686	-1.528994	-1.762453	0.003183	-0.002381	-0.006212	-0.582031	0.489258	0.317627	0.365552	-0.690273	-0.345931	-0.519833
61962		9.477658	-1.483281	-1.768688	0.015495	-0.003985	-0.009808	-0.583740	0.492676	0.319092	0.365619	-0.690239	-0.345951	-0.519818
61963		9.519239	-1.473148	-1.780493	0.005926	-0.006204	-0.009709	-0.587891	0.497559	0.325439	0.365610	-0.690262	-0.345929	-0.519808
61964		9.559278	-1.394128	-1.747919	-0.014541	-0.003129	-0.015003	-0.584961	0.497559	0.321289	0.365421	-0.690335	-0.345838	-0.519906
61965		9.477460	-1.254229	-1.732992	-0.019342	-0.004082	-0.029183	-0.588135	0.482666	0.319580	0.365096	-0.690380	-0.345815	-0.520089
61966		9.459084	-1.300971	-1.902393	-0.017242	-0.012209	-0.043587	-0.589844	0.489014	0.319580	0.364614	-0.690364	-0.346004	-0.520322
61967		9.509745	-1.637170	-1.849153	-0.039328	-0.019957	-0.057440	-0.588135	0.478271	0.327148	0.363852	-0.690439	-0.346208	-0.520620
61968		9.517455	-1.635600	-1.738864	-0.052364	-0.003289	-0.058542	-0.582520	0.480713	0.322754	0.362980	-0.690480	-0.346256	-0.521142
61969		9.492025	-1.331923	-1.621232	-0.069920	-0.002057	-0.053106	-0.585449	0.484131	0.330078	0.362004	-0.690644	-0.346081	-0.521720
61970		9.489780	-1.167880	-1.597740	-0.055685	-0.044864	-0.088027	-0.581543	0.484863	0.325928	0.360749	-0.690880	-0.346509	-0.521993
61971		9.418790	-0.704597	-1.881402	-0.026521	-0.088872	-0.145148	-0.588623	0.482422	0.332275	0.359190	-0.691037	-0.347779	-0.522015
61972		9.262034	-0.188242	-2.286921	-0.037770	-0.047831	-0.238101	-0.584473	0.474365	0.338379	0.357111	-0.690544	-0.349643	-0.522848
61973		9.333813	0.413267	-2.526300	-0.093761	-0.075750	-0.377500	-0.592285	0.470215	0.333008	0.353458	-0.689911	-0.352426	-0.524297
61974		9.390176	1.231313	-2.496677	0.008860	-0.031617	-0.567416	-0.598145	0.465820	0.333740	0.349670	-0.687626	-0.357351	-0.526499
61975		8.850245	2.562915	-2.244738	-0.048577	-0.040034	-0.771460	-0.611816	0.449951	0.333496	0.343995	-0.684698	-0.363665	-0.529720
61976		8.776962	2.328791	-2.631209	-0.515322	-0.136704	-0.843576	-0.620605	0.435791	0.331299	0.333377	-0.683956	-0.367941	-0.534493
61977		8.703943	0.401232	-0.991766	-0.830023	0.072250	-0.728453	-0.619141	0.423096	0.344971	0.321782	-0.683511	-0.368203	-0.541938
61978		10.107879	-0.710931	-1.548232	-0.893408	0.065890	-0.561271	-0.633545	0.411865	0.351562	0.310660	-0.684098	-0.366490	-0.548804
61979		9.177893	1.928104	-1.493670	-0.714917	0.248753	-0.660971	-0.640137	0.386719	0.333252	0.301215	-0.682130	-0.366113	-0.556714
61980		7.684181	3.379661	-0.349335	-0.637464	0.198930	-0.899154	-0.653564	0.361328	0.342529	0.290500	-0.678938	-0.368394	-0.564746
61981		7.671555	1.154376	-1.002158	-0.736647	0.195404	-1.067261	-0.664551	0.340088	0.351318	0.277646	-0.675188	-0.371367	-0.573690
61982		8.177381	-1.308288	-1.265650	-0.474481	0.140467	-1.038185	-0.672119	0.318359	0.345215	0.266890	-0.670921	-0.376078	-0.580689
61983		8.084748	2.853108	-1.583467	-0.284098	0.139543	-0.984919	-0.687256	0.303955	0.342529	0.258068	-0.666147	-0.381606	-0.586538
61984		8.260018	3.427885	-0.338281	-0.694352	0.022399	-1.143314	-0.674805	0.276367	0.349365	0.244090	-0.662629	-0.385734	-0.593761
61985		10.381585	-4.102423	-2.816712	-0.221006	-0.136738	-1.125983	-0.692383	0.251221	0.353516	0.233275	-0.658868	-0.393599	-0.597123
61986		11.178092	-2.472485	-5.745057	0.725568	-0.118239	-0.758867	-0.688232	0.246582	0.343018	0.233034	-0.653848	-0.405376	-0.594851
61987		13.401611	2.472427	-2.275191	0.470994	-0.303581	-0.587207	-0.692871	0.244873	0.351318	0.231028	-0.651753	-0.414309	-0.591771
61988		19.169408	-6.847775	-3.446908	-0.093548	-0.215079	-0.098994	-0.691406	0.245117	0.343994	0.228491	-0.653135	-0.414861	-0.590844
61989		23.568862	-5.752347	-3.125410	0.535157	-0.035993	0.745499	-0.694580	0.267578	0.347412	0.238234	-0.655740	-0.412547	-0.585708
61990		24.335503	-0.328459	-2.381399	0.364703	0.154414	1.159271	-0.689697	0.280273	0.334717	0.250535	-0.659485	-0.404973	-0.581643
61991		21.619031	3.254376	-2.763147	0.271789	0.449969	1.031987	-0.688477	0.299561	0.335205	0.262546	-0.660580	-0.396733	-0.580781
61992		15.727943	1.642109	-2.228454	0.315536	0.601727	0.854047	-0.685303	0.318604	0.318604	0.274328	-0.659417	-0.389748	-0.581386
61993		6.163666	-1.657815	-2.445457	0.108858	0.591709	0.814583	-0.688477	0.336914	0.307861	0.284024	-0.658726	-0.381543	-0.582954
61994		0.299690	0.276785	-3.495561	0.650871	0.239709	0.724586	-0.691406	0.354736	0.305908	0.295805	-0.658139	-0.379218	-0.579263
61995		-1.166415	2.829208	-1.973376	1.011412	-0.109621	0.649900	-0.677734	0.368164	0.306396	0.308304	-0.658261	-0.381372	-0.571136
61996		1.170530	4.304456	0.619239	0.141881	-0.162192	0.431337	-0.684326	0.382080	0.311768	0.311804	-0.660972	-0.379311	-0.567465
61997		2.087983	2.850316	0.393471	-0.494176	0.207884	0.250575	-0.687256	0.372314	0.302490	0.310508	-0.662645	-0.372776	-0.570547
61998		-0.132274	2.510173	0.515749	-0.193453	0.226527	0.041442	-0.681641	0.382080	0.295166	0.310281	-0.662018	-0.370019	-0.573188
61999		-0.634738	1.232087	0.101322	0.304632	-0.102816	-0.122954	-0.687256	0.379639	0.305176	0.311468	-0.661050	-0.373453	-0.571430
62000		-0.213497	0.903439	-0.214308	0.163514	-0.135143	-0.238702	-0.674805	0.389648	0.298584	0.310512	-0.660307	-0.376987	-0.570489
62001		0.257583	1.918160	-0.397145	-0.216920	0.070246	-0.257129	-0.681152	0.368408	0.296631	0.307246	-0.659482	-0.377140	-0.573104
62002		0.505486	2.500603	0.560659	-0.385561	0.106757	-0.328588	-0.676025	0.367432	0.302002	0.302240	-0.658682	-0.376539	-0.577068
62003		3.430256	1.654992	1.024050	-0.077684	-0.638911	-0.655160	-0.678467	0.353516	0.316162	0.293881	-0.660502	-0.383644	-0.574620
62004		17.129382	-1.530797	-6.344164	-0.364759	-0.347451	-0.570078	-0.682617	0.344238	0.324707	0.285129	-0.661617	-0.386877	-0.575578
62005		30.318325	8.880694	-2.767773	-1.009124	-0.357523	-0.797570	-0.670410	0.320557	0.329590	0.269313	-0.663882	-0.387324	-0.580268
62006		35.571215	-14.220064	-4.454912	-0.615903	-0.240767	-0.658714	-0.681396	0.297852	0.341309	0.258275	-0.664510	-0.388994	-0.583442
62007		36.139027	-8.590115	-2.885210	1.628160	0.311562	0.120014	-0.689453	0.315674	0.327881	0.274156	-0.657483	-0.398600	-0.577644
62008		27.093955	1.745610	-4.166589	0.695727	0.724142	0.931435	-0.681396	0.340088	0.307129	0.290182	-0.654490	-0.393191	-0.576921
62009		12.697264	5.039018	-3.771596	0.208140	0.668444	0.832017	-0.683838	0.352051	0.302734	0.301159	-0.653019	-0.385177	-0.578366
62010		2.607409	0.802858	-3.702292	0.733320	0.257821	0.445452	-0.691895	0.357422	0.290039	0.311614	-0.650561	-0.385665	-0.575265
62011		-1.574221	4.269381	-2.201921	0.935635	-0.102222	-0.054342	-0.696533	0.372314	0.288574	0.318341	-0.647399	-0.393039	-0.570135
62012		0.459436	7.216035	-0.256996	0.401900	-0.226415	-0.233484	-0.701660	0.374023	0.289795	0.318843	-0.646305	-0.398551	-0.567262
62013		1.660321	1.420542	-0.377707	-0.151039	0.065800	-0.290601	-0.710938	0.365723	0.287354	0.315921	-0.645034	-0.399446	-0.569709
62014		-0.453200	0.469275	0.754373	-0.274321	0.071528	-0.210486	-0.705078	0.356445	0.286377	0.312592	-0.644597	-0.398773	-0.572505
62015		-0.747275	0.874108	0.101849	0.132810	-0.042883	-0.194139	-0.713623	0.358643	0.293701	0.312087	-0.643461	-0.401324	-0.572275
62016		-0.127220	0.745955	-0.596385	0.133045	-0.089223	-0.145183	-0.699951	0.357910	0.287109	0.311705	-0.642894	-0.403684	-0.571460
62017		0.155574	1.145796	-0.521725	-0.460668	0.000261	-0.114829	-0.698975	0.348145	0.291504	0.307211	-0.644147	-0.401180	-0.574239
62018		0.495876	0.974072	0.710419	-0.795110	0.141008	-0.114891	-0.710938	0.342041	0.294678	0.300710	-0.645624	-0.395725	-0.579780
62019		0.496422	0.971508	1.122205	-0.885813	0.146644	-0.322602	-0.704346	0.328369	0.296875	0.291955	-0.646297	-0.391195	-0.586540
62020		0.756446	0.682045	4.533314	-0.094574	-0.197366	-0.702520	-0.701660	0.313477	0.304932	0.285092	-0.644675	-0.396744	-0.587971
62021		6.709588	-2.115852	-1.233766	1.160121	-0.421206	-0.855158	-0.701660	0.314697	0.303955	0.286050	-0.639330	-0.413468	-0.581788
62022		21.253741	-3.810503	-5.992199	0.338882	-0.315356	-0.493240	-0.698486	0.308105	0.303223	0.283566	-0.637895	-0.420850	-0.579280
62023		32.179909	10.114187	-8.727188	-0.363507	-0.387332	-0.307656	-0.698730	0.301025	0.310547	0.276429	-0.640415	-0.421873	-0.579205
62024		37.220430	-4.654406	-7.644020	-0.476888	-0.300258	-0.041017	-0.692139	0.293945	0.318604	0.270759	-0.644063	-0.419635	-0.579464
62025		37.124184	-3.723906	-1.390079	0.404805	0.049682	0.547274	-0.691162	0.308594	0.320557	0.278269	-0.645244	-0.417822	-0.575892
62026		29.149201	-3.185307	-1.336979	0.366077	0.640449	1.213730	-0.679932	0.333496	0.307373	0.293293	-0.645667	-0.408195	-0.574865
62027		15.008971	2.970872	-3.300516	0.632799	0.869330	1.459111	-0.686768	0.361084	0.283447	0.313279	-0.644455	-0.397470	-0.573194
62028		3.162353	5.127919	-5.047677	0.618622	0.478161	1.038029	-0.693115	0.388916	0.275879	0.328051	-0.643754	-0.391371	-0.569906
62029		-1.182486	5.714495	-1.664114	0.446088	0.130490	0.441987	-0.680908	0.397705	0.280029	0.335444	-0.643201	-0.390257	-0.566983
62030		-0.879170	8.426495	0.538349	-0.213055	-0.258217	-0.136298	-0.691406	0.391113	0.288818	0.331558	-0.645298	-0.390870	-0.566464
62031		1.903193	0.704520	0.710714	-0.714003	-0.311052	-0.349026	-0.694824	0.379395	0.299072	0.321843	-0.648747	-0.389878	-0.568806
62032		-0.152940	-4.391023	0.788931	-0.448492	-0.254021	-0.152372	-0.705566	0.374756	0.307373	0.315924	-0.651631	-0.388890	-0.569502
62033		-0.330736	-3.013591	-0.183021	0.440133	-0.205871	0.033972	-0.697510	0.381836	0.308105	0.318778	-0.651552	-0.392450	-0.565548
62034		-0.073288	1.583141	-1.551231	0.288506	-0.167644	0.311134	-0.691162	0.390381	0.314453	0.322538	-0.653150	-0.392503	-0.561521
62035		-0.582341	3.409073	-1.110560	-0.325132	-0.210265	0.395367	-0.693359	0.386475	0.312012	0.321666	-0.657902	-0.387751	-0.559772
62036		0.375717	2.543721	1.559239	-0.856346	-0.134130	0.157644	-0.687256	0.380371	0.327148	0.315081	-0.663056	-0.380842	-0.562175
62037		0.092753	0.498989	0.959815	-0.114030	0.009377	-0.144587	-0.680664	0.378174	0.318604	0.313194	-0.662793	-0.381080	-0.563376
62038		-1.078232	3.294074	-0.458375	0.708087	-0.082460	-0.531185	-0.678711	0.380371	0.310303	0.314932	-0.658083	-0.390607	-0.561401
62039		4.799188	9.197999	-1.052508	1.032925	-0.542345	-1.283702	-0.685547	0.358154	0.307617	0.311728	-0.651454	-0.410307	-0.556850
62040		15.912117	-2.450390	-2.163787	-1.050858	0.185689	-1.104918	-0.682861	0.341797	0.318359	0.296403	-0.648514	-0.411073	-0.567974
62041		17.574606	1.355013	-0.709295	-0.427210	-0.065380	-0.751995	-0.684570	0.325195	0.315674	0.287287	-0.646706	-0.414242	-0.572399
62042		20.920214	-7.641201	-6.430543	-0.154632	-0.271444	-1.028571	-0.694092	0.295898	0.321289	0.277279	-0.643874	-0.422241	-0.574678
62043		26.979113	4.531431	-11.529344	0.448773	-0.492044	-0.695996	-0.696045	0.288086	0.333496	0.273302	-0.642194	-0.432584	-0.570758
62044		22.158348	2.620708	5.190434	-1.364899	-0.112491	-0.172321	-0.690430	0.280029	0.339844	0.260508	-0.646679	-0.424456	-0.577736
62045		15.659322	-15.741597	-1.951484	-0.210707	0.103779	0.173738	-0.697510	0.275635	0.340088	0.260640	-0.647596	-0.421019	-0.579163
62046		13.963801	1.129540	-4.423397	1.104020	0.256927	0.795799	-0.694336	0.302246	0.327637	0.276668	-0.646311	-0.421431	-0.572829
62047		7.680023	3.322817	-2.911494	-0.132286	0.091889	0.977603	-0.682129	0.317627	0.335449	0.283083	-0.651291	-0.411999	-0.570913
62048		8.202747	1.195535	-0.832888	-0.838467	-0.134774	1.041810	-0.664307	0.328125	0.344971	0.282993	-0.660557	-0.397791	-0.570387
62049		8.206651	-0.755678	1.485591	-0.670383	-0.055363	0.794327	-0.664551	0.332031	0.347900	0.282861	-0.667279	-0.386470	-0.570411
62050		7.306745	-1.487785	-1.806989	0.755657	-0.099899	0.510414	-0.655518	0.357422	0.346436	0.292328	-0.667807	-0.387729	-0.564131
62051		6.716720	2.197664	-1.991164	1.213889	-0.185923	0.371056	-0.656006	0.369629	0.340576	0.304175	-0.666466	-0.393628	-0.555299
62052		7.996342	3.880680	-2.051429	0.413303	-0.255805	0.326018	-0.644043	0.373047	0.346191	0.308648	-0.668322	-0.394568	-0.549907
62053		10.073774	2.247108	-3.112765	-0.002134	-0.168351	0.316289	-0.646973	0.383057	0.350586	0.310012	-0.671094	-0.392454	-0.547271
62054		9.736533	1.642269	-1.848838	0.068605	-0.023394	0.320355	-0.636475	0.382812	0.353271	0.312702	-0.672606	-0.390212	-0.545485
62055		10.063328	0.820773	-2.846470	0.341115	0.058874	0.185574	-0.642090	0.395020	0.346436	0.317164	-0.671812	-0.390676	-0.543551
62056		9.398668	1.359275	-4.138825	0.414415	0.068590	0.259192	-0.638672	0.401855	0.344238	0.322775	-0.671006	-0.390921	-0.541062
62057		9.128552	1.662955	-2.747946	0.311052	0.021836	0.286922	-0.635498	0.410645	0.344482	0.327471	-0.671041	-0.390443	-0.538536
62058		9.440530	0.706638	-1.906597	0.081909	0.067550	0.313108	-0.636719	0.411621	0.340088	0.330641	-0.671815	-0.388028	-0.537378
62059		9.519476	0.494988	-1.731585	-0.016405	0.086888	0.355247	-0.628418	0.417480	0.343018	0.333345	-0.673059	-0.384480	-0.536701
62060		9.332846	0.189410	-2.135870	-0.110091	0.053928	0.322614	-0.624268	0.422363	0.346924	0.334882	-0.674740	-0.380731	-0.536305
62061		9.319725	-0.221992	-2.884241	-0.224538	0.049315	0.345840	-0.626953	0.427979	0.345947	0.335582	-0.677026	-0.376030	-0.536304
62062		9.452358	-0.237317	-2.484982	-0.402704	0.085248	0.400667	-0.613525	0.430176	0.339355	0.335288	-0.680054	-0.369465	-0.537219
62063		9.417296	-0.515749	-1.991464	-0.366626	0.069670	0.338189	-0.612793	0.433105	0.343994	0.334791	-0.682718	-0.363695	-0.538087
62064		9.815126	-1.616419	-1.305564	0.061134	0.018485	0.168484	-0.610840	0.439453	0.347900	0.336563	-0.683148	-0.362457	-0.537271
62065		9.713417	-1.761831	-1.076394	0.588402	-0.016927	0.092216	-0.612549	0.447754	0.341797	0.342156	-0.681231	-0.365554	-0.534064
62066		9.614930	-0.425728	-0.963219	0.614378	0.041680	0.161940	-0.613525	0.459961	0.333008	0.348681	-0.679092	-0.367943	-0.530918
62067		9.540738	-0.114171	-1.480484	0.276102	0.044480	0.239061	-0.609375	0.453857	0.325684	0.352844	-0.678735	-0.367394	-0.529001
62068		9.495661	-0.648024	-2.036476	0.096871	0.024040	0.319524	-0.607910	0.470703	0.327881	0.355910	-0.679659	-0.365053	-0.527377
62069		9.319893	-1.111400	-1.759180	0.183148	0.032976	0.313843	-0.606689	0.466553	0.325928	0.359712	-0.680101	-0.363291	-0.525442
62070		9.307650	-0.849739	-1.364148	0.269435	0.039904	0.255909	-0.602051	0.483643	0.309814	0.363884	-0.679830	-0.362548	-0.523429
62071		9.649960	-0.047266	-1.147749	0.203146	0.046170	0.202892	-0.595947	0.485107	0.325195	0.367174	-0.679567	-0.361768	-0.522012
62072		9.724370	-0.283773	-1.140306	0.053958	0.022367	0.176549	-0.600342	0.482178	0.310791	0.368913	-0.680019	-0.360375	-0.521160
62073		9.556828	-1.052879	-1.513255	-0.074455	0.024886	0.167459	-0.592529	0.487793	0.322021	0.369505	-0.680999	-0.358185	-0.520970
62074		9.308875	-1.528181	-1.684397	-0.008477	0.010359	0.154208	-0.593262	0.494629	0.315674	0.370508	-0.681707	-0.356619	-0.520405
62075		9.472722	-1.534246	-1.737110	0.062886	-0.014198	0.122087	-0.591553	0.494873	0.321045	0.371802	-0.682099	-0.355894	-0.519465
62076		9.496356	-1.121145	-1.531313	0.044182	-0.022862	0.083066	-0.589844	0.492920	0.318848	0.372642	-0.682459	-0.355424	-0.518711
62077		9.604498	-1.074558	-1.466807	-0.018914	-0.012083	0.091741	-0.583008	0.503174	0.314209	0.373045	-0.683080	-0.354419	-0.518292
62078		9.610967	-1.228114	-1.379355	-0.091085	-0.002884	0.107620	-0.577393	0.500488	0.317139	0.372982	-0.684046	-0.352762	-0.518193
62079		9.600503	-1.693223	-1.562646	-0.094934	-0.025917	0.085897	-0.578857	0.501953	0.323242	0.372641	-0.685083	-0.351372	-0.518012
62080		9.265694	-1.903565	-1.903132	-0.040046	-0.027152	0.054946	-0.586670	0.502441	0.322021	0.372561	-0.685736	-0.350608	-0.517724
62081		9.349792	-1.812850	-1.833206	-0.026902	-0.014859	0.056203	-0.584473	0.502197	0.315918	0.372654	-0.686250	-0.349859	-0.517483
62082		9.731950	-1.761134	-1.550750	-0.009161	-0.042564	0.052275	-0.583984	0.502197	0.319092	0.372756	-0.686840	-0.349385	-0.516947
62083		9.597097	-1.622704	-1.480130	0.025209	-0.018911	0.049764	-0.579834	0.506592	0.320801	0.373237	-0.687107	-0.349043	-0.516475
62084		9.524769	-1.459212	-1.639631	-0.009692	0.000414	0.046076	-0.585938	0.512695	0.323975	0.373481	-0.687398	-0.348416	-0.516336
62085		9.498509	-1.507991	-1.696561	-0.018291	-0.041125	0.011972	-0.580078	0.503418	0.325684	0.373250	-0.687847	-0.348220	-0.516037
62086		9.446877	-1.640183	-1.942096	0.012926	-0.045465	0.000654	-0.573486	0.500977	0.328857	0.373190	-0.688131	-0.348342	-0.515619
62087		9.437072	-1.710313	-1.712086	-0.009664	-0.028969	0.003560	-0.574219	0.506592	0.321045	0.373023	-0.688431	-0.348215	-0.515425
62088		9.561259	-1.711659	-1.720534	0.006804	-0.043567	-0.000117	-0.575684	0.501221	0.317627	0.372920	-0.688727	-0.348295	-0.515050
62089		9.538795	-1.620130	-1.730285	-0.007655	-0.033096	0.016499	-0.576660	0.503906	0.327148	0.372844	-0.689091	-0.348092	-0.514755
62090		9.524008	-1.582209	-1.702756	-0.035284	-0.030238	0.028489	-0.574463	0.498291	0.326660	0.372614	-0.689622	-0.347591	-0.514549
62091		9.546061	-1.602149	-1.828586	-0.013092	-0.019480	0.015535	-0.580078	0.491211	0.321289	0.372536	-0.689924	-0.347292	-0.514402
62092		9.452115	-1.666656	-1.907463	0.003573	-0.021324	0.013878	-0.574951	0.507568	0.324463	0.372583	-0.690144	-0.347132	-0.514182
62093		9.497037	-1.705315	-1.858931	-0.010114	-0.023872	0.022610	-0.570312	0.503662	0.332520	0.372566	-0.690489	-0.346816	-0.513944
62094		9.500924	-1.545436	-1.772538	-0.008681	-0.016610	0.022255	-0.575684	0.498535	0.328613	0.372580	-0.690787	-0.346468	-0.513767
62095		9.545974	-1.553148	-1.840407	0.008247	-0.021883	0.022687	-0.578125	0.502930	0.327881	0.372721	-0.691033	-0.346257	-0.513476
62096		9.530171	-1.618295	-1.810274	0.020907	-0.015106	0.014669	-0.574463	0.509766	0.319336	0.372952	-0.691140	-0.346169	-0.513224
62097		9.413816	-1.654232	-1.864996	0.010153	-0.026086	0.003153	-0.575928	0.500488	0.329590	0.372984	-0.691313	-0.346172	-0.512966
62098		9.444669	-1.730920	-1.893663	0.022373	-0.028606	0.007189	-0.571045	0.503906	0.325684	0.373117	-0.691470	-0.346216	-0.512628
62099		9.480875	-1.679225	-1.767224	0.028679	-0.031473	-0.001012	-0.573486	0.504150	0.319336	0.373247	-0.691580	-0.346389	-0.512269
62100		9.485959	-1.568055	-1.843923	0.031139	-0.030312	-0.011274	-0.569824	0.511475	0.332520	0.373346	-0.691617	-0.346672	-0.511955
62101		9.510081	-1.721395	-1.875033	0.029515	-0.033801	-0.004037	-0.573975	0.507812	0.331299	0.373451	-0.691733	-0.346877	-0.511582
62102		9.434051	-1.734988	-1.904912	0.000759	-0.020539	0.010404	-0.572266	0.512207	0.327881	0.373456	-0.691955	-0.346716	-0.511387
62103		9.446023	-1.700444	-1.841221	0.008578	-0.018955	-0.000935	-0.571777	0.504395	0.331055	0.373471	-0.692080	-0.346702	-0.511217
62104		9.439586	-1.546021	-1.925694	0.025008	-0.027820	-0.015970	-0.568848	0.504883	0.335205	0.373483	-0.692121	-0.346956	-0.510980
62105		9.489842	-1.543587	-1.871942	0.009628	-0.013238	-0.019555	-0.576660	0.510498	0.323486	0.373396	-0.692133	-0.347065	-0.510953
62106		9.538679	-1.629628	-1.825904	0.001026	-0.020801	-0.024979	-0.579834	0.506836	0.326660	0.373190	-0.692189	-0.347234	-0.510912
62107		9.481496	-1.775902	-1.940878	0.018339	-0.021571	-0.026119	-0.568359	0.491699	0.336182	0.373116	-0.692165	-0.347523	-0.510803
62108		9.425395	-1.783417	-1.938778	-0.001865	-0.015439	-0.016489	-0.567871	0.503174	0.331787	0.372925	-0.692259	-0.347532	-0.510810
62109		9.426630	-1.652592	-1.864133	0.004449	-0.014290	-0.013601	-0.576904	0.502930	0.333008	0.372832	-0.692324	-0.347568	-0.510765
62110		9.486317	-1.518683	-1.914386	0.007091	-0.012220	-0.013097	-0.576660	0.511963	0.332275	0.372772	-0.692358	-0.347612	-0.510732
62111		9.481336	-1.491206	-1.917168	0.001426	-0.011140	-0.023282	-0.564209	0.506348	0.329346	0.372613	-0.692369	-0.347709	-0.510767
62112		9.449805	-1.558192	-1.998762	-0.009502	-0.013231	-0.024636	-0.572510	0.507812	0.333496	0.372342	-0.692445	-0.347752	-0.510833
62113		9.489232	-1.681868	-1.952015	-0.016172	-0.009695	-0.022229	-0.579590	0.500488	0.336182	0.372039	-0.692537	-0.347715	-0.510954
62114		9.477227	-1.633945	-1.874163	-0.022172	-0.007517	-0.013913	-0.570068	0.502197	0.330322	0.371735	-0.692674	-0.347555	-0.511098
62115		9.477551	-1.605487	-1.888923	-0.018579	-0.001122	-0.012104	-0.570068	0.498779	0.330811	0.371516	-0.692762	-0.347381	-0.511256
62116		9.462725	-1.605230	-1.896282	-0.020739	0.000043	-0.010991	-0.578369	0.507080	0.334961	0.371286	-0.692857	-0.347176	-0.511433
62117		9.435933	-1.588268	-1.944412	-0.023452	-0.001664	-0.003426	-0.573486	0.504639	0.338623	0.371075	-0.693008	-0.346898	-0.511570
62118		9.454861	-1.586488	-1.959895	-0.026450	0.004578	-0.001310	-0.570801	0.503662	0.333740	0.370870	-0.693153	-0.346537	-0.511769
62119		9.511008	-1.546705	-1.889331	-0.018574	0.003761	-0.012182	-0.572754	0.501465	0.331543	0.370669	-0.693212	-0.346337	-0.511968
62120		9.459309	-1.545952	-1.955735	-0.004859	-0.000957	-0.020445	-0.574463	0.498779	0.332520	0.370516	-0.693196	-0.346328	-0.512107
62121		9.460219	-1.602044	-1.923730	-0.007866	0.002242	-0.019602	-0.576660	0.497803	0.328857	0.370353	-0.693176	-0.346276	-0.512288
62122		9.456159	-1.635588	-1.936072	-0.003428	0.002956	-0.014830	-0.573242	0.500488	0.336426	0.370268	-0.693143	-0.346221	-0.512431
62123		9.480488	-1.642388	-1.867353	-0.001557	0.001260	-0.018654	-0.570557	0.498047	0.334229	0.370154	-0.693114	-0.346191	-0.512573
62124		9.467740	-1.612820	-1.922788	0.002966	-0.000788	-0.016670	-0.564941	0.504150	0.332031	0.370086	-0.693084	-0.346186	-0.512666
62125		9.464657	-1.580653	-1.869603	0.005025	-0.000707	-0.020902	-0.578125	0.500000	0.335938	0.370022	-0.693030	-0.346236	-0.512752
62126		9.462529	-1.596850	-1.924792	0.003885	0.000793	-0.023883	-0.577148	0.495605	0.341553	0.369920	-0.692949	-0.346295	-0.512894
62127		9.490754	-1.654841	-1.851767	0.008598	-0.000386	-0.021637	-0.577637	0.496094	0.331299	0.369850	-0.692876	-0.346345	-0.513010
62128		9.476444	-1.616729	-1.922010	0.007743	-0.000474	-0.023859	-0.578125	0.496582	0.345947	0.369784	-0.692777	-0.346449	-0.513120
62129		9.480385	-1.590354	-1.866134	0.019885	0.000124	-0.024322	-0.570068	0.496582	0.332031	0.369787	-0.692646	-0.346575	-0.513211
62130		9.455669	-1.566858	-1.859030	0.012826	0.001905	-0.022434	-0.571533	0.507080	0.330078	0.369783	-0.692526	-0.346677	-0.513306
62131		9.477140	-1.544515	-1.870467	0.005366	0.006198	-0.027713	-0.572754	0.495850	0.335693	0.369718	-0.692389	-0.346772	-0.513474
62132		9.462740	-1.516417	-1.844585	0.018256	-0.006136	-0.036133	-0.581543	0.501465	0.338135	0.369627	-0.692241	-0.347050	-0.513550
62133		9.478446	-1.583433	-1.898355	0.019293	-0.007291	-0.035610	-0.572021	0.499268	0.327637	0.369545	-0.692096	-0.347339	-0.513610
62134		9.515502	-1.604884	-1.879179	0.002069	0.001265	-0.027517	-0.578125	0.499023	0.333740	0.369428	-0.691999	-0.347440	-0.513757
62135		9.501217	-1.590562	-1.891507	0.005662	0.002207	-0.021670	-0.567627	0.502197	0.328369	0.369367	-0.691911	-0.347489	-0.513886
62136		9.496115	-1.639486	-1.814443	0.023583	0.011720	-0.028937	-0.569092	0.504883	0.330078	0.369475	-0.691651	-0.347684	-0.514026
62137		9.445456	-1.523679	-1.882743	0.033211	0.002979	-0.029352	-0.568115	0.499023	0.334229	0.369624	-0.691405	-0.347979	-0.514050
62138		9.478704	-1.518899	-1.853744	0.023451	-0.002484	-0.026385	-0.573242	0.492188	0.334229	0.369663	-0.691262	-0.348185	-0.514075
62139		9.508706	-1.522715	-1.842393	0.019004	-0.000171	-0.029900	-0.576904	0.501709	0.329834	0.369640	-0.691101	-0.348382	-0.514174
62140		9.499390	-1.482633	-1.879619	0.022648	0.005620	-0.028941	-0.572754	0.504639	0.326904	0.369705	-0.690880	-0.348598	-0.514279
62141		9.511385	-1.522816	-1.832905	0.021537	0.000441	-0.030513	-0.583496	0.494629	0.331299	0.369741	-0.690691	-0.348853	-0.514334
62142		9.507004	-1.505664	-1.826768	0.029965	-0.009797	-0.030369	-0.576172	0.503906	0.332275	0.369776	-0.690522	-0.349191	-0.514305
62143		9.453216	-1.485290	-1.870300	0.022423	-0.002775	-0.022316	-0.578369	0.501709	0.335938	0.369840	-0.690395	-0.349373	-0.514306
62144		9.480611	-1.446213	-1.893669	0.001708	0.001370	-0.018877	-0.589111	0.498535	0.337402	0.369751	-0.690358	-0.349356	-0.514432
62145		9.475232	-1.393286	-1.861980	0.001043	0.000012	-0.022788	-0.570801	0.494629	0.328125	0.369615	-0.690303	-0.349380	-0.514588
62146		9.514285	-1.421840	-1.827079	0.005301	0.001388	-0.038303	-0.573242	0.490234	0.334229	0.369446	-0.690153	-0.349575	-0.514778
62147		9.515253	-1.466435	-1.853928	0.016408	-0.001901	-0.042552	-0.578369	0.496826	0.332520	0.369306	-0.689965	-0.349863	-0.514934
62148		9.489311	-1.534710	-1.863906	0.007983	-0.001658	-0.030465	-0.586426	0.498779	0.334473	0.369187	-0.689860	-0.350012	-0.515059
62149		9.503338	-1.595145	-1.842914	-0.010746	-0.006822	-0.018171	-0.591553	0.500977	0.334717	0.368959	-0.689923	-0.349960	-0.515173
62150		9.524648	-1.544585	-1.817219	-0.000208	-0.005113	-0.014730	-0.582520	0.499268	0.333008	0.368855	-0.689936	-0.349947	-0.515239
62151		9.546472	-1.507294	-1.828704	0.018857	-0.002732	-0.018314	-0.579834	0.497070	0.331055	0.368907	-0.689838	-0.350072	-0.515249
62152		9.454284	-1.452652	-1.861018	0.014571	0.002545	-0.019625	-0.580811	0.498047	0.333496	0.368939	-0.689718	-0.350159	-0.515327
62153		9.485086	-1.416110	-1.859946	0.009449	0.004685	-0.024433	-0.581299	0.490967	0.333984	0.368898	-0.689593	-0.350234	-0.515473
62154		9.499723	-1.399689	-1.912028	0.006819	0.003502	-0.025615	-0.577393	0.492432	0.332031	0.368809	-0.689480	-0.350300	-0.515642
62155		9.506234	-1.416450	-1.866253	-0.002200	0.002030	-0.025545	-0.582520	0.502686	0.326416	0.368646	-0.689422	-0.350319	-0.515824
62156		9.495266	-1.416651	-1.849941	-0.011159	-0.006428	-0.027339	-0.575928	0.498291	0.333252	0.368392	-0.689433	-0.350380	-0.515949
62157		9.519703	-1.473846	-1.855529	-0.008592	-0.008548	-0.025916	-0.578613	0.502686	0.335449	0.368132	-0.689479	-0.350407	-0.516055
62158		9.513692	-1.473283	-1.852858	-0.020040	-0.000666	-0.021170	-0.576416	0.485596	0.324707	0.367839	-0.689552	-0.350280	-0.516253
62159		9.481889	-1.532941	-1.813291	-0.011777	-0.006568	-0.018057	-0.580322	0.497559	0.333496	0.367623	-0.689601	-0.350252	-0.516359
62160		9.501948	-1.540785	-1.912011	0.008084	-0.000386	-0.022129	-0.579834	0.500732	0.333252	0.367569	-0.689527	-0.350325	-0.516447
62161		9.490934	-1.422648	-1.846380	0.003397	0.004976	-0.025315	-0.575439	0.498779	0.335693	0.367484	-0.689428	-0.350374	-0.516607
62162		9.470111	-1.371916	-1.821275	0.010453	-0.006371	-0.032836	-0.576416	0.491211	0.338623	0.367350	-0.689350	-0.350565	-0.516676
62163		9.494685	-1.349742	-1.902290	0.007277	-0.014063	-0.045999	-0.574463	0.500977	0.333252	0.367049	-0.689282	-0.350865	-0.516778
62164		9.508394	-1.315003	-1.875328	0.004211	-0.009992	-0.045845	-0.574951	0.485596	0.333740	0.366775	-0.689197	-0.351156	-0.516888
62165		9.572613	-1.415670	-1.885109	0.001986	-0.013381	-0.047115	-0.582031	0.491699	0.335449	0.366435	-0.689128	-0.351453	-0.517019
62166		9.559707	-1.552018	-1.794082	-0.006179	-0.003908	-0.036579	-0.583252	0.486328	0.331299	0.366138	-0.689080	-0.351566	-0.517216
62167		9.496953	-1.623675	-1.820426	-0.005373	-0.005958	-0.016029	-0.580811	0.500732	0.335449	0.365979	-0.689114	-0.351541	-0.517301
62168		9.479340	-1.551434	-1.822937	0.006104	-0.008669	-0.006964	-0.585205	0.488281	0.332764	0.365974	-0.689181	-0.351501	-0.517242
62169		9.521442	-1.440688	-1.857587	0.004562	-0.006790	-0.008535	-0.583496	0.491943	0.332275	0.365944	-0.689210	-0.351475	-0.517243
62170		9.515748	-1.373378	-1.825762	0.014614	-0.009116	-0.016656	-0.585938	0.496826	0.337646	0.365946	-0.689176	-0.351595	-0.517204
62171		9.494083	-1.367547	-1.879887	0.025300	-0.003119	-0.023823	-0.578369	0.495117	0.340576	0.366006	-0.689040	-0.351794	-0.517208
62172		9.521479	-1.393968	-1.923969	0.024632	-0.002050	-0.022491	-0.590332	0.486084	0.333740	0.366062	-0.688927	-0.351943	-0.517218
62173		9.534827	-1.419466	-1.877017	0.015339	-0.006552	-0.014946	-0.583740	0.490479	0.331543	0.366076	-0.688870	-0.352042	-0.517216
62174		9.496349	-1.381584	-1.867267	0.007742	0.000040	-0.010146	-0.583496	0.496338	0.330322	0.366100	-0.688836	-0.352022	-0.517259
62175		9.489159	-1.361353	-1.875780	-0.002032	0.001390	-0.005236	-0.586914	0.481934	0.332275	0.366091	-0.688861	-0.351898	-0.517316
62176		9.497197	-1.349311	-1.873188	0.003367	-0.014664	-0.008998	-0.579346	0.493164	0.334717	0.366002	-0.688936	-0.351906	-0.517273
62177		9.514869	-1.418135	-1.919675	0.009534	-0.009755	-0.003989	-0.586426	0.483154	0.331299	0.366032	-0.689004	-0.351867	-0.517189
62178		9.533263	-1.458913	-1.924013	0.004973	0.002166	0.002939	-0.586670	0.492188	0.332520	0.366116	-0.689013	-0.351713	-0.517222
62179		9.528350	-1.336114	-1.810239	-0.010419	0.001492	0.006935	-0.583496	0.488770	0.332520	0.366098	-0.689125	-0.351424	-0.517281
62180		9.505930	-1.334745	-1.864785	-0.004371	-0.009564	-0.000463	-0.580322	0.493896	0.336914	0.366032	-0.689251	-0.351282	-0.517256
62181		9.483274	-1.456232	-1.930244	0.010399	0.000624	-0.004982	-0.577637	0.496826	0.329590	0.366100	-0.689248	-0.351201	-0.517268
62182		9.462907	-1.408131	-1.940810	0.004191	0.003559	0.001813	-0.587402	0.491943	0.334473	0.366208	-0.689266	-0.351049	-0.517270
62183		9.502678	-1.385169	-1.870736	-0.000669	-0.004082	0.002953	-0.585205	0.489746	0.328125	0.366215	-0.689356	-0.350874	-0.517265
62184		9.555090	-1.475052	-1.866235	-0.001139	-0.004275	0.002600	-0.582764	0.499268	0.328125	0.366239	-0.689427	-0.350736	-0.517247
62185		9.496343	-1.457435	-1.798191	0.005326	0.005100	0.006090	-0.579346	0.491699	0.330078	0.366400	-0.689434	-0.350568	-0.517236
62186		9.484068	-1.402657	-1.938533	0.006695	0.002363	0.007400	-0.580811	0.494141	0.332520	0.366548	-0.689466	-0.350388	-0.517211
62187		9.500804	-1.353657	-1.889464	0.007695	0.001540	0.000633	-0.584229	0.495117	0.335449	0.366649	-0.689476	-0.350265	-0.517209
62188		9.535813	-1.426983	-1.866966	0.004737	-0.002306	-0.000381	-0.573730	0.491211	0.323486	0.366690	-0.689525	-0.350137	-0.517202
62189		9.521323	-1.497196	-1.848552	0.004112	0.004478	0.005970	-0.584717	0.495361	0.333008	0.366843	-0.689535	-0.349976	-0.517189
62190		9.504768	-1.465691	-1.828574	0.008243	0.004430	0.004722	-0.581543	0.496094	0.323975	0.366985	-0.689537	-0.349811	-0.517198
62191		9.444602	-1.401064	-1.874965	0.017446	0.004720	0.002932	-0.586182	0.494141	0.324463	0.367236	-0.689462	-0.349770	-0.517146
62192		9.478147	-1.384516	-1.843764	0.012808	0.003989	-0.002798	-0.578369	0.491943	0.331787	0.367395	-0.689382	-0.349750	-0.517154
62193		9.530793	-1.420552	-1.900346	0.013568	-0.005247	-0.008632	-0.583496	0.494873	0.321533	0.367450	-0.689371	-0.349770	-0.517117
62194		9.546342	-1.468747	-1.876190	0.016799	0.000050	-0.005580	-0.578857	0.498047	0.327148	0.367622	-0.689281	-0.349833	-0.517072
62195		9.515746	-1.557671	-1.821219	0.020046	-0.003115	-0.005492	-0.577881	0.493408	0.344727	0.367797	-0.689225	-0.349895	-0.516979
62196		9.466433	-1.513076	-1.836969	0.030437	-0.005207	-0.003605	-0.573975	0.494141	0.328369	0.367979	-0.689205	-0.349901	-0.516873
62197		9.477314	-1.441628	-1.878403	0.020317	-0.000451	-0.000826	-0.580811	0.498291	0.327148	0.368183	-0.689164	-0.349890	-0.516790
62198		9.519604	-1.480866	-1.863972	0.018222	0.002150	0.001405	-0.578125	0.501465	0.326660	0.368404	-0.689111	-0.349854	-0.516727
62199		9.489981	-1.420800	-1.891960	0.011329	0.000719	0.007851	-0.584961	0.497070	0.335693	0.368613	-0.689131	-0.349730	-0.516635
62200		9.508212	-1.421374	-1.817063	0.001775	-0.000100	0.011764	-0.578857	0.495361	0.323730	0.368703	-0.689237	-0.349456	-0.516615
62201		9.502382	-1.466899	-1.838854	0.009928	-0.012256	0.008096	-0.581787	0.495605	0.327881	0.368836	-0.689335	-0.349386	-0.516436
62202		9.488223	-1.428264	-1.895155	0.007524	-0.009283	0.006922	-0.577637	0.501221	0.332520	0.368933	-0.689430	-0.349275	-0.516316
62203		9.484519	-1.438757	-1.868813	0.002106	-0.005010	0.007961	-0.584229	0.488281	0.332764	0.369011	-0.689548	-0.349081	-0.516233
62204		9.527947	-1.474360	-1.892563	0.008723	-0.005033	-0.000530	-0.582275	0.497803	0.331299	0.369040	-0.689589	-0.348979	-0.516228
62205		9.505116	-1.553662	-1.834101	0.011523	-0.002956	0.000893	-0.577881	0.500000	0.329834	0.369150	-0.689607	-0.348901	-0.516177
62206		9.490005	-1.571430	-1.834431	0.014356	-0.006618	0.007934	-0.583008	0.500732	0.331543	0.369331	-0.689669	-0.348806	-0.516028
62207		9.489842	-1.492164	-1.858056	0.018467	-0.004539	0.008623	-0.580566	0.495117	0.328857	0.369549	-0.689699	-0.348717	-0.515893
62208		9.497527	-1.484244	-1.854285	0.018898	-0.003736	0.004979	-0.582764	0.501221	0.326416	0.369744	-0.689700	-0.348660	-0.515790
62209		9.493218	-1.470978	-1.885017	0.026913	-0.008308	-0.000839	-0.579590	0.499268	0.321777	0.369978	-0.689656	-0.348755	-0.515617
62210		9.482474	-1.556570	-1.881616	0.028716	-0.005100	-0.004801	-0.577148	0.502441	0.329346	0.370231	-0.689554	-0.348904	-0.515471
62211		9.498247	-1.524515	-1.879750	0.021817	0.000739	0.001966	-0.582031	0.499268	0.337158	0.370473	-0.689508	-0.348877	-0.515377
62212		9.517171	-1.537548	-1.842423	0.015771	0.000342	0.009969	-0.577881	0.498047	0.319824	0.370658	-0.689550	-0.348686	-0.515317
62213		9.512291	-1.458653	-1.806924	0.015522	0.004329	0.009604	-0.576172	0.504395	0.341797	0.370931	-0.689508	-0.348585	-0.515245
62214		9.492222	-1.425403	-1.855866	0.023139	-0.002601	-0.003341	-0.579834	0.496826	0.331543	0.371082	-0.689504	-0.348544	-0.515170
62215		9.501111	-1.480889	-1.871287	0.018484	-0.001243	-0.007111	-0.579102	0.498779	0.339355	0.371185	-0.689453	-0.348549	-0.515160
62216		9.518725	-1.590991	-1.858082	0.011808	-0.004825	-0.001651	-0.577637	0.502930	0.325439	0.371222	-0.689512	-0.348430	-0.515136
62217		9.479931	-1.608915	-1.831144	0.016319	-0.010076	0.000602	-0.573486	0.508301	0.327637	0.371367	-0.689542	-0.348447	-0.514978
62218		9.470720	-1.554361	-1.816608	0.019651	-0.005387	0.002774	-0.580078	0.502930	0.321289	0.371588	-0.689553	-0.348436	-0.514811
62219		9.459116	-1.520796	-1.811390	0.019475	-0.003565	-0.004372	-0.572754	0.499268	0.337158	0.371770	-0.689486	-0.348514	-0.514718
62220		9.477016	-1.549966	-1.867043	0.019460	-0.011128	-0.007983	-0.578125	0.502930	0.322754	0.371818	-0.689525	-0.348534	-0.514617
62221		9.515820	-1.584771	-1.876927	0.017566	0.003816	-0.006163	-0.577637	0.504639	0.331787	0.371998	-0.689420	-0.348568	-0.514605
62222		9.497294	-1.531823	-1.878625	0.013327	0.006619	-0.002117	-0.574707	0.507324	0.332031	0.372143	-0.689372	-0.348465	-0.514634
62223		9.493923	-1.528136	-1.856630	-0.002975	-0.001734	0.000962	-0.576172	0.503418	0.324219	0.372142	-0.689473	-0.348271	-0.514631
62224		9.494958	-1.511076	-1.855464	0.007817	-0.003313	-0.004133	-0.582520	0.501465	0.338379	0.372213	-0.689479	-0.348243	-0.514590
62225		9.475074	-1.567559	-1.831298	0.022764	-0.009187	-0.014376	-0.576416	0.514893	0.323975	0.372242	-0.689451	-0.348332	-0.514546
62226		9.485865	-1.576781	-1.895366	0.022948	-0.001967	-0.013150	-0.577637	0.502930	0.329346	0.372431	-0.689340	-0.348496	-0.514447
62227		9.504965	-1.573407	-1.865161	-0.003562	0.002282	-0.006122	-0.581787	0.497803	0.332031	0.372386	-0.689372	-0.348349	-0.514536
62228		9.479617	-1.564276	-1.807578	0.002848	-0.000395	-0.008681	-0.576172	0.499268	0.319580	0.372332	-0.689384	-0.348253	-0.514625
62229		9.506261	-1.539310	-1.825538	0.020733	-0.005386	-0.014370	-0.579102	0.501221	0.327881	0.372446	-0.689280	-0.348429	-0.514563
62230		9.477870	-1.500693	-1.886619	0.009804	-0.002595	-0.012423	-0.576904	0.500488	0.319092	0.372452	-0.689246	-0.348451	-0.514588
62231		9.479510	-1.575249	-1.854867	0.000791	-0.002053	-0.010330	-0.573486	0.505615	0.322510	0.372439	-0.689229	-0.348455	-0.514618
62232		9.499398	-1.596551	-1.857118	0.003370	-0.005359	-0.011526	-0.578125	0.504150	0.328125	0.372435	-0.689236	-0.348485	-0.514591
62233		9.492797	-1.545426	-1.827141	0.005365	-0.000980	-0.011940	-0.576416	0.501221	0.321777	0.372426	-0.689217	-0.348473	-0.514631
62234		9.487574	-1.531938	-1.821512	0.004213	-0.004330	-0.009988	-0.578613	0.503418	0.323730	0.372425	-0.689213	-0.348487	-0.514628
62235		9.493754	-1.552913	-1.821815	0.000654	-0.004730	-0.009213	-0.578613	0.504639	0.331543	0.372393	-0.689234	-0.348468	-0.514635
62236		9.487902	-1.487709	-1.880233	-0.003787	-0.004345	-0.011351	-0.580811	0.496582	0.326904	0.372281	-0.689295	-0.348385	-0.514691
62237		9.493650	-1.495939	-1.887480	-0.003788	-0.004343	-0.011352	-0.580811	0.499268	0.330566	0.372152	-0.689335	-0.348315	-0.514778
62238		9.508067	-1.585897	-1.815670	-0.006430	-0.004663	-0.013192	-0.577148	0.500000	0.327393	0.371983	-0.689395	-0.348228	-0.514878
62239		9.506821	-1.587938	-1.824930	-0.004000	-0.000953	-0.007727	-0.572998	0.501221	0.324951	0.371913	-0.689436	-0.348117	-0.514949
62240		9.476248	-1.541426	-1.856298	-0.004664	0.000109	-0.006389	-0.576904	0.497803	0.322510	0.371875	-0.689475	-0.348005	-0.515000
62241		9.467074	-1.512545	-1.835430	-0.000700	0.003431	-0.008877	-0.578369	0.501221	0.329834	0.371861	-0.689447	-0.347937	-0.515094
62242		9.506928	-1.515311	-1.805433	0.000219	-0.002828	-0.012471	-0.579590	0.500488	0.332275	0.371780	-0.689468	-0.347890	-0.515157
62243		9.490885	-1.494143	-1.870802	0.002728	-0.005187	-0.009512	-0.581055	0.504395	0.326904	0.371713	-0.689513	-0.347825	-0.515189
62244		9.488484	-1.554613	-1.870081	0.009886	-0.006188	-0.009694	-0.570801	0.504639	0.321533	0.371744	-0.689504	-0.347867	-0.515150
62245		9.491086	-1.490112	-1.872997	0.003000	-0.004947	-0.010105	-0.584229	0.507080	0.331787	0.371765	-0.689511	-0.347898	-0.515104
62246		9.499957	-1.530465	-1.851089	0.000319	-0.001017	-0.008063	-0.579102	0.502441	0.325684	0.371729	-0.689534	-0.347815	-0.515156
62247		9.479845	-1.491784	-1.812757	0.009505	-0.010007	-0.007299	-0.583252	0.496826	0.333740	0.371757	-0.689560	-0.347854	-0.515074
62248		9.486553	-1.498049	-1.857693	0.003644	-0.013218	-0.006891	-0.578857	0.503418	0.328369	0.371648	-0.689665	-0.347790	-0.515055
62249		9.497187	-1.547253	-1.866325	-0.001954	-0.000512	-0.008710	-0.571045	0.504883	0.330566	0.371601	-0.689687	-0.347709	-0.515115
62250		9.512047	-1.571316	-1.899953	-0.004373	-0.000562	-0.006295	-0.571045	0.496094	0.322510	0.371560	-0.689753	-0.347575	-0.515147
62251		9.503372	-1.553097	-1.828351	0.002584	-0.002737	-0.010048	-0.573975	0.501221	0.325684	0.371546	-0.689751	-0.347565	-0.515166
62252		9.498429	-1.552841	-1.861385	0.014221	-0.009577	-0.014610	-0.574951	0.500977	0.336426	0.371576	-0.689727	-0.347694	-0.515090
62253		9.452310	-1.537337	-1.849378	0.013674	0.000507	-0.013418	-0.577637	0.500488	0.327881	0.371595	-0.689690	-0.347678	-0.515135
62254		9.478035	-1.569552	-1.857002	0.010774	-0.005176	-0.013014	-0.570801	0.502441	0.326660	0.371602	-0.689665	-0.347732	-0.515127
62255		9.494597	-1.517197	-1.856195	0.014237	-0.014687	-0.012964	-0.580322	0.501953	0.328125	0.371627	-0.689691	-0.347864	-0.514986
62256		9.504109	-1.569187	-1.828124	0.010878	-0.000366	-0.012201	-0.576416	0.501465	0.327393	0.371661	-0.689634	-0.347894	-0.515017
62257		9.506243	-1.534943	-1.869398	0.012804	-0.001380	-0.009435	-0.575684	0.498047	0.326904	0.371734	-0.689591	-0.347919	-0.515006
62258		9.494685	-1.526600	-1.813429	0.006986	0.004141	-0.007636	-0.585449	0.500244	0.323242	0.371779	-0.689547	-0.347856	-0.515074
62259		9.467948	-1.497352	-1.903152	0.007221	-0.001366	-0.013206	-0.575684	0.498291	0.326904	0.371775	-0.689482	-0.347908	-0.515129
62260		9.486991	-1.521398	-1.867492	0.006043	0.005522	-0.014560	-0.579102	0.503418	0.320801	0.371774	-0.689405	-0.347891	-0.515244
62261		9.507884	-1.511672	-1.828893	0.006404	-0.003296	-0.014061	-0.573486	0.499268	0.327148	0.371792	-0.689350	-0.347983	-0.515242
62262		9.516145	-1.498497	-1.826020	0.022791	-0.009921	-0.013774	-0.579590	0.502686	0.326660	0.371881	-0.689304	-0.348138	-0.515135
62263		9.486589	-1.518107	-1.876759	0.004063	0.002359	-0.011517	-0.571289	0.500244	0.329102	0.371883	-0.689262	-0.348114	-0.515206
62264		9.478537	-1.512791	-1.842481	-0.007882	0.000187	-0.007732	-0.573242	0.499268	0.328613	0.371790	-0.689332	-0.347959	-0.515285
62265		9.494811	-1.558446	-1.818726	0.009433	-0.010904	-0.017267	-0.575439	0.502686	0.327393	0.371730	-0.689346	-0.348051	-0.515246
62266		9.483416	-1.535703	-1.898299	0.009630	-0.010939	-0.016330	-0.577393	0.499268	0.323975	0.371698	-0.689352	-0.348161	-0.515187
62267		9.485179	-1.526653	-1.847118	-0.004380	-0.006010	-0.007955	-0.573730	0.497559	0.331299	0.371618	-0.689411	-0.348103	-0.515206
62268		9.501339	-1.503222	-1.840685	-0.006234	-0.003502	-0.009629	-0.583496	0.494141	0.329834	0.371482	-0.689495	-0.347969	-0.515282
62269		9.515042	-1.529697	-1.838212	0.004472	-0.001050	-0.014214	-0.580566	0.497070	0.329590	0.371389	-0.689472	-0.347936	-0.515401
62270		9.466391	-1.537197	-1.880502	0.012223	-0.003348	-0.014221	-0.576416	0.502197	0.328857	0.371377	-0.689430	-0.347977	-0.515439
62271		9.487261	-1.499262	-1.848097	-0.002677	-0.001863	-0.007787	-0.573730	0.501709	0.321045	0.371324	-0.689477	-0.347881	-0.515479
62272		9.535082	-1.533912	-1.848441	-0.004228	-0.008449	-0.007423	-0.577393	0.500977	0.325928	0.371281	-0.689541	-0.347870	-0.515431
62273		9.499017	-1.558556	-1.850555	0.006035	-0.000451	-0.007379	-0.580566	0.498779	0.333252	0.371323	-0.689523	-0.347846	-0.515442
62274		9.475454	-1.488739	-1.840192	-0.000676	-0.002594	-0.006552	-0.573975	0.494385	0.327637	0.371241	-0.689586	-0.347709	-0.515510
62275		9.488515	-1.475439	-1.850225	0.007468	-0.007400	-0.009940	-0.576172	0.505615	0.329346	0.371211	-0.689612	-0.347707	-0.515497
62276		9.519887	-1.518649	-1.864613	0.009379	-0.002415	-0.014376	-0.584473	0.500000	0.326904	0.371235	-0.689577	-0.347761	-0.515490
62277		9.489473	-1.539519	-1.833695	0.004043	0.001160	-0.014165	-0.574463	0.501221	0.327148	0.371195	-0.689522	-0.347766	-0.515589
62278		9.499285	-1.522804	-1.865895	0.007579	-0.000501	-0.012042	-0.581787	0.495361	0.323975	0.371222	-0.689488	-0.347782	-0.515605
62279		9.488831	-1.538694	-1.842295	0.007681	-0.006556	-0.014548	-0.583252	0.495117	0.320557	0.371176	-0.689458	-0.347855	-0.515629
62280		9.488452	-1.551903	-1.844475	0.015041	-0.002457	-0.020332	-0.577637	0.500000	0.324951	0.371190	-0.689323	-0.348038	-0.515676
62281		9.472515	-1.528631	-1.864516	0.009772	-0.003695	-0.015135	-0.579346	0.497070	0.330566	0.371201	-0.689272	-0.348125	-0.515678
62282		9.483816	-1.534292	-1.838733	0.006510	0.000639	-0.012591	-0.579102	0.495117	0.330811	0.371164	-0.689247	-0.348085	-0.515764
62283		9.522155	-1.513749	-1.867936	0.005195	-0.008109	-0.013222	-0.578613	0.495850	0.326172	0.371062	-0.689286	-0.348071	-0.515795
62284		9.484193	-1.529994	-1.885189	0.009003	-0.003222	-0.015586	-0.576172	0.511230	0.330322	0.371035	-0.689241	-0.348128	-0.515837
62285		9.467514	-1.522486	-1.862284	0.008464	-0.003699	-0.014399	-0.587646	0.500732	0.326172	0.371074	-0.689222	-0.348194	-0.515789
62286		9.484451	-1.510537	-1.848463	0.001933	-0.003777	-0.010678	-0.581055	0.503662	0.327637	0.371020	-0.689217	-0.348188	-0.515838
62287		9.503250	-1.507521	-1.864501	0.010893	-0.006620	-0.013226	-0.578369	0.498535	0.340332	0.371039	-0.689194	-0.348272	-0.515799
62288		9.473327	-1.484729	-1.883091	0.014981	-0.005699	-0.015212	-0.577637	0.498291	0.326172	0.370983	-0.689211	-0.348254	-0.515828
62289		9.493772	-1.447912	-1.895805	0.005481	-0.003338	-0.011477	-0.585693	0.499268	0.327881	0.370969	-0.689201	-0.348264	-0.515845
62290		9.505971	-1.463696	-1.819092	-0.003218	-0.002689	-0.014791	-0.582275	0.494629	0.335693	0.370836	-0.689208	-0.348235	-0.515951
62291		9.502976	-1.500213	-1.876387	0.009481	-0.008427	-0.016911	-0.585693	0.495117	0.328125	0.370709	-0.689234	-0.348238	-0.516006
62292		9.475757	-1.498256	-1.917341	0.002683	0.001191	-0.008583	-0.581055	0.503418	0.324219	0.370664	-0.689217	-0.348163	-0.516112
62293		9.510967	-1.529115	-1.824634	-0.013218	0.000705	-0.003903	-0.582764	0.497070	0.336914	0.370591	-0.689280	-0.348013	-0.516180
62294		9.519085	-1.488079	-1.826760	-0.004696	-0.003233	-0.006111	-0.572998	0.493164	0.327148	0.370439	-0.689389	-0.347806	-0.516283
62295		9.470048	-1.526214	-1.864244	0.001965	-0.003460	-0.007360	-0.578125	0.499512	0.332520	0.370405	-0.689426	-0.347738	-0.516304
62296		9.484513	-1.507809	-1.866177	0.002219	-0.007737	-0.010306	-0.575928	0.500488	0.334229	0.370320	-0.689496	-0.347685	-0.516308
62297		9.526277	-1.518754	-1.867081	0.009528	-0.003586	-0.011243	-0.578613	0.505371	0.326660	0.370309	-0.689514	-0.347652	-0.516314
62298		9.484447	-1.489396	-1.830179	0.008049	-0.005684	-0.013385	-0.584473	0.491211	0.327393	0.370333	-0.689494	-0.347734	-0.516268
62299		9.480232	-1.529739	-1.850931	0.009720	-0.006047	-0.015576	-0.580811	0.505371	0.334473	0.370265	-0.689456	-0.347801	-0.516322
62300		9.502070	-1.545210	-1.845190	0.009482	-0.007191	-0.014291	-0.573486	0.488770	0.332764	0.370230	-0.689476	-0.347827	-0.516303
62301		9.497834	-1.499421	-1.881651	0.007688	-0.001987	-0.012236	-0.579346	0.496582	0.330322	0.370163	-0.689486	-0.347764	-0.516381
62302		9.494371	-1.479376	-1.822320	0.011744	0.001062	-0.012284	-0.579346	0.504883	0.332520	0.370186	-0.689431	-0.347766	-0.516436
62303		9.506810	-1.452851	-1.838815	0.004894	-0.008623	-0.015980	-0.581299	0.499023	0.329834	0.370106	-0.689469	-0.347796	-0.516422
62304		9.481497	-1.488004	-1.904640	0.008850	-0.004946	-0.015184	-0.580322	0.505615	0.321533	0.370070	-0.689447	-0.347847	-0.516443
62305		9.500057	-1.528212	-1.871995	-0.003562	-0.003208	-0.012669	-0.575195	0.502686	0.334717	0.370044	-0.689437	-0.347891	-0.516445
62306		9.527437	-1.496945	-1.883376	0.002884	-0.009987	-0.014297	-0.579346	0.503662	0.327393	0.369940	-0.689519	-0.347874	-0.516423
62307		9.498081	-1.486235	-1.895498	0.009321	-0.003521	-0.012206	-0.574951	0.499023	0.329834	0.369980	-0.689487	-0.347934	-0.516396
62308		9.482423	-1.489487	-1.821265	-0.004099	-0.003690	-0.011479	-0.575195	0.492676	0.326660	0.369880	-0.689544	-0.347862	-0.516440
62309		9.474696	-1.454994	-1.919343	0.002090	-0.004099	-0.013087	-0.574463	0.502686	0.332520	0.369813	-0.689548	-0.347863	-0.516481
62310		9.485483	-1.505987	-1.890134	0.003129	-0.001012	-0.013528	-0.571289	0.496338	0.332520	0.369777	-0.689560	-0.347827	-0.516515
62311		9.524336	-1.541033	-1.863239	0.001025	0.001544	-0.011279	-0.574219	0.509766	0.324951	0.369726	-0.689581	-0.347728	-0.516591
62312		9.484256	-1.506780	-1.816419	-0.000010	0.005068	-0.011415	-0.583252	0.487549	0.332275	0.369789	-0.689536	-0.347721	-0.516611
62313		9.499384	-1.501617	-1.855107	0.011329	-0.007528	-0.010690	-0.572754	0.498291	0.335449	0.369720	-0.689548	-0.347712	-0.516649
62314		9.505825	-1.465268	-1.865495	0.015483	-0.000580	-0.009241	-0.580078	0.500000	0.324707	0.369784	-0.689539	-0.347675	-0.516641
62315		9.479117	-1.447794	-1.904466	0.009289	-0.004690	-0.009983	-0.578369	0.499756	0.332520	0.369834	-0.689509	-0.347741	-0.516601
62316		9.511839	-1.444166	-1.877306	0.002803	0.000891	-0.006121	-0.589844	0.504395	0.326660	0.369827	-0.689536	-0.347625	-0.516648
62317		9.500545	-1.420855	-1.865274	-0.010478	0.000381	-0.002902	-0.582764	0.508545	0.322021	0.369757	-0.689590	-0.347475	-0.516727
62318		9.490142	-1.497669	-1.875344	-0.002082	-0.001986	-0.004972	-0.570312	0.502686	0.331299	0.369805	-0.689597	-0.347463	-0.516692
62319		9.499916	-1.509521	-1.857717	-0.001213	0.003537	-0.005953	-0.578369	0.505371	0.326172	0.369823	-0.689630	-0.347329	-0.516725
62320		9.489299	-1.528394	-1.878313	0.002098	-0.004972	-0.007529	-0.578857	0.492432	0.330078	0.369846	-0.689655	-0.347330	-0.516674
62321		9.479260	-1.530743	-1.897567	0.008827	0.000838	-0.005344	-0.571533	0.493408	0.330078	0.369875	-0.689643	-0.347253	-0.516721
62322		9.494294	-1.540437	-1.847756	0.010165	-0.000042	-0.005401	-0.576416	0.502686	0.329102	0.369936	-0.689642	-0.347190	-0.516721
62323		9.518814	-1.490288	-1.834657	0.021802	-0.002491	-0.011015	-0.576416	0.492432	0.326660	0.370089	-0.689564	-0.347299	-0.516642
62324		9.500419	-1.519784	-1.858662	0.028859	-0.003964	-0.013036	-0.577148	0.496094	0.329590	0.370245	-0.689444	-0.347468	-0.516576
62325		9.467316	-1.508718	-1.892579	0.014479	-0.000034	-0.005771	-0.575195	0.505615	0.324463	0.370337	-0.689413	-0.347444	-0.516569
62326		9.491452	-1.474257	-1.836074	0.006888	0.000959	-0.002559	-0.572021	0.497314	0.323486	0.370474	-0.689398	-0.347415	-0.516510
62327		9.524227	-1.427467	-1.857162	0.031132	-0.004420	-0.012410	-0.578125	0.504639	0.324219	0.370704	-0.689264	-0.347634	-0.516376
62328		9.470664	-1.467153	-1.880682	0.014505	-0.003358	-0.010359	-0.578857	0.496338	0.325439	0.370822	-0.689204	-0.347738	-0.516302
62329		9.486869	-1.502215	-1.862926	-0.003644	-0.004354	-0.000688	-0.576660	0.516602	0.326904	0.370786	-0.689286	-0.347604	-0.516309
62330		9.476980	-1.488675	-1.882408	-0.005913	-0.010490	-0.000738	-0.578125	0.499268	0.326904	0.370814	-0.689417	-0.347545	-0.516153
62331		9.501453	-1.540377	-1.811447	0.008257	-0.002033	-0.004565	-0.591064	0.494141	0.323730	0.370875	-0.689417	-0.347510	-0.516133
62332		9.506527	-1.538513	-1.824271	0.000457	0.001081	-0.005224	-0.576416	0.500244	0.320801	0.370823	-0.689402	-0.347417	-0.516252
62333		9.494086	-1.534192	-1.858811	0.015318	-0.006804	-0.006294	-0.581543	0.500488	0.331543	0.370960	-0.689363	-0.347524	-0.516133
62334		9.475570	-1.549633	-1.927320	0.005348	-0.005937	-0.005504	-0.575928	0.498291	0.325684	0.370939	-0.689418	-0.347456	-0.516122
62335		9.498318	-1.532218	-1.792252	0.003666	-0.000190	-0.006535	-0.584717	0.502930	0.332764	0.370961	-0.689417	-0.347405	-0.516142
62336		9.514225	-1.509579	-1.784755	0.008788	-0.001544	-0.005764	-0.578369	0.495361	0.328125	0.370983	-0.689426	-0.347338	-0.516158
62337		9.497182	-1.491522	-1.848992	0.026781	-0.001060	-0.007492	-0.579346	0.503662	0.324219	0.371154	-0.689331	-0.347413	-0.516112
62338		9.472084	-1.455411	-1.922203	0.006541	0.001322	-0.006002	-0.578369	0.502930	0.326172	0.371237	-0.689295	-0.347399	-0.516109
62339		9.496999	-1.506846	-1.849448	-0.017796	0.002780	0.002376	-0.575195	0.495117	0.324707	0.371157	-0.689412	-0.347128	-0.516194
62340		9.503449	-1.513339	-1.767106	-0.001300	-0.009059	-0.003934	-0.572998	0.500244	0.326904	0.371100	-0.689502	-0.347056	-0.516162
62341		9.508876	-1.510201	-1.862906	0.016918	-0.008638	-0.009596	-0.568848	0.497803	0.334473	0.371191	-0.689489	-0.347153	-0.516049
62342		9.452390	-1.515416	-1.907855	0.006764	-0.002889	0.000809	-0.578125	0.496094	0.331299	0.371238	-0.689577	-0.346991	-0.516006
62343		9.486468	-1.537553	-1.867408	-0.010656	-0.002584	0.004680	-0.580322	0.489746	0.327881	0.371139	-0.689735	-0.346698	-0.516063
62344		9.521220	-1.511566	-1.787259	0.010476	-0.010584	-0.004443	-0.577637	0.504395	0.328857	0.371106	-0.689790	-0.346665	-0.516036
62345		9.482498	-1.563319	-1.888252	0.027444	-0.006605	-0.011202	-0.585693	0.503418	0.331299	0.371281	-0.689708	-0.346830	-0.515909
62346		9.467200	-1.553128	-1.855977	0.033457	0.001187	-0.008401	-0.581543	0.499023	0.325439	0.371510	-0.689566	-0.346942	-0.515859
62347		9.495113	-1.522132	-1.819272	0.042033	0.004217	-0.012791	-0.576660	0.502441	0.327881	0.371820	-0.689324	-0.347169	-0.515807
62348		9.496241	-1.503643	-1.816467	0.051364	-0.006714	-0.018883	-0.581055	0.504883	0.331055	0.372138	-0.689102	-0.347543	-0.515621
62349		9.482399	-1.549221	-1.853692	0.041292	-0.000712	-0.014909	-0.578857	0.496582	0.330566	0.372396	-0.688919	-0.347763	-0.515531
62350		9.490430	-1.553809	-1.848643	0.032808	0.011248	-0.012192	-0.580566	0.501465	0.331787	0.372610	-0.688718	-0.347819	-0.515608
62351		9.501392	-1.491270	-1.834734	0.041514	0.030803	-0.012305	-0.577393	0.504883	0.326172	0.372993	-0.688355	-0.347840	-0.515802
62352		9.479574	-1.492714	-1.758226	0.063163	0.054540	-0.029235	-0.578613	0.503662	0.321777	0.373614	-0.687641	-0.348091	-0.516134
62353		9.488425	-1.591571	-1.739422	0.117481	0.047258	-0.032485	-0.580811	0.505127	0.319092	0.374659	-0.686689	-0.348778	-0.516181
62354		9.523385	-1.565055	-1.920622	0.122939	0.017440	-0.035160	-0.581543	0.497803	0.322266	0.375605	-0.685886	-0.349669	-0.515958
62355		9.487588	-1.502278	-1.851243	0.074517	0.004945	-0.035192	-0.587646	0.506592	0.324951	0.376006	-0.685420	-0.350234	-0.515903
62356		9.479335	-1.509570	-1.733222	0.025328	0.013266	-0.030870	-0.573242	0.497803	0.317139	0.376054	-0.685159	-0.350395	-0.516105
62357		9.513318	-1.546769	-1.696831	0.027040	0.012416	-0.024157	-0.582031	0.507568	0.322510	0.376206	-0.684905	-0.350564	-0.516216
62358		9.499306	-1.553120	-1.787906	0.052702	0.010684	-0.024460	-0.585449	0.502686	0.316650	0.376553	-0.684560	-0.350877	-0.516209
62359		9.514005	-1.506565	-1.836586	0.048111	-0.000160	-0.029176	-0.589844	0.515137	0.321533	0.376781	-0.684254	-0.351288	-0.516168
62360		9.540142	-1.492538	-1.810413	0.023496	-0.000701	-0.026085	-0.584961	0.509277	0.314697	0.376828	-0.684105	-0.351493	-0.516192
62361		9.524396	-1.511255	-1.780457	0.002174	0.001399	-0.022837	-0.579102	0.503174	0.308105	0.376752	-0.684028	-0.351573	-0.516294
62362		9.505795	-1.540312	-1.767341	0.003595	-0.001260	-0.021477	-0.577637	0.504883	0.314453	0.376720	-0.683940	-0.351712	-0.516340
62363		9.517341	-1.546022	-1.786344	0.015078	-0.005291	-0.021786	-0.572998	0.501953	0.314209	0.376738	-0.683858	-0.351892	-0.516312
62364		9.510733	-1.535252	-1.789259	0.020708	-0.004014	-0.025200	-0.581543	0.507568	0.315430	0.376791	-0.683731	-0.352127	-0.516282
62365		9.516100	-1.497553	-1.763984	0.017136	-0.004847	-0.027712	-0.579346	0.501465	0.311035	0.376787	-0.683612	-0.352365	-0.516280
62366		9.511413	-1.512214	-1.797201	0.016828	-0.004179	-0.027825	-0.584473	0.504395	0.312988	0.376786	-0.683471	-0.352622	-0.516292
62367		9.513343	-1.517674	-1.790380	0.010570	-0.003297	-0.030231	-0.581787	0.498047	0.315918	0.376707	-0.683348	-0.352843	-0.516362
62368		9.511187	-1.489426	-1.768591	0.002803	-0.001198	-0.030190	-0.586914	0.506104	0.308594	0.376530	-0.683270	-0.352959	-0.516515
62369		9.513180	-1.494320	-1.761929	0.002463	-0.004106	-0.028409	-0.583984	0.502686	0.321777	0.376422	-0.683173	-0.353161	-0.516584
62370		9.501735	-1.545445	-1.748027	0.008975	-0.003492	-0.023986	-0.581055	0.500000	0.326172	0.376316	-0.683133	-0.353239	-0.516660
62371		9.530607	-1.493054	-1.794101	0.017800	-0.000961	-0.023457	-0.582520	0.507812	0.316406	0.376271	-0.683064	-0.353312	-0.516734
62372		9.521495	-1.426956	-1.772314	0.004836	-0.000284	-0.022993	-0.578613	0.504639	0.322266	0.376215	-0.683001	-0.353402	-0.516797
62373		9.495967	-1.370687	-1.764936	0.000792	-0.000115	-0.023210	-0.584961	0.498291	0.320068	0.376087	-0.682989	-0.353409	-0.516901
62374		9.525536	-1.408951	-1.801012	-0.003277	-0.003521	-0.021531	-0.577637	0.507324	0.313232	0.375883	-0.683010	-0.353393	-0.517033
62375		9.508330	-1.433008	-1.780622	-0.005721	-0.002735	-0.019769	-0.580078	0.501465	0.319092	0.375783	-0.683015	-0.353429	-0.517074
62376		9.524796	-1.437730	-1.812826	-0.012252	-0.000887	-0.018930	-0.586426	0.501221	0.314941	0.375573	-0.683070	-0.353344	-0.517212
62377		9.526611	-1.441640	-1.761994	-0.018033	-0.003056	-0.015750	-0.589355	0.500244	0.323242	0.375330	-0.683152	-0.353239	-0.517353
62378		9.506135	-1.430795	-1.763453	-0.020402	-0.000825	-0.017809	-0.583740	0.494629	0.314941	0.375005	-0.683257	-0.353057	-0.517573
62379		9.527484	-1.448547	-1.764998	-0.008572	-0.001875	-0.019916	-0.589844	0.506104	0.315918	0.374804	-0.683269	-0.353036	-0.517717
62380		9.499575	-1.448026	-1.769506	0.002183	-0.003050	-0.025214	-0.584473	0.494873	0.319336	0.374689	-0.683211	-0.353153	-0.517797
62381		9.557558	-1.418603	-1.806147	0.002219	-0.002721	-0.021868	-0.587158	0.505615	0.314453	0.374543	-0.683190	-0.353189	-0.517906
62382		9.536466	-1.458257	-1.810174	-0.016363	-0.000983	-0.017608	-0.581055	0.504395	0.310791	0.374346	-0.683234	-0.353126	-0.518033
62383		9.508875	-1.438866	-1.768932	-0.021095	0.001444	-0.013839	-0.585205	0.499512	0.319336	0.374183	-0.683288	-0.353023	-0.518150
62384		9.494627	-1.423572	-1.774051	-0.009235	0.001951	-0.009951	-0.584961	0.497314	0.316162	0.374065	-0.683338	-0.352879	-0.518267
62385		9.538787	-1.394171	-1.763163	-0.004166	0.000419	-0.007629	-0.587158	0.497070	0.318115	0.374008	-0.683369	-0.352777	-0.518337
62386		9.527618	-1.402116	-1.790325	-0.012383	0.001407	-0.002306	-0.584473	0.495117	0.322021	0.373900	-0.683463	-0.352555	-0.518442
62387		9.525374	-1.394117	-1.805651	-0.012371	0.002587	-0.004573	-0.584961	0.498291	0.325684	0.373762	-0.683560	-0.352313	-0.518578
62388		9.538062	-1.394661	-1.771737	-0.006460	-0.002734	-0.006375	-0.580078	0.496338	0.321045	0.373634	-0.683672	-0.352130	-0.518648
62389		9.520301	-1.439075	-1.752515	-0.011339	-0.002409	-0.005484	-0.589111	0.500977	0.320557	0.373505	-0.683789	-0.351943	-0.518712
62390		9.507784	-1.451622	-1.788443	-0.004526	-0.000415	-0.008822	-0.588135	0.492432	0.327393	0.373419	-0.683834	-0.351832	-0.518791
62391		9.496922	-1.455554	-1.771400	0.003892	-0.003829	-0.013572	-0.586182	0.495117	0.317871	0.373284	-0.683876	-0.351759	-0.518882
62392		9.512008	-1.464471	-1.767087	0.018469	-0.005069	-0.014695	-0.591064	0.492188	0.320068	0.373335	-0.683807	-0.351883	-0.518852
62393		9.541154	-1.439990	-1.762399	0.030506	-0.003724	-0.015477	-0.584961	0.497559	0.315430	0.373449	-0.683676	-0.352058	-0.518824
62394		9.528062	-1.421048	-1.758910	0.018662	-0.001468	-0.010735	-0.579346	0.492920	0.314209	0.373570	-0.683592	-0.352154	-0.518782
62395		9.506833	-1.433774	-1.804809	0.012414	-0.002655	-0.005252	-0.589355	0.495605	0.310791	0.373671	-0.683569	-0.352170	-0.518728
62396		9.512374	-1.395798	-1.771171	0.013083	-0.002468	-0.003959	-0.588867	0.498535	0.310303	0.373785	-0.683521	-0.352209	-0.518683
62397		9.531404	-1.360608	-1.784130	0.013044	-0.000386	-0.006941	-0.581543	0.490723	0.316406	0.373906	-0.683445	-0.352272	-0.518654
62398		9.525134	-1.382237	-1.780515	-0.000553	-0.002035	-0.004783	-0.581299	0.501953	0.322754	0.373865	-0.683494	-0.352166	-0.518691
62399		9.525826	-1.443505	-1.776905	-0.010881	-0.000995	-0.002487	-0.589111	0.499023	0.318848	0.373774	-0.683623	-0.351941	-0.518739
62400		9.515654	-1.478047	-1.753699	-0.003889	-0.001378	-0.000347	-0.584717	0.503906	0.312744	0.373739	-0.683704	-0.351771	-0.518773
62401		9.513309	-1.454522	-1.768297	0.007729	-0.001144	-0.000765	-0.584961	0.495605	0.317383	0.373875	-0.683699	-0.351744	-0.518700
62402		9.524597	-1.430941	-1.785156	0.008359	-0.003678	-0.003200	-0.587158	0.500244	0.313965	0.373920	-0.683722	-0.351694	-0.518671
62403		9.528243	-1.448495	-1.763188	-0.003356	-0.002108	-0.004203	-0.585449	0.496826	0.325928	0.373899	-0.683765	-0.351607	-0.518688
62404		9.529067	-1.493562	-1.758341	0.005392	-0.001000	0.000158	-0.587891	0.499512	0.312012	0.373907	-0.683840	-0.351428	-0.518704
62405		9.532919	-1.464745	-1.777355	0.016593	-0.001881	0.000103	-0.582031	0.499512	0.319580	0.374091	-0.683797	-0.351448	-0.518616
62406		9.521816	-1.441091	-1.802320	0.011307	-0.001506	-0.000901	-0.586182	0.496582	0.306396	0.374198	-0.683815	-0.351378	-0.518562
62407		9.538239	-1.414029	-1.787253	0.001920	-0.001260	-0.000557	-0.581299	0.500000	0.319336	0.374274	-0.683809	-0.351343	-0.518539
62408		9.514585	-1.432414	-1.760372	0.000204	-0.000030	0.000951	-0.590332	0.498779	0.312988	0.374309	-0.683876	-0.351181	-0.518534
62409		9.549980	-1.484145	-1.757262	0.002638	-0.001975	0.001449	-0.585938	0.497314	0.315430	0.374357	-0.683909	-0.351083	-0.518522
62410		9.546618	-1.462662	-1.735059	-0.001387	0.002929	-0.002927	-0.587158	0.499512	0.316162	0.374357	-0.683927	-0.350951	-0.518589
62411		9.506145	-1.458508	-1.683679	-0.010096	-0.000262	-0.004304	-0.577148	0.496094	0.320801	0.374262	-0.684001	-0.350789	-0.518670
62412		9.509048	-1.529208	-1.709902	0.007796	-0.009288	-0.006089	-0.577393	0.504395	0.321289	0.374260	-0.684073	-0.350760	-0.518595
62413		9.538320	-1.554578	-1.746007	0.026840	-0.008348	-0.009662	-0.590088	0.496582	0.319580	0.374441	-0.684033	-0.350900	-0.518423
62414		9.529264	-1.456346	-1.759958	0.022280	-0.007509	-0.010932	-0.585205	0.498291	0.312500	0.374502	-0.683989	-0.350998	-0.518370
62415		9.510873	-1.438110	-1.745656	0.007348	-0.011946	-0.011720	-0.589600	0.500488	0.315430	0.374476	-0.684009	-0.351094	-0.518298
62416		9.517998	-1.458654	-1.746647	0.003034	-0.010822	-0.008679	-0.581787	0.498047	0.322266	0.374417	-0.684064	-0.351109	-0.518257
62417		9.532452	-1.471309	-1.788486	0.013259	-0.010041	-0.012417	-0.589355	0.499756	0.320068	0.374401	-0.684091	-0.351162	-0.518197
62418		9.527501	-1.455277	-1.821183	0.013272	-0.010084	-0.017336	-0.588135	0.498535	0.318848	0.374348	-0.684079	-0.351274	-0.518176
62419		9.502022	-1.412901	-1.808455	0.004866	-0.007919	-0.015210	-0.583008	0.495850	0.319092	0.374253	-0.684096	-0.351313	-0.518195
62420		9.515546	-1.443016	-1.814647	-0.006904	-0.009050	-0.015007	-0.583496	0.497803	0.311035	0.374057	-0.684183	-0.351275	-0.518248
62421		9.530498	-1.498470	-1.770099	-0.012044	-0.006592	-0.013122	-0.579346	0.499756	0.315674	0.373898	-0.684243	-0.351253	-0.518298
62422		9.504474	-1.492942	-1.803818	-0.002244	-0.005696	-0.013854	-0.588623	0.507324	0.318848	0.373822	-0.684272	-0.351267	-0.518305
62423		9.513343	-1.459787	-1.837264	0.004080	-0.006245	-0.013022	-0.590332	0.505371	0.314453	0.373793	-0.684284	-0.351307	-0.518284
62424		9.518947	-1.419569	-1.804767	-0.004228	-0.003495	-0.009091	-0.580566	0.501465	0.330811	0.373739	-0.684311	-0.351277	-0.518307
62425		9.526753	-1.389678	-1.800970	-0.014563	0.001133	-0.003751	-0.572754	0.495605	0.320557	0.373576	-0.684467	-0.350977	-0.518421
62426		9.515686	-1.411496	-1.785040	-0.015905	-0.002816	-0.004444	-0.583252	0.501221	0.316650	0.373435	-0.684611	-0.350769	-0.518475
62427		9.529303	-1.409837	-1.788610	-0.010200	-0.004454	-0.004194	-0.577881	0.504639	0.321533	0.373353	-0.684708	-0.350644	-0.518489
62428		9.515320	-1.459329	-1.790590	-0.016899	-0.002304	-0.000927	-0.580322	0.503418	0.319092	0.373255	-0.684861	-0.350416	-0.518512
62429		9.504006	-1.498671	-1.776072	-0.016639	-0.002055	-0.001538	-0.583496	0.494873	0.322754	0.373157	-0.684993	-0.350211	-0.518546
62430		9.500260	-1.479120	-1.799440	-0.002839	-0.001615	-0.005420	-0.585449	0.496094	0.320312	0.373078	-0.685061	-0.350070	-0.518608
62431		9.531492	-1.478924	-1.781149	0.006764	-0.005484	-0.007851	-0.577393	0.496582	0.322266	0.373062	-0.685085	-0.350052	-0.518601
62432		9.508095	-1.495798	-1.755089	0.004117	-0.004694	-0.007026	-0.583008	0.494873	0.321045	0.373054	-0.685132	-0.350001	-0.518578
62433		9.540305	-1.493153	-1.773506	0.016989	-0.007079	-0.011976	-0.582031	0.501221	0.327881	0.373090	-0.685106	-0.350086	-0.518530
62434		9.498554	-1.445584	-1.772779	0.022797	-0.005758	-0.014475	-0.582031	0.497070	0.317627	0.373166	-0.685061	-0.350190	-0.518465
62435		9.525981	-1.443394	-1.778014	0.013974	-0.005907	-0.009698	-0.591553	0.497070	0.322998	0.373228	-0.685035	-0.350263	-0.518405
62436		9.519936	-1.430998	-1.773098	0.001828	-0.003063	-0.005010	-0.580566	0.497314	0.323486	0.373166	-0.685087	-0.350152	-0.518456
62437		9.527530	-1.418478	-1.770386	-0.000553	-0.003248	-0.007438	-0.578369	0.493164	0.317383	0.373105	-0.685149	-0.350055	-0.518483
62438		9.501224	-1.431118	-1.804752	0.004134	-0.009522	-0.012701	-0.579590	0.493652	0.314697	0.373043	-0.685181	-0.350103	-0.518452
62439		9.543223	-1.473731	-1.808420	0.007193	-0.010366	-0.011628	-0.585205	0.495361	0.323975	0.373025	-0.685195	-0.350189	-0.518390
62440		9.533565	-1.472892	-1.784259	-0.005790	-0.003795	-0.007717	-0.582275	0.501709	0.323242	0.372887	-0.685284	-0.350051	-0.518465
62441		9.490201	-1.480810	-1.795158	-0.009463	-0.005255	-0.012024	-0.577637	0.496094	0.324951	0.372731	-0.685374	-0.349961	-0.518519
62442		9.495135	-1.493997	-1.810744	0.003714	-0.008235	-0.011964	-0.584229	0.498535	0.314453	0.372656	-0.685435	-0.349947	-0.518501
62443		9.523852	-1.485591	-1.808867	0.003818	-0.007677	-0.015088	-0.580322	0.492920	0.312012	0.372612	-0.685422	-0.350045	-0.518484
62444		9.524081	-1.482289	-1.810365	0.000751	-0.005615	-0.013514	-0.586182	0.494385	0.327393	0.372561	-0.685411	-0.350107	-0.518493
62445		9.478625	-1.480341	-1.791779	0.000539	-0.004367	-0.011818	-0.585205	0.496826	0.324219	0.372427	-0.685469	-0.350024	-0.518569
62446		9.499943	-1.466672	-1.791569	0.010444	-0.005248	-0.011139	-0.587402	0.496582	0.321533	0.372414	-0.685472	-0.350038	-0.518565
62447		9.532231	-1.446444	-1.809029	0.010342	-0.005839	-0.012942	-0.576660	0.508545	0.312988	0.372391	-0.685458	-0.350088	-0.518566
62448		9.523702	-1.409502	-1.818612	0.004734	-0.003622	-0.011384	-0.585693	0.494873	0.317627	0.372484	-0.685423	-0.350189	-0.518478
62449		9.521246	-1.417123	-1.836062	0.001842	-0.006699	-0.012970	-0.589111	0.491211	0.327393	0.372402	-0.685439	-0.350215	-0.518498
62450		9.503490	-1.428540	-1.778419	0.003493	-0.004616	-0.014827	-0.582031	0.493652	0.315674	0.372249	-0.685470	-0.350167	-0.518598
62451		9.519612	-1.451290	-1.812102	0.004849	-0.006668	-0.017540	-0.583740	0.493164	0.330078	0.372185	-0.685443	-0.350272	-0.518609
62452		9.510354	-1.499650	-1.790181	0.001361	-0.003336	-0.015218	-0.575195	0.496338	0.318604	0.372033	-0.685489	-0.350199	-0.518707
62453		9.516844	-1.473660	-1.794746	0.007172	-0.004358	-0.013178	-0.581787	0.499512	0.322021	0.372051	-0.685471	-0.350263	-0.518675
62454		9.523219	-1.431221	-1.798429	0.007951	-0.004791	-0.012734	-0.584961	0.501953	0.317139	0.372050	-0.685465	-0.350305	-0.518655
62455		9.493649	-1.421845	-1.810007	0.005767	-0.003828	-0.016488	-0.583740	0.500488	0.317871	0.372039	-0.685420	-0.350403	-0.518656
62456		9.511212	-1.422270	-1.834089	0.004313	-0.003579	-0.018233	-0.589844	0.498047	0.335938	0.371999	-0.685377	-0.350498	-0.518677
62457		9.536727	-1.425288	-1.811193	-0.000869	-0.003830	-0.015138	-0.579102	0.503662	0.325928	0.371805	-0.685455	-0.350380	-0.518793
62458		9.523508	-1.438884	-1.810682	-0.006995	-0.002126	-0.012353	-0.585205	0.500244	0.320312	0.371702	-0.685519	-0.350296	-0.518839
62459		9.506790	-1.448220	-1.788994	-0.006995	-0.002124	-0.012355	-0.585449	0.497803	0.324707	0.371594	-0.685555	-0.350242	-0.518906
62460		9.512816	-1.441815	-1.839207	-0.000821	-0.003542	-0.016708	-0.578125	0.502197	0.322754	0.371470	-0.685572	-0.350233	-0.518978
62461		9.528743	-1.446356	-1.790374	-0.002073	-0.002112	-0.014845	-0.578857	0.500488	0.323975	0.371411	-0.685586	-0.350229	-0.519004
62462		9.507968	-1.420599	-1.790089	-0.002801	-0.001367	-0.011925	-0.582520	0.494141	0.329590	0.371354	-0.685616	-0.350180	-0.519038
62463		9.525842	-1.401948	-1.768424	-0.003781	-0.002084	-0.011048	-0.583252	0.497803	0.325928	0.371220	-0.685685	-0.350060	-0.519124
62464		9.508567	-1.414810	-1.791491	-0.004548	-0.004042	-0.011872	-0.589355	0.495117	0.331299	0.371100	-0.685747	-0.349988	-0.519176
62465		9.515764	-1.420866	-1.834837	-0.002521	-0.004690	-0.010637	-0.584229	0.493652	0.327393	0.370944	-0.685830	-0.349871	-0.519257
62466		9.532218	-1.407248	-1.821991	-0.010412	-0.003306	-0.012351	-0.579834	0.501465	0.326660	0.370747	-0.685919	-0.349743	-0.519367
62467		9.526448	-1.426904	-1.819343	-0.009996	-0.003368	-0.010445	-0.581787	0.489990	0.327393	0.370621	-0.686010	-0.349629	-0.519413
62468		9.517226	-1.459555	-1.796483	-0.002162	-0.003846	-0.009447	-0.584961	0.496338	0.325684	0.370508	-0.686076	-0.349532	-0.519472
62469		9.514637	-1.450993	-1.812892	0.011749	-0.006295	-0.009675	-0.580322	0.491455	0.326904	0.370528	-0.686081	-0.349562	-0.519430
62470		9.502978	-1.391052	-1.836862	0.013545	-0.004540	-0.013954	-0.590088	0.487305	0.327881	0.370532	-0.686057	-0.349618	-0.519421
62471		9.527947	-1.397733	-1.858485	0.009702	-0.004480	-0.018132	-0.583740	0.492920	0.324707	0.370423	-0.686031	-0.349662	-0.519504
62472		9.544012	-1.419389	-1.810595	0.004100	-0.003476	-0.014282	-0.580566	0.501221	0.322266	0.370356	-0.686031	-0.349671	-0.519547
62473		9.508435	-1.433276	-1.817984	0.002740	-0.001432	-0.011565	-0.590332	0.501221	0.317383	0.370360	-0.686025	-0.349674	-0.519549
62474		9.492543	-1.441439	-1.832257	0.011253	-0.002921	-0.011931	-0.593262	0.497559	0.320312	0.370423	-0.685961	-0.349770	-0.519523
62475		9.512412	-1.415938	-1.838768	0.010322	-0.003356	-0.012619	-0.585205	0.489746	0.328613	0.370432	-0.685914	-0.349837	-0.519535
62476		9.529164	-1.419293	-1.825817	-0.000705	0.000951	-0.013457	-0.583252	0.500000	0.322998	0.370310	-0.685928	-0.349750	-0.519661
62477		9.521606	-1.446467	-1.793630	-0.003024	-0.000120	-0.010235	-0.587402	0.489014	0.322510	0.370264	-0.685949	-0.349689	-0.519708
62478		9.509657	-1.439098	-1.783137	0.006360	-0.000262	-0.010630	-0.580078	0.495117	0.333008	0.370240	-0.685922	-0.349673	-0.519771
62479		9.507572	-1.464330	-1.800183	0.007034	-0.000074	-0.009333	-0.577637	0.493896	0.321777	0.370225	-0.685946	-0.349590	-0.519806
62480		9.513141	-1.426136	-1.847319	0.007284	0.001386	-0.007287	-0.586914	0.492920	0.329102	0.370294	-0.685920	-0.349567	-0.519807
62481		9.515738	-1.380125	-1.828842	0.003562	-0.000368	-0.010034	-0.586670	0.492920	0.316406	0.370233	-0.685938	-0.349487	-0.519880
62482		9.530338	-1.391250	-1.787675	-0.003685	-0.001494	-0.009254	-0.586182	0.494141	0.323242	0.370177	-0.685944	-0.349455	-0.519933
62483		9.515089	-1.413583	-1.758266	0.007412	-0.001622	-0.008518	-0.584473	0.487793	0.330322	0.370192	-0.685934	-0.349440	-0.519947
62484		9.533051	-1.397024	-1.817277	0.016483	-0.002311	-0.011679	-0.584473	0.498779	0.324951	0.370204	-0.685905	-0.349451	-0.519968
62485		9.519890	-1.411927	-1.816160	0.014791	-0.004707	-0.013191	-0.586182	0.496338	0.310547	0.370251	-0.685869	-0.349533	-0.519927
62486		9.533872	-1.426379	-1.820076	0.009043	-0.004590	-0.009572	-0.590576	0.496582	0.325439	0.370335	-0.685810	-0.349650	-0.519867
62487		9.517130	-1.437092	-1.798170	0.010739	-0.003395	-0.010725	-0.584473	0.492920	0.323242	0.370339	-0.685795	-0.349665	-0.519875
62488		9.531489	-1.431420	-1.756516	0.015633	-0.006031	-0.012036	-0.583252	0.491699	0.317383	0.370380	-0.685762	-0.349751	-0.519830
62489		9.524873	-1.421981	-1.795858	0.022553	-0.003031	-0.010272	-0.582031	0.494385	0.320312	0.370535	-0.685661	-0.349894	-0.519756
62490		9.509994	-1.408997	-1.800926	0.023085	-0.004915	-0.011877	-0.582275	0.501465	0.318604	0.370673	-0.685577	-0.350046	-0.519667
62491		9.527031	-1.394607	-1.824084	0.017089	-0.006261	-0.010300	-0.584473	0.495117	0.323486	0.370801	-0.685527	-0.350177	-0.519553
62492		9.533410	-1.403799	-1.830488	0.011263	-0.004067	-0.009677	-0.584961	0.497314	0.329102	0.370832	-0.685516	-0.350202	-0.519529
62493		9.545381	-1.425813	-1.805883	0.002131	-0.002493	-0.007221	-0.583740	0.495361	0.319824	0.370787	-0.685570	-0.350103	-0.519556
62494		9.495395	-1.443202	-1.774398	-0.005810	-0.001437	-0.007352	-0.582520	0.489746	0.321777	0.370720	-0.685615	-0.350013	-0.519605
62495		9.496521	-1.456344	-1.812189	0.009334	-0.002835	-0.009108	-0.579590	0.498047	0.324463	0.370737	-0.685602	-0.350019	-0.519606
62496		9.507386	-1.430825	-1.829250	0.016007	-0.002495	-0.012056	-0.578613	0.487061	0.323730	0.370824	-0.685552	-0.350094	-0.519559
62497		9.544820	-1.406332	-1.814335	0.007703	-0.001073	-0.010721	-0.586182	0.492676	0.325439	0.370814	-0.685540	-0.350078	-0.519594
62498		9.529166	-1.432157	-1.829077	0.001068	0.000078	-0.006684	-0.583496	0.484863	0.324463	0.370769	-0.685570	-0.349971	-0.519657
62499		9.522623	-1.438582	-1.787806	0.005749	-0.001310	-0.006293	-0.584717	0.490479	0.322021	0.370743	-0.685590	-0.349891	-0.519705
62500		9.504667	-1.402917	-1.807152	0.010086	0.000344	-0.005634	-0.581299	0.493408	0.322510	0.370797	-0.685567	-0.349854	-0.519720
62501		9.525183	-1.393982	-1.850566	0.010003	-0.001427	-0.005155	-0.586182	0.498779	0.328125	0.370865	-0.685563	-0.349826	-0.519696
62502		9.535511	-1.387728	-1.831799	-0.000391	0.000314	-0.008430	-0.583496	0.490723	0.322998	0.370807	-0.685602	-0.349714	-0.519762
62503		9.509436	-1.399508	-1.783440	-0.008943	0.000268	-0.009138	-0.585693	0.498047	0.321777	0.370674	-0.685658	-0.349579	-0.519874
62504		9.526837	-1.454173	-1.773167	0.001240	-0.001441	-0.006820	-0.582520	0.495850	0.323730	0.370666	-0.685679	-0.349520	-0.519891
62505		9.529245	-1.462567	-1.802506	0.010619	-0.001537	-0.007237	-0.583740	0.492920	0.330811	0.370727	-0.685666	-0.349510	-0.519871
62506		9.509338	-1.433668	-1.793509	0.007695	0.000145	-0.008068	-0.589844	0.492432	0.320801	0.370711	-0.685684	-0.349421	-0.519919
62507		9.507815	-1.403515	-1.799873	0.008441	-0.001772	-0.008712	-0.584717	0.491943	0.324463	0.370721	-0.685661	-0.349420	-0.519944
62508		9.524471	-1.407593	-1.787027	0.008911	-0.002758	-0.011032	-0.584717	0.491455	0.323975	0.370710	-0.685651	-0.349421	-0.519963
62509		9.537010	-1.410512	-1.798000	0.004315	-0.003458	-0.008415	-0.587402	0.496826	0.320801	0.370674	-0.685676	-0.349377	-0.519985
62510		9.524027	-1.443414	-1.797797	0.003120	-0.001735	-0.003164	-0.579346	0.497803	0.323486	0.370699	-0.685702	-0.349303	-0.519983
62511		9.502863	-1.437850	-1.798052	0.002541	-0.000129	0.000006	-0.586426	0.497803	0.316162	0.370760	-0.685750	-0.349179	-0.519959
62512		9.500768	-1.392370	-1.803851	-0.000038	-0.001490	-0.001090	-0.579590	0.496094	0.321289	0.370803	-0.685778	-0.349103	-0.519943
62513		9.532322	-1.408728	-1.786619	0.006629	-0.006228	-0.008167	-0.589111	0.491943	0.323242	0.370823	-0.685800	-0.349118	-0.519889
62514		9.531416	-1.428956	-1.796604	0.008363	-0.004746	-0.010899	-0.588135	0.499512	0.315186	0.370790	-0.685799	-0.349128	-0.519908
62515		9.519680	-1.456216	-1.788801	0.004147	-0.005790	-0.004795	-0.585938	0.498535	0.318115	0.370831	-0.685814	-0.349139	-0.519851
62516		9.498434	-1.450475	-1.789626	0.006546	-0.001698	-0.000905	-0.578857	0.498535	0.318848	0.370924	-0.685822	-0.349093	-0.519806
62517		9.515980	-1.398467	-1.802587	0.007670	-0.001310	-0.004217	-0.587891	0.491211	0.320068	0.371024	-0.685813	-0.349082	-0.519753
62518		9.530903	-1.392033	-1.797206	0.002617	-0.003446	-0.004598	-0.582520	0.490967	0.318848	0.371000	-0.685847	-0.349013	-0.519772
62519		9.520063	-1.435165	-1.826388	0.004903	-0.003824	-0.003979	-0.591797	0.501221	0.322266	0.371022	-0.685872	-0.348971	-0.519752
62520		9.523180	-1.457387	-1.812540	0.006092	-0.004336	-0.006571	-0.581787	0.489746	0.323242	0.371031	-0.685889	-0.348949	-0.519737
62521		9.491251	-1.457490	-1.795755	0.002260	-0.004287	-0.005793	-0.585938	0.501709	0.322510	0.370990	-0.685941	-0.348872	-0.519750
62522		9.508400	-1.460213	-1.820048	0.005669	-0.004276	-0.008486	-0.588379	0.498291	0.326172	0.371003	-0.685954	-0.348871	-0.519724
62523		9.517661	-1.475803	-1.810998	0.008674	-0.004178	-0.008142	-0.584961	0.495117	0.323242	0.371002	-0.685970	-0.348848	-0.519718
62524		9.517768	-1.474371	-1.811607	0.012717	-0.004253	-0.007966	-0.586426	0.490723	0.324463	0.371050	-0.685960	-0.348868	-0.519685
62525		9.495119	-1.456171	-1.819528	0.017585	-0.004471	-0.008919	-0.578125	0.502930	0.320068	0.371102	-0.685931	-0.348906	-0.519660
62526		9.525009	-1.443419	-1.808448	0.011147	-0.003398	-0.008862	-0.584961	0.498535	0.315918	0.371204	-0.685903	-0.348969	-0.519582
62527		9.514048	-1.431793	-1.790447	0.007593	-0.004281	-0.006405	-0.583740	0.495605	0.316162	0.371268	-0.685891	-0.349002	-0.519530
62528		9.518887	-1.429680	-1.804023	0.015869	-0.004484	-0.010055	-0.590088	0.494629	0.327637	0.371367	-0.685829	-0.349113	-0.519467
62529		9.514939	-1.426841	-1.828100	0.015192	-0.004675	-0.011356	-0.588623	0.493896	0.322754	0.371365	-0.685815	-0.349134	-0.519472
62530		9.524342	-1.441881	-1.818825	0.003565	-0.002745	-0.010447	-0.581055	0.488525	0.322754	0.371305	-0.685827	-0.349099	-0.519523
62531		9.523629	-1.424541	-1.782080	-0.001200	-0.001939	-0.007684	-0.576904	0.500000	0.317627	0.371228	-0.685872	-0.349003	-0.519583
62532		9.509290	-1.445123	-1.789088	0.003777	-0.002772	-0.009491	-0.584961	0.490967	0.318115	0.371270	-0.685862	-0.349034	-0.519546
62533		9.518905	-1.441973	-1.815672	0.008991	-0.004812	-0.008049	-0.582275	0.495605	0.322998	0.371286	-0.685855	-0.349055	-0.519529
62534		9.515901	-1.452504	-1.796079	0.003523	-0.003022	-0.008877	-0.586426	0.501221	0.314697	0.371263	-0.685876	-0.349020	-0.519541
62535		9.513575	-1.461182	-1.812754	-0.001521	-0.001291	-0.007790	-0.588379	0.497070	0.329346	0.371266	-0.685873	-0.349007	-0.519552
62536		9.502715	-1.448906	-1.794726	0.001556	-0.003296	-0.009391	-0.580322	0.492188	0.331543	0.371175	-0.685928	-0.348914	-0.519607
62537		9.514908	-1.434818	-1.805072	0.005851	-0.003110	-0.009836	-0.579590	0.495361	0.320557	0.371114	-0.685973	-0.348834	-0.519644
62538		9.527472	-1.437741	-1.815932	0.004384	-0.001672	-0.008919	-0.576904	0.493896	0.322021	0.371126	-0.685970	-0.348823	-0.519647
62539		9.521696	-1.441826	-1.811445	-0.000163	-0.002109	-0.007858	-0.582520	0.499756	0.319092	0.371099	-0.686004	-0.348764	-0.519662
62540		9.497891	-1.463942	-1.792650	0.001515	-0.003574	-0.007819	-0.582764	0.489258	0.323242	0.371102	-0.686021	-0.348752	-0.519645
62541		9.536370	-1.471219	-1.816644	0.008538	-0.003562	-0.012267	-0.583740	0.493408	0.316895	0.371068	-0.686012	-0.348763	-0.519674
62542		9.519263	-1.447560	-1.792820	0.008361	-0.002041	-0.012137	-0.580811	0.500000	0.332031	0.371088	-0.685964	-0.348823	-0.519683
62543		9.506818	-1.423622	-1.781920	0.005489	-0.002737	-0.008372	-0.587646	0.500977	0.322998	0.371067	-0.686010	-0.348746	-0.519688
62544		9.501601	-1.426084	-1.814042	0.004812	-0.002932	-0.009672	-0.586182	0.497559	0.323975	0.371058	-0.686015	-0.348736	-0.519695
62545		9.505971	-1.424834	-1.791095	0.001807	-0.003039	-0.010013	-0.584229	0.494385	0.320068	0.371006	-0.686040	-0.348695	-0.519727
62546		9.523298	-1.426623	-1.815056	0.005102	-0.002396	-0.011866	-0.578613	0.499268	0.323486	0.370986	-0.686022	-0.348712	-0.519752
62547		9.532426	-1.424452	-1.805074	0.002128	-0.003684	-0.009910	-0.574219	0.494873	0.322021	0.370971	-0.686047	-0.348697	-0.519740
62548		9.515103	-1.457022	-1.791916	-0.007533	-0.001508	-0.008476	-0.584473	0.499512	0.321777	0.370895	-0.686106	-0.348603	-0.519780
62549		9.482142	-1.461522	-1.783092	0.000946	-0.004382	-0.009978	-0.581543	0.494385	0.320557	0.370857	-0.686132	-0.348590	-0.519782
62550		9.507071	-1.468679	-1.804894	0.011544	-0.004642	-0.014605	-0.584961	0.488281	0.321533	0.370873	-0.686089	-0.348685	-0.519764
62551		9.522216	-1.459910	-1.800087	0.011257	-0.006380	-0.015081	-0.580322	0.494873	0.323730	0.370829	-0.686066	-0.348758	-0.519775
62552		9.524572	-1.485499	-1.794307	0.004956	-0.003257	-0.012110	-0.592041	0.503906	0.325928	0.370802	-0.686069	-0.348763	-0.519788
62553		9.499088	-1.459931	-1.817625	0.007890	-0.002245	-0.012495	-0.583252	0.496094	0.324707	0.370792	-0.686050	-0.348779	-0.519809
62554		9.506244	-1.428997	-1.813951	0.014940	-0.003393	-0.014658	-0.583740	0.493896	0.318848	0.370824	-0.685999	-0.348865	-0.519796
