// Start Time: Unknown
// Update Rate: 40.0Hz
// Filter Profile: human (46.1)
// Firmware Version: 4.3.4
PacketCounter	SampleTimeFine	Acc_X	Acc_Y	Acc_Z	Gyr_X	Gyr_Y	Gyr_Z	Mag_X	Mag_Y	Mag_Z	Quat_q0	Quat_q1	Quat_q2	Quat_q3
61648		9.578273	1.122716	2.137988	0.010128	-0.003639	0.009652	-0.702881	-0.116211	0.009033	-0.131744	-0.625023	0.033133	-0.768695
61649		9.607071	1.081868	2.077378	0.002211	-0.002814	0.005869	-0.696533	-0.114014	0.013428	-0.131670	-0.625051	0.033162	-0.768684
61650		9.572703	1.020187	2.123003	0.011447	-0.000357	0.002181	-0.698730	-0.109863	0.008789	-0.131557	-0.625077	0.033071	-0.768686
61651		9.556305	1.083720	2.125035	0.004808	-0.006875	-0.000584	-0.698730	-0.114014	0.011230	-0.131519	-0.625152	0.033035	-0.768633
61652		9.547755	1.104245	2.060735	-0.002818	-0.008742	-0.000827	-0.694336	-0.114014	0.013428	-0.131541	-0.625232	0.033076	-0.768562
61653		9.569767	1.066805	2.119880	0.003796	-0.006179	-0.003515	-0.691895	-0.118408	0.007080	-0.131536	-0.625305	0.033030	-0.768506
61654		9.559784	1.105313	2.098570	0.001523	-0.004455	-0.003832	-0.696533	-0.114014	0.009033	-0.131548	-0.625359	0.033005	-0.768461
61655		9.582268	1.123242	2.089303	-0.000467	-0.002329	-0.004937	-0.694336	-0.111816	0.011230	-0.131586	-0.625392	0.032990	-0.768428
61656		9.553902	1.119439	2.094418	-0.004584	-0.002359	-0.003789	-0.696289	-0.116211	0.009277	-0.131644	-0.625424	0.033023	-0.768391
61657		9.553014	1.102988	2.091415	-0.015294	-0.006322	-0.002942	-0.696533	-0.109863	0.006836	-0.131775	-0.625480	0.033172	-0.768316
61658		9.566111	1.095539	2.098407	-0.003066	-0.003465	-0.001904	-0.694336	-0.116211	0.007080	-0.131800	-0.625532	0.033211	-0.768268
61659		9.591962	1.173186	2.104932	-0.003426	-0.007060	-0.003312	-0.692139	-0.116211	0.009277	-0.131837	-0.625620	0.033250	-0.768188
61660		9.588237	1.117336	2.103995	0.007873	-0.003534	-0.003706	-0.698730	-0.114014	0.009033	-0.131799	-0.625697	0.033160	-0.768136
61661		9.573595	1.102589	2.099827	0.005190	-0.004645	-0.002172	-0.692139	-0.116211	0.015625	-0.131763	-0.625784	0.033115	-0.768073
61662		9.554094	1.116430	2.094898	0.004537	-0.005423	-0.002095	-0.692139	-0.114014	0.013428	-0.131730	-0.625880	0.033075	-0.768002
61663		9.535817	1.157270	2.101347	0.010456	-0.006095	-0.002150	-0.692139	-0.116211	0.009277	-0.131651	-0.625991	0.032984	-0.767930
61664		9.549643	1.103084	2.036920	0.007466	-0.006367	-0.001857	-0.694336	-0.116211	0.013428	-0.131602	-0.626092	0.032912	-0.767858
61665		9.580373	1.083694	2.086928	0.007836	-0.005990	-0.001146	-0.692139	-0.118408	0.009277	-0.131536	-0.626210	0.032847	-0.767777
61666		9.571587	1.148734	2.077055	0.005782	-0.005081	-0.001719	-0.694336	-0.114014	0.009033	-0.131492	-0.626305	0.032798	-0.767709
61667		9.567654	1.140381	2.014137	0.003426	-0.003204	0.001488	-0.696289	-0.116211	0.007080	-0.131433	-0.626379	0.032800	-0.767658
61668		9.546564	1.150185	2.033773	0.000960	-0.000060	0.001165	-0.689941	-0.114014	0.013428	-0.131403	-0.626429	0.032811	-0.767622
61669		9.560126	1.138430	2.025621	-0.008244	0.003156	0.002997	-0.689697	-0.122559	0.007324	-0.131431	-0.626445	0.032913	-0.767599
61670		9.544588	1.125242	2.040158	-0.001019	0.004042	0.002787	-0.700684	-0.114014	0.013428	-0.131427	-0.626455	0.032912	-0.767592
61671		9.585659	1.121691	2.043781	-0.000155	0.007227	0.003147	-0.698730	-0.114014	0.011230	-0.131381	-0.626473	0.032940	-0.767584
61672		9.589018	1.099165	2.078946	-0.003073	0.004952	0.002214	-0.692139	-0.116211	0.013428	-0.131368	-0.626499	0.032992	-0.767563
61673		9.566700	1.102410	2.107442	0.001242	0.005411	-0.001225	-0.687988	-0.111816	0.009033	-0.131363	-0.626522	0.032962	-0.767547
61674		9.574747	1.100197	2.080499	0.001148	0.003587	-0.000428	-0.696533	-0.114014	0.011230	-0.131348	-0.626523	0.032965	-0.767548
61675		9.564429	1.137880	2.060937	-0.002203	-0.000281	-0.001542	-0.694336	-0.114014	0.015625	-0.131358	-0.626583	0.032996	-0.767496
61676		9.542114	1.131373	2.079009	0.000716	0.001995	-0.000608	-0.694336	-0.116211	0.011475	-0.131337	-0.626642	0.032996	-0.767451
61677		9.557792	1.119991	2.030548	-0.000559	0.001045	-0.000719	-0.698730	-0.112061	0.011230	-0.131341	-0.626684	0.032993	-0.767417
61678		9.570713	1.122688	2.048547	-0.001159	0.004702	-0.000478	-0.694336	-0.114014	0.013428	-0.131329	-0.626697	0.033026	-0.767407
61679		9.566369	1.157993	2.042102	-0.004001	0.005621	0.000782	-0.696777	-0.109863	0.017578	-0.131337	-0.626701	0.033073	-0.767400
61680		9.562331	1.110566	2.053792	-0.011488	0.008161	0.002207	-0.692139	-0.116211	0.013428	-0.131368	-0.626700	0.033227	-0.767389
61681		9.558514	1.141679	2.031932	-0.004821	0.010093	0.001281	-0.692383	-0.111816	0.011230	-0.131394	-0.626658	0.033254	-0.767417
61682		9.538836	1.140017	2.005365	-0.012221	0.012609	0.004204	-0.694092	-0.118408	0.007080	-0.131438	-0.626565	0.033406	-0.767480
61683		9.555593	1.115705	2.043219	-0.010070	0.013525	0.003982	-0.694092	-0.122559	0.013916	-0.131502	-0.626447	0.033480	-0.767561
61684		9.559712	1.119226	2.092063	-0.007583	0.014209	0.004737	-0.691895	-0.122559	0.007324	-0.131549	-0.626386	0.033493	-0.767603
61685		9.556682	1.166780	2.073872	-0.000010	0.016713	0.003217	-0.696533	-0.114014	0.004639	-0.131569	-0.626252	0.033415	-0.767712
61686		9.572003	1.164249	2.038433	-0.002578	0.016184	0.005982	-0.696289	-0.116211	0.007080	-0.131537	-0.626096	0.033469	-0.767842
61687		9.564323	1.109932	2.099743	0.002122	0.018999	0.005988	-0.692139	-0.118408	0.009277	-0.131481	-0.625948	0.033446	-0.767974
61688		9.571417	1.119726	2.101776	0.000972	0.015412	0.006412	-0.696533	-0.114014	0.004639	-0.131447	-0.625846	0.033417	-0.768063
61689		9.594592	1.128278	2.064415	-0.000694	0.018554	0.004252	-0.696289	-0.118408	0.011475	-0.131418	-0.625670	0.033431	-0.768212
61690		9.567516	1.155298	2.078831	-0.016586	0.016024	0.006545	-0.698486	-0.116211	0.004883	-0.131513	-0.625567	0.033576	-0.768273
61691		9.556758	1.060151	2.143045	-0.014703	0.018391	0.004819	-0.696533	-0.116211	0.013428	-0.131602	-0.625379	0.033705	-0.768405
61692		9.566249	1.123563	2.168148	-0.004321	0.011064	0.003223	-0.698486	-0.116211	0.007080	-0.131612	-0.625368	0.033740	-0.768411
61693		9.563899	1.137632	2.103968	0.002435	0.009741	0.003117	-0.692139	-0.114014	0.004639	-0.131576	-0.625308	0.033709	-0.768466
61694		9.581213	1.100422	2.114848	-0.002017	0.009947	0.003278	-0.698486	-0.118408	0.009277	-0.131571	-0.625202	0.033734	-0.768553
61695		9.560369	1.116326	2.129968	-0.001911	0.008550	0.001785	-0.698730	-0.112061	0.006836	-0.131600	-0.625177	0.033712	-0.768569
61696		9.577287	1.141738	2.104231	0.007534	0.008337	0.000156	-0.698730	-0.109863	0.006836	-0.131515	-0.625135	0.033661	-0.768620
61697		9.559362	1.134039	2.043619	-0.002384	0.009572	0.002563	-0.692139	-0.114014	0.006836	-0.131463	-0.625062	0.033747	-0.768684
61698		9.560709	1.118725	2.112654	-0.000095	0.009698	0.000591	-0.696533	-0.111816	0.006836	-0.131467	-0.624995	0.033730	-0.768739
61699		9.571299	1.107858	2.147002	0.002018	0.013227	0.001336	-0.696533	-0.109863	0.010986	-0.131416	-0.624900	0.033729	-0.768825
61700		9.580246	1.121778	2.124133	-0.001474	0.010147	0.001965	-0.694092	-0.122559	0.009521	-0.131354	-0.624885	0.033797	-0.768845
61701		9.590249	1.142289	2.093548	0.002544	0.008347	0.001626	-0.696289	-0.118408	0.009277	-0.131411	-0.624883	0.033655	-0.768843
61702		9.568243	1.131765	2.096728	0.002946	0.009333	0.002073	-0.700684	-0.114014	0.009033	-0.131412	-0.624870	0.033571	-0.768857
61703		9.554834	1.128841	2.081598	0.003348	0.010319	0.002521	-0.694336	-0.114014	0.006836	-0.131349	-0.624846	0.033555	-0.768888
61704		9.573141	1.118918	2.104539	0.004727	0.013097	0.001842	-0.696289	-0.118408	0.011475	-0.131300	-0.624763	0.033500	-0.768967
61705		9.571662	1.111924	2.114427	-0.000229	0.010491	0.002344	-0.696533	-0.116211	0.013428	-0.131322	-0.624774	0.033445	-0.768956
61706		9.590833	1.108381	2.130522	-0.005132	0.013574	0.000981	-0.700439	-0.122559	0.009521	-0.131368	-0.624777	0.033458	-0.768945
61707		9.557857	1.139125	2.130964	0.003411	0.009560	-0.000735	-0.694092	-0.120361	0.007080	-0.131429	-0.624784	0.033290	-0.768936
61708		9.567742	1.150007	2.091060	0.000533	0.009874	0.000778	-0.698486	-0.116211	0.009277	-0.131490	-0.624739	0.033178	-0.768967
61709		9.568537	1.104519	2.131909	0.002109	0.009982	0.002139	-0.698486	-0.118408	0.004883	-0.131470	-0.624731	0.033145	-0.768979
61710		9.581963	1.113356	2.144271	0.005252	0.008217	0.002135	-0.696289	-0.116211	0.007080	-0.131451	-0.624678	0.033040	-0.769030
61711		9.565718	1.152601	2.113568	0.003907	0.006049	0.002548	-0.702881	-0.116211	0.007080	-0.131416	-0.624676	0.032991	-0.769040
61712		9.575400	1.114610	2.134935	0.003032	0.006086	0.002878	-0.700684	-0.116211	0.007080	-0.131373	-0.624676	0.032969	-0.769047
61713		9.574460	1.127976	2.161956	0.010663	0.004723	0.002459	-0.694092	-0.120361	0.004883	-0.131278	-0.624701	0.032867	-0.769048
61714		9.572763	1.142468	2.096127	0.005046	0.004563	0.003726	-0.692139	-0.116211	0.011475	-0.131277	-0.624681	0.032737	-0.769070
61715		9.568783	1.115622	2.125997	0.008580	0.008255	0.002834	-0.694336	-0.116211	0.002686	-0.131215	-0.624737	0.032643	-0.769039
61716		9.578038	1.129424	2.102294	0.003032	0.009315	0.003570	-0.698486	-0.114014	0.002441	-0.131183	-0.624627	0.032588	-0.769136
61717		9.569977	1.137651	2.125324	0.000442	0.010034	0.004294	-0.694092	-0.120361	0.004883	-0.131129	-0.624505	0.032611	-0.769243
61718		9.565482	1.151828	2.101125	0.002272	0.009936	0.005134	-0.698486	-0.116211	0.009277	-0.131146	-0.624436	0.032511	-0.769301
61719		9.568242	1.128724	2.137255	0.000303	0.010826	0.006048	-0.696533	-0.114014	0.000488	-0.131109	-0.624430	0.032531	-0.769311
61720		9.574660	1.121670	2.135629	0.000050	0.011033	0.006569	-0.696533	-0.114014	0.006836	-0.131041	-0.624269	0.032561	-0.769452
61721		9.568299	1.122304	2.125824	0.000778	0.009804	0.005271	-0.698730	-0.114014	0.011230	-0.130983	-0.624235	0.032593	-0.769488
61722		9.597235	1.122268	2.106260	0.003736	0.009463	0.005262	-0.698486	-0.114014	0.004639	-0.130898	-0.624288	0.032614	-0.769458
61723		9.580435	1.122462	2.147883	0.000307	0.010829	0.006047	-0.698486	-0.118408	0.007080	-0.130835	-0.624208	0.032651	-0.769533
61724		9.571975	1.090062	2.133375	0.000808	0.008431	0.002281	-0.702637	-0.120605	0.007080	-0.130861	-0.624202	0.032587	-0.769536
61725		9.565738	1.101605	2.132443	0.001761	0.008370	0.003452	-0.694336	-0.116211	0.004883	-0.130886	-0.624202	0.032499	-0.769535
61726		9.562406	1.133455	2.109758	0.011320	0.006746	0.000366	-0.698486	-0.116211	0.007080	-0.130826	-0.624189	0.032346	-0.769562
61727		9.577779	1.093675	2.144008	-0.004118	0.009666	0.003199	-0.700439	-0.120605	0.004883	-0.130853	-0.624163	0.032379	-0.769578
61728		9.582418	1.094740	2.174977	0.006430	0.008589	0.001021	-0.696289	-0.116211	0.004883	-0.130867	-0.624133	0.032216	-0.769606
61729		9.585858	1.120976	2.148396	0.003550	0.008908	0.002527	-0.702881	-0.114014	0.006836	-0.130841	-0.624089	0.032162	-0.769648
61730		9.568790	1.153650	2.124915	0.003620	0.006897	0.001304	-0.698486	-0.118408	0.004883	-0.130787	-0.624101	0.032167	-0.769648
61731		9.578095	1.095488	2.127862	0.004685	0.007421	0.003709	-0.702637	-0.118408	0.007080	-0.130763	-0.624078	0.032079	-0.769675
61732		9.570990	1.110863	2.143223	0.004936	0.008457	0.001157	-0.700684	-0.116211	0.009277	-0.130756	-0.624086	0.031988	-0.769673
61733		9.582437	1.106790	2.169754	0.006801	0.008969	0.001734	-0.698486	-0.116211	0.007080	-0.130709	-0.624128	0.031928	-0.769649
61734		9.582910	1.165219	2.119006	0.007165	0.010591	0.000415	-0.698486	-0.116211	0.002686	-0.130674	-0.624116	0.031836	-0.769669
61735		9.577398	1.111765	2.138200	0.003665	0.009497	0.003759	-0.698242	-0.122559	0.002930	-0.130626	-0.624032	0.031789	-0.769747
61736		9.578045	1.127980	2.142525	0.010240	0.009592	0.003676	-0.700684	-0.116211	0.007080	-0.130602	-0.623971	0.031561	-0.769810
61737		9.590329	1.109903	2.143240	0.001069	0.008231	0.001753	-0.698486	-0.114014	0.004639	-0.130598	-0.623977	0.031553	-0.769806
61738		9.574402	1.117602	2.177122	0.010168	0.008374	0.004209	-0.694336	-0.116211	0.011475	-0.130472	-0.623951	0.031502	-0.769850
61739		9.585881	1.144631	2.138640	0.005634	0.005376	0.002158	-0.700684	-0.116211	0.002686	-0.130446	-0.624068	0.031455	-0.769762
61740		9.594561	1.130216	2.195650	0.000711	0.008601	0.005792	-0.691895	-0.118408	0.004883	-0.130397	-0.623991	0.031462	-0.769833
61741		9.573528	1.105387	2.172345	0.005710	0.005353	0.003658	-0.696533	-0.111816	0.004639	-0.130374	-0.623994	0.031350	-0.769838
61742		9.589101	1.116722	2.160124	0.000304	0.004382	0.004656	-0.700684	-0.118408	0.007080	-0.130300	-0.623988	0.031436	-0.769853
61743		9.608739	1.112223	2.174245	-0.003349	0.002093	0.007030	-0.700684	-0.118408	0.009277	-0.130301	-0.624045	0.031477	-0.769804
61744		9.602732	1.092896	2.143522	0.010747	0.001471	0.003292	-0.698242	-0.120361	0.000732	-0.130232	-0.624169	0.031362	-0.769720
61745		9.567296	1.124951	2.089034	0.003921	0.006061	0.002547	-0.698486	-0.116211	0.009277	-0.130232	-0.624090	0.031220	-0.769790
61746		9.569770	1.072161	2.096068	0.000049	0.005833	0.003142	-0.700684	-0.114014	0.013428	-0.130231	-0.624152	0.031239	-0.769739
61747		9.561907	1.111147	2.146575	-0.003127	0.008237	0.001365	-0.702881	-0.114258	0.009033	-0.130255	-0.624252	0.031337	-0.769650
61748		9.565575	1.105814	2.184059	0.001286	0.004184	0.000808	-0.698730	-0.114014	0.009033	-0.130239	-0.624323	0.031376	-0.769593
61749		9.590863	1.080042	2.191714	-0.006060	0.001483	0.001757	-0.696533	-0.111816	0.006836	-0.130273	-0.624405	0.031488	-0.769517
61750		9.590061	1.093465	2.217459	-0.000006	-0.003233	-0.000688	-0.700684	-0.116211	0.007080	-0.130262	-0.624501	0.031557	-0.769438
61751		9.558720	1.111986	2.095049	0.004482	-0.006067	-0.001779	-0.698486	-0.118408	0.004883	-0.130256	-0.624637	0.031504	-0.769331
61752		9.550126	1.104807	2.112230	-0.002529	-0.004524	-0.001194	-0.703125	-0.109863	0.006592	-0.130317	-0.624708	0.031463	-0.769264
61753		9.542542	1.114105	2.132047	0.000616	-0.003062	-0.000495	-0.698486	-0.116211	0.004883	-0.130271	-0.624789	0.031585	-0.769201
61754		9.585878	1.083055	2.174853	0.002767	-0.005382	-0.001391	-0.698730	-0.112061	0.006836	-0.130273	-0.624871	0.031535	-0.769136
61755		9.573495	1.101761	2.174330	0.009300	-0.007889	-0.003924	-0.696533	-0.114014	0.006836	-0.130214	-0.625014	0.031496	-0.769032
61756		9.549795	1.134423	2.250022	0.028847	-0.011896	-0.000796	-0.696533	-0.111816	0.009033	-0.129988	-0.625224	0.031253	-0.768909
61757		9.494283	1.240732	2.265474	0.070771	-0.018945	0.000414	-0.696289	-0.118408	0.007080	-0.129403	-0.625595	0.030675	-0.768730
61758		9.493083	1.171828	2.324056	0.059828	-0.039192	0.011597	-0.694092	-0.118408	0.011475	-0.128844	-0.626100	0.030185	-0.768431
61759		9.638515	1.048194	2.121281	0.140149	-0.047450	0.003855	-0.694336	-0.116211	0.015625	-0.127735	-0.626870	0.028877	-0.768039
61760		9.622793	1.219089	1.740238	0.099576	-0.032169	0.008880	-0.696533	-0.112061	0.013428	-0.126882	-0.627467	0.028025	-0.767724
61761		9.566461	1.046074	1.781298	0.037153	-0.007287	0.017411	-0.694580	-0.109863	0.013184	-0.126408	-0.627671	0.027873	-0.767642
61762		9.521729	1.109557	2.006020	0.008862	0.004730	0.018410	-0.698730	-0.112061	0.017822	-0.126137	-0.627705	0.028009	-0.767653
61763		9.628475	1.017679	2.074391	0.027801	0.015845	0.013402	-0.696777	-0.107666	0.019775	-0.125782	-0.627739	0.027878	-0.767689
61764		9.582186	1.225027	2.062272	0.023873	0.019647	0.017926	-0.698975	-0.103516	0.010742	-0.125387	-0.627755	0.027892	-0.767739
61765		9.633676	1.081072	2.066987	0.004767	0.022132	0.020836	-0.703125	-0.109863	0.013184	-0.125092	-0.627570	0.028171	-0.767929
61766		9.678074	1.069984	2.111754	0.030940	0.030282	0.015260	-0.696533	-0.109863	0.009033	-0.124685	-0.627398	0.028019	-0.768140
61767		9.667021	0.927706	2.203156	0.014795	0.036118	0.012029	-0.696533	-0.109863	0.010986	-0.124455	-0.627087	0.027959	-0.768434
61768		9.534124	1.000342	2.283371	0.013408	0.016366	0.006152	-0.696533	-0.109863	0.009033	-0.124281	-0.627004	0.027895	-0.768533
61769		9.557491	0.982623	2.324200	0.025684	-0.006672	0.003420	-0.698975	-0.107666	0.017578	-0.124033	-0.627132	0.027723	-0.768474
61770		9.551958	1.142163	2.092174	0.050296	-0.015893	0.001731	-0.696777	-0.105469	0.015381	-0.123567	-0.627513	0.027364	-0.768251
61771		9.566024	1.060220	2.107312	0.021382	-0.016804	0.006341	-0.698975	-0.107666	0.010986	-0.123279	-0.627810	0.027351	-0.768056
61772		9.632128	1.048669	2.154711	0.000946	-0.021744	0.007804	-0.696777	-0.107666	0.017578	-0.123162	-0.628047	0.027515	-0.767874
61773		9.687671	1.127987	2.058432	0.002309	-0.018352	0.005327	-0.698730	-0.109863	0.013184	-0.123043	-0.628349	0.027626	-0.767642
61774		9.608433	1.173722	1.969423	-0.043997	-0.016664	0.017224	-0.696777	-0.107666	0.015381	-0.123203	-0.628486	0.028236	-0.767482
61775		9.556266	0.916930	2.155440	-0.020575	-0.016708	0.012101	-0.696777	-0.105469	0.017334	-0.123212	-0.628690	0.028608	-0.767300
61776		9.600294	0.989136	2.118310	0.008647	-0.022501	0.007109	-0.690674	-0.101318	0.019531	-0.123017	-0.629018	0.028704	-0.767059
61777		9.570992	1.167462	1.953759	-0.001858	-0.020192	0.008750	-0.692627	-0.105469	0.019531	-0.122864	-0.629328	0.028963	-0.766819
61778		9.542750	1.027633	2.020700	-0.009634	-0.014776	0.011568	-0.698975	-0.103516	0.015137	-0.122773	-0.629569	0.029229	-0.766626
61779		9.533408	0.984207	2.124456	-0.009608	-0.017402	0.010632	-0.692383	-0.107666	0.013184	-0.122695	-0.629760	0.029552	-0.766469
61780		9.555371	0.985729	2.125701	0.006445	-0.022791	0.005546	-0.697021	-0.103516	0.021729	-0.122585	-0.629999	0.029593	-0.766289
61781		9.520246	1.051512	2.015658	0.016167	-0.025250	0.000705	-0.694580	-0.105469	0.015381	-0.122365	-0.630393	0.029570	-0.766000
61782		9.498525	1.014708	1.999272	0.003741	-0.027292	0.001399	-0.696777	-0.107666	0.017578	-0.122293	-0.630686	0.029650	-0.765768
61783		9.522590	1.031299	1.984028	0.004757	-0.028138	-0.000681	-0.697021	-0.103516	0.019531	-0.122234	-0.631015	0.029664	-0.765506
61784		9.563885	1.012157	1.978265	0.011833	-0.024615	-0.002938	-0.692627	-0.105469	0.019531	-0.122105	-0.631337	0.029656	-0.765261
61785		9.567931	1.048926	1.860500	0.010684	-0.017278	-0.002530	-0.692627	-0.105469	0.021729	-0.122005	-0.631582	0.029606	-0.765076
61786		9.543273	1.085366	1.859829	-0.002669	-0.005125	-0.002373	-0.696777	-0.107666	0.019775	-0.122002	-0.631717	0.029658	-0.764964
61787		9.525599	1.044394	1.978299	-0.012912	0.000203	-0.000560	-0.692627	-0.105469	0.021729	-0.122087	-0.631754	0.029794	-0.764915
61788		9.585306	1.055948	2.036231	-0.007790	-0.002460	-0.001467	-0.694824	-0.103516	0.021729	-0.122117	-0.631850	0.029898	-0.764826
61789		9.566580	1.065899	2.015239	0.005578	-0.002473	-0.003717	-0.690430	-0.105469	0.021729	-0.122048	-0.631964	0.029894	-0.764743
61790		9.536828	1.034966	2.008916	-0.013331	-0.004020	-0.001661	-0.696777	-0.109863	0.017578	-0.122128	-0.632062	0.030045	-0.764644
61791		9.536498	1.048971	2.033663	-0.011178	-0.006340	-0.002553	-0.694580	-0.105469	0.017578	-0.122253	-0.632125	0.030132	-0.764568
61792		9.564915	1.094437	1.971162	-0.001249	-0.004981	-0.004018	-0.688477	-0.101318	0.021729	-0.122287	-0.632187	0.030181	-0.764509
61793		9.541269	1.026685	1.933233	-0.014194	-0.000746	-0.000663	-0.694580	-0.109863	0.019775	-0.122338	-0.632243	0.030405	-0.764446
61794		9.559664	1.041718	1.988907	-0.012499	0.001013	-0.005137	-0.692627	-0.105469	0.023926	-0.122491	-0.632262	0.030461	-0.764404
61795		9.525425	1.110882	1.954809	-0.019108	0.002323	-0.002045	-0.690186	-0.109863	0.015381	-0.122602	-0.632311	0.030648	-0.764338
61796		9.541143	1.047163	1.954426	-0.017604	0.006912	-0.003561	-0.697021	-0.103516	0.015137	-0.122827	-0.632204	0.030773	-0.764385
61797		9.540176	1.061227	1.982177	-0.014887	0.006783	-0.003058	-0.692627	-0.105469	0.013184	-0.122962	-0.632094	0.030987	-0.764445
61798		9.584809	1.083899	1.958058	-0.015943	0.008249	-0.002747	-0.690186	-0.109863	0.015381	-0.123142	-0.631947	0.031181	-0.764530
61799		9.555822	1.079115	1.966399	-0.024650	0.011086	-0.002011	-0.692383	-0.109863	0.017578	-0.123407	-0.631797	0.031381	-0.764603
61800		9.554741	1.057850	1.951626	-0.027720	0.014070	-0.002556	-0.692627	-0.105469	0.019531	-0.123678	-0.631647	0.031594	-0.764675
61801		9.548207	1.079636	1.962702	-0.024149	0.020987	-0.002810	-0.692383	-0.111816	0.017822	-0.123862	-0.631463	0.031806	-0.764788
61802		9.552686	1.101107	2.015841	-0.028119	0.022180	-0.000717	-0.692383	-0.109863	0.017578	-0.124134	-0.631246	0.031998	-0.764915
61803		9.546839	1.067515	2.057050	-0.020622	0.015152	-0.000733	-0.690430	-0.105469	0.010986	-0.124323	-0.631109	0.032154	-0.764991
61804		9.578476	1.097155	2.026634	-0.016010	0.012910	-0.000601	-0.694580	-0.109863	0.015381	-0.124481	-0.630912	0.032351	-0.765119
61805		9.589737	1.092457	2.054964	-0.020064	0.014115	-0.000008	-0.692139	-0.114014	0.011230	-0.124668	-0.630762	0.032521	-0.765205
61806		9.539584	1.114409	1.993530	-0.017900	0.015028	-0.000228	-0.692139	-0.114014	0.017822	-0.124925	-0.630558	0.032638	-0.765327
61807		9.517435	1.028304	2.010148	-0.012075	0.016981	-0.000806	-0.694336	-0.116211	0.022217	-0.125088	-0.630436	0.032662	-0.765399
61808		9.522075	1.091208	2.006030	-0.008343	0.014775	-0.000341	-0.692383	-0.109863	0.013184	-0.125205	-0.630402	0.032621	-0.765410
61809		9.561585	1.091758	2.029430	-0.005489	0.018303	-0.002942	-0.694336	-0.111816	0.015625	-0.125313	-0.630220	0.032626	-0.765542
61810		9.586015	1.076708	2.050589	-0.008142	0.021050	-0.001009	-0.694336	-0.114014	0.013428	-0.125425	-0.630043	0.032641	-0.765669
61811		9.589936	1.109369	2.019612	-0.007200	0.018995	-0.002553	-0.692139	-0.114014	0.015625	-0.125581	-0.629864	0.032624	-0.765791
61812		9.544476	1.082666	2.034286	-0.009445	0.022731	-0.000178	-0.694580	-0.109863	0.013184	-0.125723	-0.629678	0.032632	-0.765921
61813		9.532638	1.103009	2.017172	-0.004801	0.021093	-0.000307	-0.692383	-0.109863	0.009033	-0.125782	-0.629486	0.032647	-0.766069
61814		9.554835	1.064408	2.043816	-0.004137	0.021875	-0.000385	-0.694336	-0.114014	0.011230	-0.125864	-0.629239	0.032662	-0.766257
61815		9.570582	1.093109	2.037968	-0.005305	0.022752	-0.001305	-0.690186	-0.111816	0.013428	-0.125999	-0.629017	0.032639	-0.766418
61816		9.566025	1.053253	2.046711	-0.007057	0.024068	-0.002686	-0.694580	-0.109863	0.009033	-0.126126	-0.628813	0.032628	-0.766565
61817		9.537109	1.141466	2.048599	0.000918	0.022464	-0.002102	-0.696533	-0.111816	0.009033	-0.126168	-0.628584	0.032579	-0.766748
61818		9.547198	1.097368	2.041516	0.006453	0.024021	-0.001874	-0.687744	-0.118164	0.013672	-0.126185	-0.628354	0.032463	-0.766938
61819		9.567558	1.107695	2.046520	-0.000917	0.027196	0.000709	-0.694336	-0.111816	0.011230	-0.126321	-0.628149	0.032366	-0.767088
61820		9.588401	1.062310	2.081659	-0.010653	0.025650	0.000091	-0.692139	-0.118408	0.009277	-0.126441	-0.627913	0.032419	-0.767259
61821		9.556234	1.119654	2.096390	-0.010726	0.024437	0.000627	-0.694092	-0.118408	0.007080	-0.126661	-0.627674	0.032433	-0.767418
61822		9.589092	1.100923	2.091490	-0.013198	0.026995	0.000532	-0.696533	-0.114014	0.009033	-0.126903	-0.627383	0.032472	-0.767614
61823		9.572193	1.118161	2.139506	-0.022782	0.025417	0.002902	-0.698730	-0.112061	0.006836	-0.127115	-0.627120	0.032654	-0.767787
61824		9.577866	1.110838	2.141400	-0.014825	0.020573	0.002825	-0.694336	-0.114014	0.004639	-0.127235	-0.626893	0.032782	-0.767947
61825		9.585753	1.106705	2.118705	-0.011062	0.018971	0.003038	-0.698730	-0.111816	0.002441	-0.127366	-0.626668	0.032863	-0.768105
61826		9.590704	1.103693	2.135614	-0.010487	0.016533	0.000784	-0.700928	-0.112061	0.006836	-0.127474	-0.626445	0.032941	-0.768266
61827		9.565040	1.073138	2.161962	-0.011888	0.013757	0.001467	-0.696289	-0.118408	0.009277	-0.127574	-0.626302	0.033042	-0.768361
61828		9.578817	1.133089	2.129552	-0.003158	0.011512	0.000520	-0.692139	-0.116211	0.009277	-0.127717	-0.626230	0.033020	-0.768397
61829		9.576025	1.099244	2.127782	-0.001817	0.009206	0.001459	-0.696533	-0.114014	0.013428	-0.127812	-0.626183	0.033004	-0.768420
61830		9.572347	1.079657	2.151340	0.007909	0.008748	-0.000613	-0.698486	-0.116211	0.013428	-0.127799	-0.626204	0.032896	-0.768410
61831		9.565180	1.085550	2.156815	-0.002433	0.003167	-0.000364	-0.693848	-0.124756	0.009521	-0.127891	-0.626262	0.032891	-0.768347
61832		9.569313	1.112075	2.128677	0.006958	0.001701	-0.001381	-0.698730	-0.112061	0.011230	-0.128059	-0.626307	0.032737	-0.768289
61833		9.595044	1.138833	2.090288	0.008068	0.004081	-0.001277	-0.696289	-0.118408	0.011475	-0.128013	-0.626345	0.032645	-0.768270
61834		9.571911	1.112341	2.090281	-0.001754	0.007187	0.000241	-0.696533	-0.114014	0.004639	-0.128129	-0.626341	0.032618	-0.768255
61835		9.564853	1.138111	2.114710	0.000656	0.006650	0.001554	-0.698486	-0.118408	0.007080	-0.128143	-0.626267	0.032589	-0.768314
61836		9.561192	1.087575	2.109623	-0.000413	0.004880	0.001182	-0.698730	-0.109863	0.008789	-0.128231	-0.626238	0.032556	-0.768324
61837		9.559444	1.125836	2.079306	0.003330	0.007140	0.000313	-0.696289	-0.118408	0.007080	-0.128172	-0.626211	0.032524	-0.768358
61838		9.577608	1.126206	2.110973	0.000186	0.007681	0.002323	-0.698486	-0.114014	0.004639	-0.128248	-0.626158	0.032488	-0.768390
61839		9.587623	1.094823	2.126397	0.000093	0.010330	0.001770	-0.698486	-0.114014	0.004639	-0.128258	-0.626052	0.032462	-0.768475
61840		9.567849	1.138274	2.152390	-0.000140	0.007910	0.001342	-0.698486	-0.116211	0.007080	-0.128273	-0.625972	0.032440	-0.768540
61841		9.561398	1.099156	2.104941	0.002839	0.010803	0.002030	-0.700439	-0.120605	0.013672	-0.128296	-0.625896	0.032388	-0.768599
61842		9.558225	1.100087	2.055050	-0.000447	0.011381	0.001039	-0.696533	-0.111816	0.006836	-0.128427	-0.625883	0.032363	-0.768589
61843		9.577684	1.092377	2.147492	-0.003958	0.011542	0.002334	-0.700684	-0.116211	0.009277	-0.128434	-0.625789	0.032393	-0.768664
61844		9.579293	1.105010	2.135951	0.000433	0.011342	0.000716	-0.696533	-0.114014	0.004639	-0.128486	-0.625732	0.032364	-0.768703
61845		9.564855	1.075611	2.109505	0.003324	0.011012	-0.000773	-0.703125	-0.109863	0.000244	-0.128492	-0.625635	0.032284	-0.768783
61846		9.569971	1.159691	2.122520	0.008285	0.009135	0.000108	-0.698730	-0.112061	0.011230	-0.128370	-0.625518	0.032178	-0.768904
61847		9.579829	1.119057	2.128546	0.003755	0.009372	-0.001276	-0.696289	-0.118408	0.002686	-0.128360	-0.625510	0.032128	-0.768914
61848		9.587251	1.110120	2.109987	0.008612	0.008908	0.001089	-0.689941	-0.114014	0.004639	-0.128370	-0.625427	0.031994	-0.768986
61849		9.578539	1.154078	2.084708	0.004170	0.012370	0.001883	-0.698730	-0.114014	0.009033	-0.128356	-0.625325	0.031920	-0.769074
61850		9.567908	1.084546	2.143255	0.001596	0.016343	0.003261	-0.700928	-0.109863	0.008789	-0.128346	-0.625226	0.031902	-0.769157
61851		9.569442	1.117157	2.151234	0.001840	0.014896	0.004778	-0.698730	-0.114014	0.011230	-0.128254	-0.625138	0.031914	-0.769243
61852		9.584733	1.118003	2.132020	0.001026	0.012915	0.003887	-0.694336	-0.114014	0.011230	-0.128248	-0.625097	0.031919	-0.769277
61853		9.592067	1.128293	2.133425	0.004264	0.015599	0.004060	-0.700928	-0.112061	0.009033	-0.128223	-0.625036	0.031885	-0.769332
61854		9.565079	1.136003	2.127453	0.000301	0.014160	0.005171	-0.696533	-0.111816	0.009033	-0.128176	-0.624960	0.031909	-0.769401
61855		9.575961	1.130384	2.155896	-0.002072	0.016078	0.008332	-0.696289	-0.118408	0.004883	-0.128122	-0.624862	0.031972	-0.769487
61856		9.580002	1.099238	2.160437	-0.003483	0.013298	0.009013	-0.698486	-0.116211	0.004883	-0.128156	-0.624750	0.032016	-0.769570
61857		9.581913	1.075405	2.197433	-0.000307	0.012128	0.008779	-0.696533	-0.111816	0.002441	-0.128134	-0.624656	0.032043	-0.769649
61858		9.594068	1.121037	2.178710	0.002350	0.009373	0.006869	-0.692139	-0.116211	0.013428	-0.128046	-0.624570	0.032039	-0.769734
61859		9.592739	1.092447	2.168840	-0.000801	0.004039	0.007247	-0.700684	-0.114014	0.006836	-0.128075	-0.624642	0.032097	-0.769668
61860		9.574243	1.155476	2.120046	0.006923	0.009745	0.007993	-0.698730	-0.114014	0.006836	-0.127978	-0.624603	0.032071	-0.769717
61861		9.600220	1.058966	2.133632	-0.007637	0.010054	0.009421	-0.696533	-0.109863	0.000244	-0.127986	-0.624538	0.032192	-0.769764
61862		9.579474	1.049414	2.205362	0.006901	0.006500	0.007317	-0.698486	-0.118408	0.009277	-0.127829	-0.624467	0.032150	-0.769849
61863		9.601144	1.103073	2.166568	0.007970	0.002392	0.006070	-0.696289	-0.116211	0.007080	-0.127815	-0.624529	0.032100	-0.769803
61864		9.586308	1.086086	2.163746	0.001495	0.002910	0.007336	-0.702881	-0.116211	0.007080	-0.127805	-0.624553	0.032117	-0.769785
61865		9.582881	1.100150	2.137501	0.007214	0.002255	0.002874	-0.698486	-0.116211	0.007080	-0.127785	-0.624592	0.032055	-0.769758
61866		9.567971	1.083741	2.134708	0.004798	0.003567	0.006300	-0.700684	-0.116211	0.007080	-0.127756	-0.624614	0.032034	-0.769747
61867		9.571299	1.102313	2.114271	0.005892	0.006577	0.004637	-0.702637	-0.118408	0.002686	-0.127734	-0.624608	0.031987	-0.769757
61868		9.575650	1.082714	2.125887	0.003725	0.005668	0.004834	-0.700684	-0.116211	0.007080	-0.127732	-0.624567	0.031935	-0.769793
61869		9.607528	1.066522	2.225233	-0.003759	0.004399	0.007224	-0.698730	-0.111816	0.000244	-0.127760	-0.624566	0.032006	-0.769786
61870		9.593865	1.121684	2.195077	0.013546	0.002542	0.003360	-0.705078	-0.116211	0.015625	-0.127604	-0.624548	0.031862	-0.769832
61871		9.575485	1.114380	2.080190	0.005185	0.005188	0.004977	-0.705078	-0.112061	0.006836	-0.127620	-0.624633	0.031882	-0.769760
61872		9.570703	1.086988	2.110237	-0.000882	0.006701	0.006686	-0.698486	-0.114014	0.002441	-0.127575	-0.624610	0.031940	-0.769783
61873		9.576192	1.103911	2.143183	-0.000084	0.009312	0.005808	-0.694336	-0.116211	0.004883	-0.127543	-0.624525	0.031935	-0.769858
61874		9.586105	1.082200	2.167802	0.008065	0.007487	0.004442	-0.700684	-0.116211	0.007080	-0.127502	-0.624497	0.031843	-0.769892
61875		9.592640	1.075873	2.165465	0.003903	0.008111	0.003759	-0.696533	-0.114014	0.004639	-0.127507	-0.624475	0.031807	-0.769910
61876		9.599237	1.079594	2.172309	0.000402	0.005642	0.004098	-0.700684	-0.114014	0.006836	-0.127499	-0.624450	0.031801	-0.769932
61877		9.568173	1.096270	2.144673	0.009290	0.008454	0.003067	-0.698730	-0.111816	0.000244	-0.127442	-0.624431	0.031717	-0.769960
61878		9.571194	1.080956	2.173059	0.008580	0.007065	0.003408	-0.698730	-0.109863	0.004639	-0.127326	-0.624366	0.031611	-0.770036
61879		9.584624	1.069241	2.166350	0.007291	0.006115	0.003283	-0.698730	-0.109863	0.002441	-0.127223	-0.624348	0.031553	-0.770070
61880		9.611820	1.066443	2.170051	0.001539	0.005390	0.003259	-0.698730	-0.114014	0.006836	-0.127155	-0.624308	0.031539	-0.770115
61881		9.585403	1.095321	2.180051	0.004903	0.004016	0.001016	-0.700928	-0.112061	0.006836	-0.127154	-0.624328	0.031487	-0.770100
61882		9.587510	1.087815	2.148149	0.002353	0.005363	0.001439	-0.698730	-0.114014	0.006836	-0.127145	-0.624330	0.031471	-0.770101
61883		9.584888	1.064463	2.154404	0.004112	0.005278	0.000799	-0.700684	-0.116211	0.000488	-0.127152	-0.624337	0.031422	-0.770096
61884		9.593855	1.092381	2.155693	0.003123	0.004725	-0.000112	-0.698486	-0.116211	0.004883	-0.127166	-0.624293	0.031334	-0.770134
61885		9.578707	1.076846	2.153428	0.000741	0.004640	0.000331	-0.700684	-0.114014	0.004639	-0.127219	-0.624284	0.031297	-0.770133
61886		9.587708	1.094285	2.145378	0.000440	0.004242	0.001117	-0.700928	-0.107666	0.010986	-0.127238	-0.624276	0.031279	-0.770137
61887		9.587459	1.093804	2.146733	-0.001333	0.006966	0.002697	-0.700684	-0.114014	0.006836	-0.127215	-0.624291	0.031351	-0.770126
61888		9.587078	1.103568	2.157980	0.000604	0.009322	0.000981	-0.700684	-0.116211	0.011230	-0.127247	-0.624254	0.031336	-0.770152
61889		9.584285	1.079926	2.165102	0.001460	0.008046	0.002699	-0.700684	-0.118408	0.009277	-0.127303	-0.624267	0.031346	-0.770131
61890		9.596701	1.116394	2.136477	-0.000254	0.008741	0.003069	-0.703125	-0.109863	0.004639	-0.127381	-0.624256	0.031352	-0.770127
61891		9.577783	1.080486	2.157064	0.002738	0.011637	0.003765	-0.698486	-0.118408	0.004883	-0.127311	-0.624178	0.031344	-0.770202
61892		9.577365	1.079812	2.159255	-0.000452	0.006926	0.002376	-0.698730	-0.111816	0.000244	-0.127372	-0.624149	0.031319	-0.770217
61893		9.588366	1.075253	2.185860	0.002040	0.007608	0.003165	-0.694336	-0.114014	0.004639	-0.127309	-0.624076	0.031275	-0.770288
61894		9.583549	1.083323	2.168005	0.003479	0.007750	0.001544	-0.700928	-0.112061	0.006836	-0.127305	-0.624043	0.031218	-0.770318
61895		9.604894	1.082926	2.159944	0.001701	0.008460	0.000413	-0.698730	-0.111816	0.004639	-0.127315	-0.624018	0.031203	-0.770337
61896		9.596364	1.102429	2.191822	0.001855	0.009667	0.001375	-0.698730	-0.114014	0.009033	-0.127299	-0.623965	0.031174	-0.770384
61897		9.587043	1.088434	2.126817	-0.000103	0.007935	0.001320	-0.702881	-0.114258	0.009033	-0.127349	-0.623962	0.031187	-0.770377
61898		9.572591	1.065033	2.184962	0.001612	0.007240	0.000951	-0.698486	-0.114014	0.002441	-0.127389	-0.623968	0.031188	-0.770365
61899		9.566946	1.101407	2.125888	-0.002960	0.006871	-0.000186	-0.702881	-0.112061	0.002441	-0.127434	-0.623918	0.031174	-0.770399
61900		9.593524	1.064403	2.178869	-0.002928	0.010122	0.000485	-0.700684	-0.114014	0.004639	-0.127452	-0.623836	0.031177	-0.770463
61901		9.597780	1.090389	2.152722	0.001004	0.010946	-0.000344	-0.696533	-0.111816	0.006836	-0.127482	-0.623772	0.031138	-0.770511
61902		9.585428	1.070486	2.188104	-0.000579	0.011458	-0.003492	-0.698486	-0.116211	0.007080	-0.127550	-0.623721	0.031108	-0.770542
61903		9.575917	1.108177	2.170031	-0.003549	0.009954	0.000286	-0.698730	-0.112061	0.006836	-0.127647	-0.623682	0.031125	-0.770557
61904		9.585437	1.087742	2.195125	0.006196	0.009472	-0.001714	-0.700928	-0.112061	0.002441	-0.127645	-0.623661	0.031051	-0.770577
61905		9.592996	1.099416	2.195088	0.002689	0.007001	-0.001382	-0.702881	-0.116211	0.004883	-0.127638	-0.623623	0.030992	-0.770612
61906		9.604322	1.109811	2.154842	0.003785	0.008152	0.000761	-0.702881	-0.112061	0.002441	-0.127656	-0.623596	0.030939	-0.770633
61907		9.572751	1.102416	2.185406	-0.005155	0.011248	0.001880	-0.700928	-0.112061	0.002441	-0.127679	-0.623504	0.030978	-0.770702
61908		9.590372	1.082190	2.199489	0.002952	0.008806	0.000811	-0.702637	-0.120605	0.002686	-0.127650	-0.623451	0.030934	-0.770751
61909		9.575480	1.111187	2.159096	0.001191	0.008892	0.001446	-0.702881	-0.116211	0.004883	-0.127712	-0.623398	0.030877	-0.770786
61910		9.583836	1.093712	2.200513	-0.003576	0.008722	0.002319	-0.698486	-0.114014	0.002441	-0.127773	-0.623356	0.030910	-0.770808
61911		9.593505	1.072717	2.225069	0.003543	0.005725	0.000340	-0.700928	-0.109863	0.006836	-0.127764	-0.623337	0.030850	-0.770828
61912		9.578906	1.071375	2.155958	0.006504	0.005370	0.000371	-0.700684	-0.114014	0.006836	-0.127719	-0.623358	0.030816	-0.770819
61913		9.582178	1.121364	2.163692	-0.000706	0.007147	0.002887	-0.694336	-0.111816	0.009033	-0.127745	-0.623351	0.030848	-0.770820
61914		9.590613	1.083555	2.186368	0.000874	0.009121	0.000461	-0.705078	-0.116211	0.007080	-0.127779	-0.623346	0.030858	-0.770818
61915		9.599433	1.111251	2.188523	0.001617	0.007246	0.000952	-0.694336	-0.116211	0.004883	-0.127825	-0.623344	0.030851	-0.770812
61916		9.578571	1.097460	2.174348	0.002863	0.007588	0.001349	-0.700928	-0.112061	0.004639	-0.127845	-0.623326	0.030802	-0.770825
61917		9.599977	1.097074	2.166310	0.003790	0.008156	0.000763	-0.702881	-0.116211	0.009033	-0.127826	-0.623300	0.030769	-0.770851
61918		9.582151	1.088547	2.197646	-0.002785	0.007461	0.002536	-0.705078	-0.116211	0.004883	-0.127904	-0.623304	0.030827	-0.770832
61919		9.595520	1.087277	2.200477	0.005565	0.005428	-0.000809	-0.702881	-0.116211	0.009033	-0.127920	-0.623311	0.030758	-0.770827
61920		9.595888	1.121611	2.153198	0.002070	0.004351	0.003996	-0.702881	-0.112061	0.004639	-0.127945	-0.623352	0.030787	-0.770788
61921		9.589465	1.088652	2.190328	0.004580	0.006893	0.000985	-0.698486	-0.114014	0.002441	-0.127918	-0.623339	0.030756	-0.770804
61922		9.583492	1.100538	2.188761	0.001422	0.007449	0.002966	-0.700684	-0.118408	0.002686	-0.127896	-0.623300	0.030734	-0.770840
61923		9.583904	1.051489	2.213026	0.001011	0.006454	0.002520	-0.704834	-0.116211	0.002686	-0.127916	-0.623274	0.030697	-0.770860
61924		9.592830	1.099577	2.232878	0.007249	0.003497	0.000867	-0.698730	-0.112061	0.006836	-0.127886	-0.623285	0.030611	-0.770859
61925		9.586491	1.119761	2.170570	0.010197	0.003766	-0.000868	-0.700684	-0.114014	0.009033	-0.127849	-0.623329	0.030527	-0.770833
61926		9.595035	1.082928	2.192090	0.005475	0.004207	-0.000270	-0.698730	-0.112061	0.013428	-0.127872	-0.623377	0.030500	-0.770791
61927		9.607759	1.120185	2.162816	0.007121	0.008189	0.001510	-0.700684	-0.114014	0.000244	-0.127884	-0.623420	0.030505	-0.770755
61928		9.570633	1.104918	2.171027	0.005664	0.008673	0.001358	-0.705078	-0.116211	0.004883	-0.127826	-0.623360	0.030416	-0.770816
61929		9.588332	1.074629	2.175538	0.000318	0.008943	0.001755	-0.702881	-0.114014	0.002441	-0.127856	-0.623323	0.030411	-0.770842
61930		9.561100	1.068951	2.234099	0.003833	0.004269	0.003362	-0.702637	-0.118408	0.007080	-0.127809	-0.623318	0.030384	-0.770854
61931		9.598398	1.108057	2.170968	0.008604	0.004439	0.002497	-0.705078	-0.112061	0.000244	-0.127796	-0.623355	0.030312	-0.770830
61932		9.589958	1.117587	2.192427	0.007805	0.006328	0.000504	-0.705078	-0.112061	0.006836	-0.127718	-0.623321	0.030221	-0.770874
61933		9.605227	1.084675	2.219870	0.001224	0.005633	0.002270	-0.702881	-0.116211	0.004883	-0.127723	-0.623330	0.030258	-0.770864
61934		9.585055	1.125677	2.175540	0.007701	0.007752	0.001979	-0.698730	-0.112061	0.009033	-0.127692	-0.623316	0.030182	-0.770883
61935		9.600406	1.072067	2.184732	-0.000232	0.006117	0.002116	-0.702881	-0.114258	0.009033	-0.127725	-0.623335	0.030235	-0.770861
61936		9.604355	1.093559	2.233292	0.001718	0.003350	0.005049	-0.700928	-0.112061	0.000244	-0.127727	-0.623382	0.030290	-0.770820
61937		9.591311	1.138292	2.193428	0.001929	0.002525	0.004803	-0.700928	-0.109863	0.006836	-0.127653	-0.623374	0.030288	-0.770839
61938		9.592032	1.068344	2.198325	-0.000104	0.003448	0.004180	-0.704834	-0.116211	0.002686	-0.127637	-0.623400	0.030360	-0.770817
61939		9.570103	1.068218	2.208734	0.004456	0.002419	0.000857	-0.700684	-0.118408	0.002686	-0.127623	-0.623417	0.030300	-0.770808
61940		9.598051	1.120364	2.182125	0.001354	0.002965	0.004334	-0.700928	-0.112061	0.004639	-0.127611	-0.623423	0.030274	-0.770806
61941		9.595585	1.096170	2.187727	0.000894	0.001359	0.004159	-0.698486	-0.116211	0.007080	-0.127583	-0.623456	0.030309	-0.770783
61942		9.594391	1.078814	2.185918	0.009299	0.001953	0.003263	-0.694336	-0.114014	0.006836	-0.127537	-0.623514	0.030241	-0.770746
61943		9.592606	1.100011	2.152104	0.006855	0.001881	0.002195	-0.702881	-0.116211	-0.001709	-0.127506	-0.623568	0.030192	-0.770710
61944		9.584877	1.070921	2.204995	0.003788	0.003662	0.003631	-0.705078	-0.114258	0.006836	-0.127437	-0.623539	0.030120	-0.770748
61945		9.594183	1.077667	2.187399	0.004306	0.003233	0.002601	-0.702881	-0.116211	0.007080	-0.127426	-0.623573	0.030116	-0.770722
61946		9.595405	1.093772	2.189716	-0.001435	-0.000760	0.003385	-0.698486	-0.116211	0.007080	-0.127462	-0.623638	0.030165	-0.770661
61947		9.607978	1.075584	2.188780	0.005301	-0.000883	-0.000123	-0.702881	-0.112061	0.002441	-0.127477	-0.623717	0.030112	-0.770597
61948		9.580107	1.115933	2.153872	0.004997	0.000747	0.003366	-0.700684	-0.116211	0.009277	-0.127407	-0.623743	0.030088	-0.770589
61949		9.572611	1.066114	2.187817	0.001987	0.000492	0.003598	-0.696533	-0.111816	0.002441	-0.127427	-0.623815	0.030113	-0.770526
61950		9.590056	1.094127	2.177135	0.005141	0.002579	0.002555	-0.705078	-0.114014	0.000244	-0.127360	-0.623824	0.030066	-0.770532
61951		9.603717	1.092373	2.178947	-0.000304	0.001630	0.003489	-0.700684	-0.116211	0.007080	-0.127325	-0.623818	0.030067	-0.770543
61952		9.601133	1.078742	2.193839	0.001555	0.002764	0.002317	-0.698486	-0.114014	0.004639	-0.127345	-0.623851	0.030066	-0.770512
61953		9.577479	1.100131	2.170084	0.000567	0.002208	0.001403	-0.705078	-0.114258	0.006836	-0.127353	-0.623872	0.030060	-0.770494
61954		9.581729	1.081084	2.181063	-0.000315	0.002251	0.001719	-0.707275	-0.112061	0.009033	-0.127383	-0.623904	0.030093	-0.770462
61955		9.576238	1.082526	2.168575	0.003242	-0.001813	0.003064	-0.698486	-0.116211	0.009277	-0.127377	-0.623993	0.030142	-0.770389
61956		9.596884	1.085288	2.174971	-0.001129	-0.000362	0.002600	-0.700684	-0.114014	0.006836	-0.127427	-0.624065	0.030183	-0.770321
61957		9.578217	1.070196	2.211119	-0.003039	-0.004133	0.001338	-0.700684	-0.114014	0.002441	-0.127474	-0.624153	0.030240	-0.770240
61958		9.594719	1.081834	2.197052	0.003450	-0.004665	0.000115	-0.703125	-0.109863	0.008789	-0.127449	-0.624226	0.030191	-0.770186
61959		9.585191	1.082317	2.154364	0.008224	-0.004498	-0.000748	-0.700684	-0.116211	0.002686	-0.127424	-0.624345	0.030169	-0.770095
61960		9.588005	1.085371	2.129584	0.003240	-0.003839	0.000360	-0.696533	-0.111816	0.002441	-0.127408	-0.624410	0.030109	-0.770047
61961		9.562488	1.076706	2.169281	0.000584	-0.003087	-0.000463	-0.702881	-0.116211	0.007080	-0.127397	-0.624461	0.030086	-0.770008
61962		9.570822	1.067519	2.148132	0.004476	-0.002876	-0.001011	-0.696533	-0.111816	0.000244	-0.127416	-0.624547	0.030038	-0.769938
61963		9.557665	1.092411	2.232753	0.004928	-0.008415	0.001107	-0.698730	-0.112061	0.006836	-0.127338	-0.624640	0.029978	-0.769878
61964		9.591973	1.123014	2.196732	0.016471	-0.012261	-0.000661	-0.696533	-0.109863	0.010986	-0.127231	-0.624829	0.029847	-0.769746
61965		9.560789	1.084118	2.268726	0.049647	-0.018631	-0.002489	-0.698730	-0.109863	0.010986	-0.126894	-0.625158	0.029427	-0.769552
61966		9.573743	0.829844	2.415319	0.047518	-0.032142	-0.008729	-0.696533	-0.114014	0.009033	-0.126624	-0.625611	0.029000	-0.769244
61967		9.542179	1.002197	2.322422	0.060574	-0.048438	-0.018545	-0.696289	-0.116211	0.007080	-0.126342	-0.626228	0.028351	-0.768813
61968		9.509701	1.000840	2.306206	0.026360	-0.072771	-0.022248	-0.694336	-0.111816	0.011230	-0.126345	-0.627006	0.028009	-0.768190
61969		9.472470	1.039787	2.384529	0.036039	-0.101903	-0.027429	-0.696533	-0.114014	0.009033	-0.126304	-0.628096	0.027624	-0.767320
61970		9.526748	1.073874	2.307531	0.042070	-0.126733	-0.030450	-0.696533	-0.112061	0.011230	-0.126220	-0.629407	0.027164	-0.766275
61971		9.576228	1.118074	2.297137	0.047697	-0.150466	-0.032725	-0.694336	-0.114014	0.013428	-0.126090	-0.630951	0.026682	-0.765043
61972		9.425450	1.096647	2.386188	0.036500	-0.188972	-0.033926	-0.687988	-0.111816	0.017822	-0.126052	-0.632839	0.026344	-0.763500
61973		9.526441	0.988806	2.490368	0.070482	-0.239589	-0.043840	-0.681641	-0.111816	0.024414	-0.125811	-0.635268	0.025693	-0.761542
61974		9.538851	1.202659	2.585159	0.066960	-0.300189	-0.046478	-0.681641	-0.114014	0.028809	-0.125611	-0.638277	0.025155	-0.759073
61975		9.384646	1.012561	2.921396	0.109351	-0.384529	-0.058848	-0.668945	-0.107422	0.035156	-0.125165	-0.642137	0.024237	-0.755914
61976		9.333487	1.076945	3.395361	0.104468	-0.538289	-0.059304	-0.664795	-0.103271	0.041504	-0.124657	-0.647417	0.023606	-0.751501
61977		9.258740	0.832369	3.878193	0.120909	-0.731922	-0.069952	-0.658447	-0.105225	0.056885	-0.124008	-0.654485	0.023023	-0.745481
61978		9.281387	0.903059	4.427742	0.126500	-0.982888	-0.077467	-0.639160	-0.103027	0.067627	-0.123358	-0.663844	0.022719	-0.737278
61979		8.927217	0.881727	3.843562	0.292863	-1.250394	-0.100771	-0.620361	-0.092285	0.084717	-0.121497	-0.675791	0.021104	-0.726705
61980		8.494672	1.905408	2.689503	0.461113	-1.473409	-0.085597	-0.594971	-0.085449	0.108643	-0.117986	-0.689800	0.018423	-0.714084
61981		8.561046	2.124795	2.868590	0.311502	-1.733745	-0.014473	-0.567383	-0.081055	0.128174	-0.115015	-0.705597	0.018059	-0.698984
61982		8.589213	0.884512	2.163717	0.310371	-1.972428	-0.008046	-0.535645	-0.070068	0.151611	-0.111877	-0.723082	0.018088	-0.681402
61983		6.977985	-0.259609	-1.724960	0.265743	-1.978957	-0.020811	-0.503418	-0.069824	0.171387	-0.109180	-0.740109	0.018378	-0.663310
61984		6.138044	-0.551231	-4.579232	0.186376	-1.755189	-0.095777	-0.473389	-0.069580	0.188965	-0.107832	-0.754779	0.018325	-0.646796
61985		9.751578	-0.847740	-1.781217	0.367882	-1.564585	-0.258490	-0.447998	-0.060791	0.206055	-0.106088	-0.767852	0.015016	-0.631604
61986		9.153976	0.318371	-2.251566	1.008683	-1.431741	-0.363364	-0.420898	-0.045654	0.218750	-0.099003	-0.780393	0.005473	-0.617378
61987		6.254061	2.516329	-7.414253	0.857918	-0.996332	-0.304120	-0.402344	-0.026123	0.231201	-0.092924	-0.789078	-0.002864	-0.607218
61988		8.243085	3.256702	-9.985762	0.643249	-0.242547	-0.179509	-0.405273	-0.007080	0.232422	-0.087971	-0.791657	-0.009222	-0.604530
61989		11.505897	3.383409	-12.165410	0.359393	0.560908	-0.013052	-0.411621	-0.007080	0.234619	-0.084468	-0.787817	-0.012677	-0.609958
61990		12.755925	3.911912	-14.415615	-0.080499	1.463613	0.174630	-0.441406	-0.013672	0.219482	-0.083705	-0.776507	-0.011885	-0.624411
61991		18.287388	4.140039	-8.781390	-0.820620	2.138145	0.199143	-0.479248	-0.029053	0.196045	-0.089783	-0.758719	-0.005783	-0.645175
61992		16.675837	3.645506	-1.485288	-1.553062	2.482934	0.258476	-0.523438	-0.050781	0.168457	-0.102204	-0.736517	0.006400	-0.668623
61993		10.273880	1.177384	2.745297	-2.470447	2.707342	0.452164	-0.569092	-0.087402	0.119629	-0.121286	-0.709977	0.027722	-0.693148
61994		4.627746	-3.783389	5.585025	-2.408356	2.583764	0.489262	-0.610840	-0.113525	0.074707	-0.139204	-0.683128	0.048965	-0.715235
61995		1.696730	-4.404936	1.119835	-0.112424	1.818725	0.085702	-0.630371	-0.111328	0.063721	-0.140498	-0.666495	0.047529	-0.730607
61996		-0.466752	1.834462	2.459924	0.416882	0.557410	-0.073245	-0.643311	-0.103027	0.052490	-0.138058	-0.662205	0.042159	-0.735287
61997		-0.596897	1.564318	3.797618	-0.670466	-0.084862	0.160186	-0.647461	-0.111572	0.048340	-0.142116	-0.661766	0.049807	-0.734430
61998		-0.166051	-0.231643	4.573907	-0.386548	-0.265319	0.066497	-0.634521	-0.113525	0.055176	-0.144556	-0.663508	0.054378	-0.732054
61999		0.369483	0.542980	5.367633	-0.089996	-0.450223	-0.054936	-0.629883	-0.122070	0.051025	-0.145514	-0.667535	0.055555	-0.728105
62000		0.440160	0.525911	5.096007	0.100037	-0.676305	-0.157396	-0.616943	-0.122070	0.068604	-0.145646	-0.673994	0.054546	-0.722180
62001		-0.045803	1.197647	4.501685	0.097352	-0.959147	-0.230545	-0.599609	-0.126221	0.073242	-0.146246	-0.682971	0.053443	-0.713658
62002		-0.965057	-0.450209	1.139440	0.032905	-1.756135	-0.210275	-0.569580	-0.130127	0.104004	-0.146628	-0.698701	0.054515	-0.698101
62003		13.751706	-10.145984	7.647520	2.164515	-2.971756	-0.110124	-0.521729	-0.095703	0.155029	-0.126508	-0.727956	0.040021	-0.672661
62004		21.357712	-0.823376	1.408532	2.636862	-2.262521	-0.151001	-0.482910	-0.048340	0.196777	-0.102565	-0.750553	0.020039	-0.652495
62005		21.232116	7.821301	-11.566154	0.714793	-1.823244	-0.090987	-0.453369	-0.035156	0.202881	-0.096146	-0.766155	0.015721	-0.635229
62006		17.676253	8.314128	-22.528315	0.876608	-0.656873	-0.197128	-0.447266	-0.024414	0.215576	-0.089201	-0.772412	0.007670	-0.628779
62007		16.485931	3.851431	-23.261473	-0.597653	0.995159	0.179365	-0.468018	-0.046143	0.198975	-0.093663	-0.763860	0.012978	-0.638417
62008		21.040377	2.544194	-11.941482	-1.389498	2.306975	0.132523	-0.512207	-0.065674	0.171143	-0.106212	-0.743422	0.022617	-0.659948
62009		18.102677	3.239597	-0.252156	-2.043129	3.061951	0.131864	-0.558105	-0.093750	0.126465	-0.124883	-0.714693	0.036608	-0.687225
62010		9.232568	-4.032892	9.132120	-3.153454	3.633428	0.332451	-0.616455	-0.136963	0.058350	-0.151643	-0.677190	0.060913	-0.717432
62011		0.980768	-7.449597	-2.131072	0.344049	2.385527	-0.011299	-0.644531	-0.128662	0.038330	-0.150613	-0.656208	0.053202	-0.737480
62012		-1.481296	3.214642	0.726271	1.223714	-0.088500	-0.159023	-0.638672	-0.115723	0.059570	-0.142026	-0.659409	0.040840	-0.737116
62013		-0.498733	0.912801	4.128616	-0.326326	-0.794795	0.215620	-0.631836	-0.124268	0.062012	-0.142363	-0.666056	0.047075	-0.730675
62014		-0.015570	1.031578	4.577354	0.120163	-0.970414	0.100618	-0.615234	-0.111328	0.072510	-0.139903	-0.675074	0.048570	-0.722733
62015		0.399352	0.576803	4.874660	-0.069685	-1.018307	0.048042	-0.602295	-0.117676	0.083740	-0.139460	-0.684114	0.051401	-0.714070
62016		0.494423	1.497892	5.245509	0.174437	-1.083178	-0.110959	-0.585205	-0.115479	0.101074	-0.138274	-0.694136	0.050789	-0.704610
62017		0.543373	1.960769	4.930757	-0.188527	-1.297559	-0.116067	-0.565674	-0.123779	0.110107	-0.140105	-0.705258	0.053672	-0.692893
62018		0.375821	0.979666	6.264250	-0.397078	-1.416590	-0.079550	-0.541748	-0.132080	0.123779	-0.143325	-0.716802	0.058857	-0.679845
62019		0.096941	0.975285	4.768036	-0.355356	-1.495820	-0.127212	-0.517578	-0.146973	0.126709	-0.146459	-0.728870	0.063367	-0.665795
62020		1.551883	-2.286190	1.213555	0.079392	-1.863806	-0.352388	-0.477051	-0.142334	0.146240	-0.147139	-0.744629	0.062836	-0.648020
62021		10.334875	-2.823650	-5.111893	3.979701	-2.770234	-0.386399	-0.427979	-0.082031	0.202637	-0.110797	-0.773324	0.031959	-0.623437
62022		19.231347	-0.834976	-2.384208	0.539436	-2.157004	0.411760	-0.404785	-0.075439	0.228760	-0.101480	-0.790431	0.034696	-0.603089
62023		27.000224	1.983343	-11.125861	0.637373	-1.274545	0.060628	-0.379150	-0.072998	0.230957	-0.094175	-0.800720	0.032105	-0.590718
62024		25.786405	8.494408	-20.897592	0.635269	-0.337275	-0.317305	-0.371094	-0.060303	0.243408	-0.090043	-0.804073	0.024648	-0.587155
62025		18.688735	10.499588	-23.088332	-0.248105	1.119982	-0.037407	-0.400635	-0.071045	0.226318	-0.093163	-0.795537	0.024824	-0.598185
62026		20.673634	2.635454	-12.821096	-1.831859	2.541303	0.330170	-0.442139	-0.101318	0.197021	-0.109626	-0.773735	0.038783	-0.622746
62027		17.263972	2.941932	1.219112	-3.259084	3.253313	0.702978	-0.504639	-0.148926	0.135498	-0.137058	-0.742363	0.066383	-0.652461
62028		8.015876	-9.526018	6.337064	-3.367697	3.451936	0.501462	-0.556885	-0.181396	0.079834	-0.166814	-0.706737	0.092414	-0.681289
62029		2.971807	-4.294606	4.112544	1.798841	1.852035	-0.434393	-0.577148	-0.156006	0.087402	-0.156699	-0.694890	0.069363	-0.698400
62030		1.067767	3.668615	2.529508	2.045521	0.016968	-0.501988	-0.573730	-0.132324	0.108398	-0.143312	-0.698987	0.047121	-0.699041
62031		0.307149	2.847939	3.427618	0.525809	0.307734	-0.175446	-0.578613	-0.121826	0.103516	-0.140451	-0.697365	0.040447	-0.701655
62032		-0.135464	2.025906	3.262285	0.105842	0.946161	-0.072335	-0.595947	-0.115479	0.092285	-0.140642	-0.689281	0.037208	-0.709737
62033		-0.101566	1.497496	3.306001	-0.881200	1.325570	0.115586	-0.612305	-0.130615	0.073242	-0.147797	-0.675823	0.043653	-0.720773
62034		0.108790	0.886291	3.626876	-1.189797	1.178383	0.291102	-0.626709	-0.143555	0.045410	-0.155825	-0.662738	0.054601	-0.730421
62035		-0.010980	-1.350775	3.497625	-1.081872	0.950698	0.332037	-0.647705	-0.154297	0.021729	-0.162360	-0.651651	0.065316	-0.738054
62036		-0.234266	-2.196455	4.120248	-0.245549	0.601585	0.150389	-0.654053	-0.156494	0.021973	-0.163441	-0.645494	0.067535	-0.743010
62037		-0.314353	-1.575174	5.559061	0.405359	0.307353	-0.072116	-0.654297	-0.147949	0.010742	-0.161081	-0.643549	0.062515	-0.745647
62038		-0.137720	0.170284	5.573369	0.571220	-0.327418	-0.152755	-0.650146	-0.152100	0.030518	-0.157632	-0.647877	0.056576	-0.743106
62039		0.409738	0.956671	-6.222692	0.593543	-1.686651	-0.229507	-0.620361	-0.145508	0.062988	-0.153703	-0.664734	0.052458	-0.729213
62040		15.154017	0.887268	-4.069330	1.426168	-3.950172	0.257663	-0.563477	-0.121582	0.110107	-0.136693	-0.702403	0.049065	-0.696805
62041		13.357850	-2.874621	-2.374516	-2.074799	-2.442603	0.712736	-0.534424	-0.155518	0.111572	-0.147079	-0.719131	0.077477	-0.674697
62042		24.386956	-1.089577	-5.233018	1.145390	-1.449405	0.179469	-0.518066	-0.136230	0.134766	-0.133836	-0.733122	0.072064	-0.662893
62043		36.295964	8.796924	8.689818	-0.979030	-1.242658	-0.592058	-0.498047	-0.155273	0.137939	-0.146586	-0.742180	0.076830	-0.649444
62044		0.849665	6.703408	-22.257539	3.365544	-0.167478	-0.459715	-0.491211	-0.108154	0.164307	-0.118806	-0.749500	0.045455	-0.649668
62045		6.071205	0.568479	-12.382992	-1.995907	0.763763	0.235485	-0.507080	-0.140381	0.135010	-0.135979	-0.739970	0.062677	-0.655763
62046		12.355671	-1.153434	-0.397290	0.327799	1.283919	-0.094213	-0.529053	-0.127686	0.136719	-0.134715	-0.730023	0.056909	-0.667593
62047		8.774929	3.921212	-0.898127	0.704830	1.262153	-0.254901	-0.544189	-0.125732	0.125732	-0.131303	-0.720783	0.046562	-0.679017
62048		6.971845	2.633594	-1.858119	0.104542	1.430242	-0.045452	-0.567871	-0.123779	0.116699	-0.131567	-0.708775	0.042890	-0.691729
62049		7.877687	3.903308	2.039845	-0.352516	1.328586	0.050649	-0.588623	-0.134766	0.095215	-0.134949	-0.696626	0.044168	-0.703242
62050		9.056118	0.502413	5.758658	-0.562284	1.068942	0.116151	-0.601318	-0.143311	0.075928	-0.139390	-0.686188	0.048266	-0.712311
62051		9.341810	-0.758650	5.154626	-0.167753	0.681353	0.017651	-0.614014	-0.145508	0.067383	-0.141066	-0.679840	0.048672	-0.718018
62052		9.848230	-0.808295	4.615204	0.337438	0.286609	-0.065370	-0.614014	-0.141357	0.069336	-0.138947	-0.677935	0.044536	-0.720496
62053		10.155826	0.264985	2.664614	0.691238	0.056494	-0.133094	-0.614502	-0.132812	0.077637	-0.134308	-0.678715	0.037043	-0.721065
62054		8.945530	1.246833	-0.965842	0.718927	0.171860	-0.153251	-0.614746	-0.126221	0.083984	-0.129660	-0.678452	0.028937	-0.722533
62055		8.661477	2.141801	-1.285921	0.788111	0.314818	-0.181736	-0.619385	-0.117920	0.085693	-0.124722	-0.676951	0.019732	-0.725115
62056		8.783711	2.194597	-0.079679	0.446159	0.478070	-0.144427	-0.625977	-0.111572	0.078857	-0.122366	-0.673366	0.013682	-0.728984
62057		8.273931	3.069285	-0.837573	0.440113	0.613823	-0.054862	-0.628418	-0.107178	0.081055	-0.119256	-0.668467	0.008229	-0.734072
62058		8.147273	3.902451	-0.558933	-0.547069	0.560680	0.198004	-0.645020	-0.115967	0.068115	-0.122050	-0.662495	0.014016	-0.738923
62059		8.414736	3.051313	0.429336	-0.871676	0.634478	0.307886	-0.653320	-0.126709	0.053223	-0.126502	-0.655232	0.023583	-0.744387
62060		9.589756	1.188055	3.258085	-0.879046	0.552620	0.305089	-0.663574	-0.133057	0.038330	-0.130984	-0.648597	0.033311	-0.749036
62061		9.832587	-0.170542	3.383713	-0.258543	0.467316	0.243787	-0.665527	-0.141602	0.023438	-0.130957	-0.643726	0.036868	-0.753066
62062		9.615733	-0.365858	2.945246	-0.127643	0.374798	0.204087	-0.678467	-0.135254	0.025146	-0.130206	-0.639930	0.039029	-0.756315
62063		9.796087	-0.621933	2.646380	-0.024127	0.345586	0.174697	-0.680908	-0.131104	0.022949	-0.128891	-0.636575	0.040031	-0.759313
62064		9.677907	1.587283	2.017874	0.323966	0.344339	0.110597	-0.685059	-0.131104	0.022949	-0.125416	-0.633806	0.037228	-0.762349
62065		9.940541	1.716299	1.823249	0.125473	0.347511	0.134251	-0.685303	-0.126709	0.013916	-0.123283	-0.630664	0.036496	-0.765331
62066		9.545780	0.599747	2.176217	0.079214	0.354731	0.123303	-0.700684	-0.118408	0.009277	-0.121617	-0.627373	0.036104	-0.768315
62067		9.523892	0.866084	2.802584	-0.036998	0.312308	0.134786	-0.702637	-0.124756	0.009521	-0.120731	-0.624295	0.036985	-0.770916
62068		9.986030	0.880060	2.644020	-0.136922	0.230170	0.131342	-0.709229	-0.120605	0.009277	-0.120618	-0.621849	0.038925	-0.772813
62069		9.640000	0.446412	2.903406	-0.172179	0.159553	0.094884	-0.711182	-0.120605	-0.003662	-0.121096	-0.620043	0.041029	-0.774080
62070		9.521475	0.007167	3.163915	-0.127180	0.084286	0.058128	-0.708984	-0.124756	0.000732	-0.121542	-0.619047	0.042528	-0.774726
62071		9.429203	0.553496	3.073401	-0.085479	0.008463	0.045813	-0.713135	-0.125000	-0.001465	-0.121746	-0.618853	0.043647	-0.774786
62072		9.601329	1.035699	2.776913	0.137966	-0.044441	0.015738	-0.711426	-0.118408	0.002686	-0.120485	-0.619525	0.042451	-0.774513
62073		9.628778	0.769872	2.352346	0.118357	-0.069130	0.004683	-0.709229	-0.118408	0.007080	-0.119468	-0.620411	0.041394	-0.774018
62074		9.571290	0.706266	2.133468	0.062830	-0.081888	-0.010718	-0.707031	-0.120605	0.002686	-0.119024	-0.621343	0.040774	-0.773371
62075		9.534218	0.753417	1.851501	-0.086466	-0.078142	-0.007422	-0.708984	-0.125000	0.002930	-0.119710	-0.622014	0.041618	-0.772681
62076		9.497823	1.046293	2.058207	-0.055949	-0.059110	-0.010851	-0.706787	-0.124756	0.002930	-0.120203	-0.622548	0.042113	-0.772147
62077		9.570377	1.047365	2.167914	0.038989	-0.047546	-0.011008	-0.704834	-0.120605	0.004883	-0.119964	-0.623113	0.041673	-0.771753
62078		9.658312	0.836270	2.095742	0.083868	-0.037111	-0.018541	-0.706787	-0.122803	0.009277	-0.119453	-0.623648	0.040724	-0.771451
62079		9.604265	0.833455	2.199080	0.008520	-0.037382	-0.017095	-0.700439	-0.122559	-0.001465	-0.119515	-0.624071	0.040513	-0.771110
62080		9.595470	0.742761	2.312998	-0.015962	-0.052223	-0.026104	-0.707031	-0.118408	0.004883	-0.119847	-0.624605	0.040490	-0.770627
62081		9.573182	0.860141	2.261230	-0.000740	-0.062832	-0.034718	-0.704834	-0.120605	0.007080	-0.120139	-0.625268	0.040271	-0.770055
62082		9.596829	1.004834	1.934860	-0.014130	-0.055146	-0.032676	-0.698486	-0.120605	0.011475	-0.120519	-0.625835	0.040184	-0.769539
62083		9.658861	0.892235	2.013102	0.015979	-0.038554	-0.036668	-0.700439	-0.122559	0.005127	-0.120711	-0.626290	0.039751	-0.769162
62084		9.601809	1.114684	1.855426	-0.025655	-0.022466	-0.030741	-0.698486	-0.118408	0.004883	-0.121180	-0.626524	0.039740	-0.768898
62085		9.571726	0.790355	2.119461	-0.034803	-0.010392	-0.031073	-0.698242	-0.126953	0.007324	-0.121728	-0.626628	0.039796	-0.768724
62086		9.648079	0.786013	2.241362	0.021426	-0.013886	-0.043088	-0.696045	-0.124756	0.007324	-0.121951	-0.626857	0.039224	-0.768531
62087		9.648247	0.906890	2.149253	0.010619	-0.020481	-0.048434	-0.696045	-0.122559	0.007324	-0.122307	-0.627135	0.038724	-0.768273
62088		9.573410	1.061346	2.072262	0.000230	-0.019987	-0.048190	-0.702637	-0.124756	0.011719	-0.122743	-0.627392	0.038325	-0.768014
62089		9.565429	0.997862	2.066529	-0.041328	-0.016678	-0.042718	-0.697998	-0.126953	0.003174	-0.123453	-0.627550	0.038362	-0.767769
62090		9.566017	1.086489	2.069139	0.006072	-0.014617	-0.044480	-0.697998	-0.131104	0.011963	-0.123808	-0.627762	0.037928	-0.767560
62091		9.573510	1.094564	1.986350	-0.025738	-0.009945	-0.038231	-0.695801	-0.129150	0.007568	-0.124355	-0.627877	0.037839	-0.767382
62092		9.596261	0.940140	2.068700	-0.028432	-0.005075	-0.036626	-0.696045	-0.126953	0.009521	-0.124910	-0.627940	0.037781	-0.767243
62093		9.590250	1.158276	1.993209	-0.022247	-0.003418	-0.036113	-0.695557	-0.135498	0.005615	-0.125413	-0.627997	0.037665	-0.767120
62094		9.631404	1.070539	2.104472	-0.049394	0.003531	-0.024481	-0.691406	-0.133301	0.007812	-0.126019	-0.627938	0.037890	-0.767058
62095		9.621495	1.111008	2.230649	0.034884	0.006375	-0.023966	-0.695801	-0.129150	0.005371	-0.125960	-0.627985	0.037305	-0.767058
62096		9.572880	0.991405	2.022601	0.027657	-0.002338	-0.025278	-0.697998	-0.133301	0.007568	-0.125966	-0.628104	0.036792	-0.766984
62097		9.565872	1.045389	2.062856	0.021168	-0.003124	-0.028544	-0.695557	-0.135498	0.007812	-0.126054	-0.628221	0.036317	-0.766896
62098		9.534545	1.162451	2.063989	-0.015706	-0.007016	-0.022002	-0.691406	-0.133301	0.009766	-0.126367	-0.628315	0.036254	-0.766771
62099		9.539331	1.065579	2.050081	-0.015206	-0.010087	-0.023984	-0.693848	-0.128906	0.005371	-0.126692	-0.628440	0.036173	-0.766618
62100		9.545460	1.074565	1.985395	0.035077	0.003597	-0.026949	-0.691406	-0.133301	0.003418	-0.126658	-0.628515	0.035566	-0.766591
62101		9.560108	1.127545	2.087420	-0.041425	0.005742	-0.018349	-0.695801	-0.131104	0.007568	-0.127143	-0.628443	0.035756	-0.766561
62102		9.588903	1.092524	2.030953	0.039037	0.009703	-0.025849	-0.695801	-0.131104	0.007568	-0.127069	-0.628465	0.035110	-0.766585
62103		9.564664	1.189327	2.005696	-0.021104	0.010600	-0.015938	-0.689209	-0.137451	0.010010	-0.127373	-0.628378	0.035116	-0.766605
62104		9.548494	1.090295	2.058745	0.002963	0.013051	-0.018001	-0.691406	-0.131104	0.003174	-0.127508	-0.628307	0.034870	-0.766652
62105		9.484642	1.167648	2.063602	-0.003855	0.009351	-0.014926	-0.693604	-0.135498	0.007812	-0.127665	-0.628260	0.034720	-0.766672
62106		9.528861	1.089407	2.092943	-0.002147	0.008642	-0.015288	-0.693604	-0.135498	0.007812	-0.127812	-0.628221	0.034551	-0.766687
62107		9.595064	1.118367	2.077230	0.000235	0.005435	-0.014900	-0.695801	-0.131104	0.005371	-0.127935	-0.628217	0.034368	-0.766677
62108		9.573742	1.194862	2.009396	-0.030546	0.007038	-0.011937	-0.689453	-0.131104	0.007568	-0.128271	-0.628148	0.034500	-0.766672
62109		9.523714	1.150623	2.041560	-0.025462	0.012864	-0.011666	-0.689209	-0.133301	0.007812	-0.128568	-0.628030	0.034575	-0.766716
62110		9.534930	1.230953	2.000783	-0.032525	0.015295	-0.007943	-0.693604	-0.133301	0.009766	-0.128885	-0.627876	0.034743	-0.766781
62111		9.554547	1.117458	2.107044	-0.046616	0.018753	-0.003482	-0.693359	-0.139648	0.003662	-0.129270	-0.627664	0.035075	-0.766875
62112		9.590346	1.151645	2.125451	-0.025763	0.018545	-0.004231	-0.693604	-0.135498	0.007812	-0.129499	-0.627488	0.035202	-0.766974
62113		9.574202	1.163596	2.086622	-0.049686	0.019962	-0.001788	-0.693359	-0.139648	0.003662	-0.129892	-0.627259	0.035574	-0.767078
62114		9.551217	1.113228	2.124309	-0.040312	0.021046	-0.001727	-0.693604	-0.135498	0.005615	-0.130212	-0.627034	0.035854	-0.767195
62115		9.532418	1.113673	2.167869	-0.023567	0.012905	-0.002789	-0.691162	-0.137451	0.001465	-0.130406	-0.626915	0.035979	-0.767253
62116		9.575528	1.160019	2.061423	-0.013126	0.013099	-0.003284	-0.691162	-0.137451	0.003418	-0.130524	-0.626811	0.035999	-0.767317
62117		9.567881	1.204329	2.038100	-0.016371	0.015728	-0.001593	-0.697510	-0.139648	-0.000732	-0.130651	-0.626676	0.036059	-0.767403
62118		9.569598	1.148993	2.100843	-0.014950	0.021911	0.003469	-0.697510	-0.144043	-0.000488	-0.130721	-0.626481	0.036135	-0.767546
62119		9.557451	1.202422	2.128822	-0.006213	0.022816	0.003341	-0.695312	-0.141846	0.003662	-0.130724	-0.626293	0.036123	-0.767700
62120		9.549580	1.147058	2.150837	-0.028006	0.021241	0.006644	-0.697754	-0.135498	0.003418	-0.130865	-0.626082	0.036349	-0.767838
62121		9.567662	1.093402	2.259849	-0.009732	0.010527	0.006030	-0.693359	-0.139648	-0.000732	-0.130863	-0.626004	0.036411	-0.767898
62122		9.599127	1.177189	2.171795	0.013554	0.005652	0.004231	-0.693115	-0.144043	0.001709	-0.130694	-0.626012	0.036244	-0.767929
62123		9.607445	1.185624	2.102719	-0.005755	0.008016	0.007541	-0.693359	-0.137451	-0.000732	-0.130645	-0.625964	0.036284	-0.767974
62124		9.555228	1.163326	2.115999	0.005152	0.009166	0.009020	-0.691162	-0.141846	0.003662	-0.130497	-0.625922	0.036228	-0.768036
62125		9.568585	1.121035	2.150525	0.005103	0.007915	0.011045	-0.690918	-0.144043	-0.002686	-0.130328	-0.625891	0.036189	-0.768092
62126		9.571391	1.171304	2.106991	0.015538	0.008737	0.008808	-0.695312	-0.141846	0.001465	-0.130100	-0.625870	0.036033	-0.768155
62127		9.574095	1.162168	2.076186	-0.000099	0.011477	0.013603	-0.695557	-0.139648	-0.000732	-0.129949	-0.625796	0.036058	-0.768240
62128		9.562444	1.116183	2.145014	0.001045	0.014498	0.011975	-0.697510	-0.141846	0.001465	-0.129806	-0.625695	0.036055	-0.768347
62129		9.560631	1.136815	2.183110	0.005890	0.008650	0.013984	-0.693359	-0.139648	0.003662	-0.129602	-0.625657	0.036029	-0.768413
62130		9.581554	1.116132	2.103508	0.019775	0.006006	0.009815	-0.693359	-0.137451	0.001221	-0.129328	-0.625669	0.035842	-0.768458
62131		9.565153	1.141017	2.086663	0.007402	0.012052	0.013074	-0.695312	-0.144043	-0.000488	-0.129123	-0.625601	0.035789	-0.768551
62132		9.545221	1.084290	2.156598	0.004353	0.011215	0.013546	-0.695312	-0.141846	0.008057	-0.128937	-0.625536	0.035771	-0.768635
62133		9.593105	1.121214	2.137406	0.023413	0.009043	0.010774	-0.702148	-0.135498	0.005615	-0.128624	-0.625525	0.035549	-0.768707
62134		9.619123	1.148854	2.118035	0.015001	0.010568	0.012826	-0.697754	-0.137695	0.003418	-0.128360	-0.625483	0.035423	-0.768791
62135		9.558854	1.164335	2.111140	0.018164	0.012002	0.013587	-0.693604	-0.133301	-0.003174	-0.128065	-0.625433	0.035271	-0.768888
62136		9.558351	1.092492	2.116801	0.003442	0.013317	0.015068	-0.695557	-0.139648	0.005859	-0.127873	-0.625346	0.035270	-0.768991
62137		9.571565	1.108466	2.140293	0.020617	0.015329	0.013868	-0.699707	-0.139648	0.001465	-0.127556	-0.625268	0.035088	-0.769116
62138		9.566774	1.096345	2.173866	0.010838	0.013291	0.013312	-0.695801	-0.131104	0.000977	-0.127321	-0.625193	0.035001	-0.769219
62139		9.595304	1.077820	2.153520	0.024380	0.011630	0.012925	-0.699951	-0.137695	0.001221	-0.126982	-0.625156	0.034784	-0.769315
62140		9.602899	1.058385	2.194370	0.022138	0.007483	0.012396	-0.693359	-0.135498	-0.003174	-0.126665	-0.625156	0.034590	-0.769376
62141		9.580356	1.117965	2.140023	0.017277	0.007405	0.010221	-0.699951	-0.133301	-0.003174	-0.126409	-0.625149	0.034428	-0.769431
62142		9.571476	1.046727	2.155704	0.014133	0.009260	0.008648	-0.695557	-0.137451	0.001221	-0.126192	-0.625121	0.034280	-0.769496
62143		9.576670	1.043283	2.169472	0.016900	0.004380	0.008549	-0.699951	-0.133301	0.001221	-0.125950	-0.625144	0.034109	-0.769525
62144		9.585947	1.130648	2.105686	0.020473	0.004787	0.007049	-0.702148	-0.135498	-0.003174	-0.125694	-0.625169	0.033893	-0.769556
62145		9.598048	1.111199	2.106139	0.008811	0.008968	0.010759	-0.699951	-0.137695	0.005615	-0.125499	-0.625134	0.033814	-0.769620
62146		9.590447	1.066458	2.134118	0.011251	0.010272	0.008318	-0.697998	-0.133301	0.005615	-0.125302	-0.625092	0.033683	-0.769691
62147		9.573902	0.992811	2.213694	0.010300	0.007061	0.007941	-0.700195	-0.131104	-0.001221	-0.125116	-0.625080	0.033565	-0.769737
62148		9.570431	1.059307	2.182522	0.005982	0.003876	0.005285	-0.699951	-0.133301	0.001221	-0.124993	-0.625091	0.033479	-0.769751
62149		9.585037	1.034965	2.217970	-0.000374	-0.002270	0.004573	-0.695557	-0.139648	0.005859	-0.124923	-0.625152	0.033456	-0.769714
62150		9.581451	1.053525	2.206659	0.013214	-0.005350	0.001220	-0.697754	-0.137695	0.001221	-0.124775	-0.625267	0.033277	-0.769653
62151		9.586879	1.092355	2.133316	0.015323	-0.007097	-0.001391	-0.699951	-0.135498	0.003418	-0.124640	-0.625401	0.033064	-0.769575
62152		9.561508	1.082226	2.102202	0.012061	-0.007731	0.001092	-0.697754	-0.133301	0.001221	-0.124502	-0.625536	0.032902	-0.769494
62153		9.567205	1.070534	2.103500	0.018659	-0.004452	0.000336	-0.697998	-0.131104	0.003174	-0.124324	-0.625649	0.032668	-0.769441
62154		9.581934	1.058117	2.146907	0.008570	-0.003607	-0.000255	-0.697998	-0.131104	0.003174	-0.124228	-0.625739	0.032522	-0.769390
62155		9.607911	1.049087	2.156249	0.006409	-0.001842	0.000857	-0.697754	-0.135498	0.005615	-0.124139	-0.625808	0.032404	-0.769353
62156		9.586708	1.088570	2.133094	0.004101	-0.005981	-0.001159	-0.693604	-0.131104	0.009766	-0.124085	-0.625915	0.032295	-0.769279
62157		9.577349	1.060974	2.130672	-0.003266	-0.008609	0.001141	-0.700195	-0.126953	0.000977	-0.124057	-0.626036	0.032274	-0.769186
62158		9.573005	1.131503	2.112753	-0.003212	-0.008624	0.002639	-0.704346	-0.131348	0.003174	-0.124027	-0.626153	0.032279	-0.769095
62159		9.606101	1.055094	2.061532	0.008021	-0.001133	0.001984	-0.695801	-0.135498	0.012207	-0.123917	-0.626217	0.032154	-0.769066
62160		9.599298	1.189401	1.997655	-0.006300	0.009158	0.005251	-0.697754	-0.135498	0.001221	-0.123878	-0.626162	0.032162	-0.769117
62161		9.588372	1.032635	2.137436	-0.009283	0.011590	0.006406	-0.697754	-0.135498	0.001221	-0.123875	-0.626074	0.032225	-0.769186
62162		9.564413	1.076523	2.203089	0.014346	0.007681	0.002139	-0.695801	-0.128906	0.003174	-0.123726	-0.626062	0.032032	-0.769228
62163		9.566331	1.070572	2.118891	0.005843	0.005325	0.005260	-0.699951	-0.133301	0.007568	-0.123603	-0.626060	0.031944	-0.769254
62164		9.582267	1.043076	2.138552	0.008462	0.002513	0.003387	-0.691406	-0.133301	0.009766	-0.123469	-0.626091	0.031812	-0.769255
62165		9.586597	1.112893	2.164532	0.001830	0.001905	0.003594	-0.697998	-0.131104	0.003174	-0.123381	-0.626119	0.031742	-0.769250
62166		9.628488	1.025566	2.147208	0.008409	0.002528	0.001888	-0.695557	-0.135498	0.001221	-0.123273	-0.626147	0.031609	-0.769249
62167		9.581184	1.074380	2.115317	0.008669	0.002939	-0.000390	-0.697754	-0.135498	0.007812	-0.123195	-0.626172	0.031462	-0.769247
62168		9.564452	1.032762	2.100355	0.003229	0.002674	-0.001272	-0.697998	-0.129150	0.007568	-0.123149	-0.626196	0.031344	-0.769240
62169		9.570056	1.110485	2.119493	0.012100	0.004784	-0.001909	-0.695801	-0.133301	0.005615	-0.123034	-0.626213	0.031131	-0.769253
62170		9.564490	1.082835	2.079951	0.003049	0.006158	-0.000079	-0.697998	-0.131104	0.009766	-0.122985	-0.626201	0.031025	-0.769276
62171		9.577958	1.052249	2.176218	0.013403	0.005726	-0.001764	-0.691406	-0.137451	0.010010	-0.122853	-0.626212	0.030793	-0.769297
62172		9.604936	1.050654	2.180173	0.013806	0.004067	-0.002258	-0.697998	-0.129150	0.003174	-0.122733	-0.626240	0.030558	-0.769302
62173		9.594705	1.104706	2.133078	0.007462	0.000572	-0.002012	-0.697998	-0.131104	0.003174	-0.122669	-0.626287	0.030411	-0.769280
62174		9.558277	1.088459	2.069692	0.003685	0.001001	-0.000267	-0.695801	-0.133301	0.003418	-0.122621	-0.626323	0.030313	-0.769263
62175		9.584669	1.057935	2.114671	0.012180	0.008056	-0.001232	-0.695801	-0.131104	0.003174	-0.122522	-0.626304	0.030116	-0.769301
62176		9.600833	1.100792	2.131425	0.009574	0.005547	0.000246	-0.693604	-0.131104	0.003174	-0.122425	-0.626305	0.029960	-0.769322
62177		9.574116	1.062150	2.144570	0.006205	0.005567	-0.002033	-0.702148	-0.131348	0.005371	-0.122377	-0.626302	0.029818	-0.769338
62178		9.582117	1.104341	2.171445	0.005905	-0.000152	-0.001641	-0.695801	-0.131104	0.009766	-0.122313	-0.626355	0.029681	-0.769310
62179		9.572201	1.116649	2.086720	-0.003722	0.001041	0.001477	-0.702148	-0.135498	0.007812	-0.122278	-0.626384	0.029643	-0.769293
62180		9.575414	1.048784	2.119747	0.006653	0.002643	0.002505	-0.699951	-0.133301	0.005615	-0.122169	-0.626412	0.029521	-0.769293
62181		9.582139	1.053323	2.125502	0.008820	0.001503	-0.000369	-0.699951	-0.133301	0.005615	-0.122077	-0.626453	0.029366	-0.769280
62182		9.606152	1.118172	2.096063	0.003059	0.000212	0.001294	-0.697998	-0.131104	0.003174	-0.122013	-0.626496	0.029282	-0.769258
62183		9.556854	1.111160	2.093371	0.004125	0.004028	0.002893	-0.695801	-0.131104	0.003174	-0.121936	-0.626501	0.029205	-0.769269
62184		9.587918	1.098433	2.117059	-0.005105	0.002937	0.007285	-0.697998	-0.131104	0.005371	-0.121888	-0.626502	0.029252	-0.769274
62185		9.578916	1.047479	2.151373	-0.003850	0.004517	0.004164	-0.697754	-0.135498	0.007812	-0.121850	-0.626492	0.029250	-0.769289
62186		9.579500	1.084967	2.120532	0.004580	0.002354	0.003901	-0.704590	-0.126953	0.009521	-0.121746	-0.626519	0.029160	-0.769286
62187		9.585378	1.120324	2.102355	-0.002547	0.005460	0.004307	-0.699951	-0.133301	0.005615	-0.121659	-0.626507	0.029119	-0.769312
62188		9.611981	1.057712	2.119403	0.007639	0.002565	0.005196	-0.695801	-0.131104	0.000977	-0.121525	-0.626533	0.029019	-0.769315
62189		9.587585	1.113070	2.139902	-0.004333	0.002286	0.005744	-0.693604	-0.133301	0.003418	-0.121504	-0.626538	0.029064	-0.769313
62190		9.553021	1.040984	2.135135	-0.002598	-0.001102	0.005953	-0.697754	-0.135498	0.007812	-0.121459	-0.626581	0.029088	-0.769284
62191		9.527481	1.049350	2.124241	0.006917	-0.003526	0.003372	-0.697754	-0.135498	0.005615	-0.121343	-0.626669	0.028982	-0.769235
62192		9.563464	1.036357	2.106001	-0.002528	-0.005189	0.003533	-0.695801	-0.133301	0.003418	-0.121314	-0.626755	0.028984	-0.769169
62193		9.585029	1.037541	2.164122	0.008290	-0.006672	0.001095	-0.697754	-0.135498	0.010010	-0.121231	-0.626869	0.028877	-0.769093
62194		9.603633	1.086847	2.169786	0.011712	-0.012810	-0.001753	-0.695801	-0.128906	0.003174	-0.121114	-0.627058	0.028691	-0.768965
62195		9.584539	1.082555	2.090552	0.011313	-0.011148	-0.001262	-0.695801	-0.135498	0.012207	-0.121017	-0.627219	0.028542	-0.768854
62196		9.557863	1.066124	2.065508	0.020169	-0.012314	-0.001077	-0.697998	-0.133301	0.005615	-0.120818	-0.627417	0.028269	-0.768734
62197		9.554623	1.055408	2.024113	0.014234	-0.009489	0.000008	-0.695801	-0.131104	0.007568	-0.120692	-0.627568	0.028096	-0.768636
62198		9.589007	1.078255	2.049435	0.017603	-0.002934	-0.000865	-0.693359	-0.137451	0.003418	-0.120531	-0.627665	0.027860	-0.768592
62199		9.589713	1.127282	2.026417	0.003686	0.000378	0.001496	-0.695801	-0.133301	0.007812	-0.120517	-0.627701	0.027813	-0.768566
62200		9.576132	1.078395	2.100570	-0.005917	0.005479	0.002026	-0.697998	-0.126953	0.003174	-0.120525	-0.627680	0.027817	-0.768581
62201		9.570079	1.071847	2.148309	-0.000263	-0.001027	0.004046	-0.695801	-0.131104	0.011963	-0.120467	-0.627722	0.027809	-0.768556
62202		9.569529	1.082315	2.104376	-0.001277	-0.004855	0.003950	-0.699951	-0.133301	0.003418	-0.120377	-0.627814	0.027766	-0.768497
62203		9.565433	1.051715	2.115126	0.004627	-0.005632	0.004071	-0.700195	-0.129150	0.009766	-0.120310	-0.627907	0.027733	-0.768433
62204		9.595328	1.072786	2.059089	0.008661	-0.006905	0.003579	-0.693848	-0.126953	0.009521	-0.120149	-0.628029	0.027606	-0.768363
62205		9.575286	1.069407	2.050307	0.003270	-0.006563	0.002432	-0.696045	-0.126953	0.005371	-0.120039	-0.628139	0.027521	-0.768293
62206		9.581847	1.065614	2.113792	0.003895	-0.006398	0.002636	-0.696045	-0.124756	0.011719	-0.119955	-0.628241	0.027464	-0.768225
62207		9.577561	1.095526	2.058553	0.009399	-0.005514	0.003246	-0.693604	-0.131104	0.005371	-0.119760	-0.628353	0.027303	-0.768170
62208		9.586262	1.085562	2.036695	0.005511	-0.005683	0.003763	-0.693359	-0.137451	0.007812	-0.119684	-0.628449	0.027256	-0.768104
62209		9.560215	1.066140	2.065996	0.010079	-0.005358	0.004948	-0.695801	-0.133301	0.007812	-0.119579	-0.628554	0.027174	-0.768038
62210		9.566853	1.021274	2.092137	0.004095	-0.007848	0.004159	-0.689697	-0.124756	0.009521	-0.119502	-0.628672	0.027135	-0.767954
62211		9.583123	1.074395	2.062123	0.011051	-0.006843	0.003163	-0.691650	-0.131104	0.009766	-0.119322	-0.628795	0.026984	-0.767888
62212		9.571914	1.089880	1.992240	0.006250	-0.003671	0.001663	-0.693848	-0.128906	0.009766	-0.119233	-0.628880	0.026883	-0.767835
62213		9.574467	1.104994	2.046400	0.003431	-0.000023	0.003773	-0.696045	-0.129150	0.011963	-0.119133	-0.628925	0.026813	-0.767816
62214		9.578470	1.084703	2.056790	-0.004495	-0.000159	0.008319	-0.693848	-0.124756	0.007324	-0.119030	-0.628962	0.026836	-0.767801
62215		9.590142	1.026143	2.088195	-0.002877	0.001176	0.007678	-0.695801	-0.131104	0.007568	-0.118940	-0.628980	0.026864	-0.767800
62216		9.594768	1.054300	2.076290	0.001414	0.000304	0.004903	-0.695801	-0.131104	0.007568	-0.118882	-0.629013	0.026851	-0.767781
62217		9.545732	1.066808	2.091702	-0.001820	-0.002365	0.006186	-0.691406	-0.131104	0.005371	-0.118838	-0.629067	0.026884	-0.767743
62218		9.536286	1.017696	2.071189	0.004494	-0.009508	0.003670	-0.693848	-0.128906	0.009766	-0.118795	-0.629195	0.026873	-0.767645
62219		9.545719	1.036356	2.007368	0.017671	-0.008274	0.000241	-0.697998	-0.129150	0.009766	-0.118620	-0.629341	0.026656	-0.767560
62220		9.545224	1.078921	1.990191	0.008893	-0.003834	0.000735	-0.691650	-0.124756	0.007324	-0.118510	-0.629430	0.026522	-0.767509
62221		9.578843	1.052343	2.039261	0.002810	0.000433	0.001801	-0.689453	-0.128906	0.009766	-0.118439	-0.629463	0.026457	-0.767495
62222		9.578938	1.082815	2.067144	0.005195	0.000490	0.001386	-0.693604	-0.131104	0.009766	-0.118367	-0.629504	0.026365	-0.767476
62223		9.572236	1.078042	2.061304	0.003097	-0.003070	0.003616	-0.691650	-0.124756	0.007324	-0.118301	-0.629576	0.026324	-0.767428
62224		9.548214	1.083272	2.033391	0.008413	-0.006060	0.002322	-0.691650	-0.128906	0.009766	-0.118180	-0.629678	0.026221	-0.767366
62225		9.557518	1.021260	2.018128	0.009599	-0.001019	0.003373	-0.691650	-0.128906	0.009766	-0.118055	-0.629739	0.026107	-0.767340
62226		9.571355	1.029837	2.028314	0.008807	-0.002399	0.002209	-0.691650	-0.128906	0.009766	-0.117948	-0.629812	0.025995	-0.767300
62227		9.560001	1.065590	1.977776	0.004972	-0.001955	0.002460	-0.689453	-0.126953	0.009521	-0.117871	-0.629875	0.025923	-0.767263
62228		9.563812	1.056760	1.997810	0.005191	0.005812	0.001758	-0.696045	-0.122559	0.011719	-0.117790	-0.629863	0.025827	-0.767288
62229		9.565174	1.093552	2.019798	-0.000206	0.005535	0.002384	-0.689453	-0.128906	0.011963	-0.117666	-0.629850	0.025731	-0.767321
62230		9.560351	1.053263	2.024167	0.006298	0.007585	0.002141	-0.693848	-0.126953	0.007324	-0.117567	-0.629829	0.025611	-0.767358
62231		9.557853	1.008282	2.064797	0.000164	0.006538	0.001333	-0.693604	-0.131104	0.011963	-0.117550	-0.629797	0.025579	-0.767388
62232		9.576354	1.064598	2.014559	0.006130	0.006989	-0.000587	-0.696045	-0.126953	0.013916	-0.117492	-0.629782	0.025449	-0.767413
62233		9.570575	1.046147	1.985339	-0.004639	0.009091	0.001597	-0.689209	-0.133301	0.010010	-0.117426	-0.629735	0.025384	-0.767464
62234		9.587546	1.066764	2.037239	0.000219	0.013710	-0.002099	-0.691650	-0.126953	0.011719	-0.117487	-0.629643	0.025330	-0.767532
62235		9.585289	1.060525	2.047786	-0.000805	0.014590	-0.000049	-0.689453	-0.126953	0.011719	-0.117439	-0.629545	0.025234	-0.767623
62236		9.576273	1.070011	2.071441	-0.000918	0.013368	0.000489	-0.689453	-0.131104	0.011963	-0.117388	-0.629458	0.025146	-0.767704
62237		9.561151	1.062089	2.011139	-0.004353	0.012151	0.000249	-0.687256	-0.131104	0.007568	-0.117408	-0.629380	0.025114	-0.767767
62238		9.562148	1.049447	2.109908	-0.004777	0.011156	-0.000199	-0.691650	-0.124756	0.007324	-0.117494	-0.629299	0.025139	-0.767819
62239		9.596468	1.058431	2.061204	-0.002104	0.008327	-0.000560	-0.693848	-0.129150	0.014160	-0.117479	-0.629249	0.025088	-0.767864
62240		9.563425	1.063351	2.047578	-0.000487	0.009043	0.000566	-0.691650	-0.128906	0.005371	-0.117397	-0.629213	0.024974	-0.767910
62241		9.588690	1.043655	2.050986	-0.003070	0.010437	-0.000547	-0.691650	-0.128906	0.009766	-0.117465	-0.629136	0.024985	-0.767962
62242		9.567738	1.091674	2.092791	-0.000743	0.009263	0.001078	-0.693604	-0.133301	0.007812	-0.117436	-0.629086	0.024930	-0.768009
62243		9.576484	1.049955	2.098937	0.002749	0.005149	0.002446	-0.697998	-0.129150	0.005371	-0.117441	-0.629074	0.024913	-0.768019
62244		9.601239	1.051864	2.067254	0.006703	0.006546	-0.000104	-0.693604	-0.131104	0.005371	-0.117408	-0.629049	0.024826	-0.768047
62245		9.564602	1.085921	2.051612	-0.000315	0.004935	0.001153	-0.691650	-0.128906	0.009766	-0.117453	-0.629029	0.024842	-0.768056
62246		9.557552	1.081112	2.047465	-0.004151	0.005380	0.001397	-0.689453	-0.126709	0.007568	-0.117442	-0.629011	0.024823	-0.768073
62247		9.540600	1.059059	2.052251	0.004627	0.006264	0.001294	-0.693604	-0.131104	0.014160	-0.117368	-0.628992	0.024730	-0.768103
62248		9.567599	1.055810	2.056952	-0.003725	0.006377	0.001845	-0.693604	-0.131104	0.009766	-0.117313	-0.628979	0.024669	-0.768124
62249		9.573324	1.031552	2.105088	-0.002277	0.005876	0.002011	-0.689453	-0.131104	0.009766	-0.117306	-0.628959	0.024653	-0.768142
62250		9.580865	1.073906	2.079276	0.004770	-0.000507	0.000948	-0.695801	-0.131104	0.009766	-0.117263	-0.629012	0.024577	-0.768107
62251		9.577194	1.072235	2.049896	0.000084	-0.002055	0.000294	-0.691406	-0.137451	0.010010	-0.117247	-0.629073	0.024534	-0.768062
62252		9.536282	1.066460	2.035728	0.005625	0.002106	0.000077	-0.691650	-0.131104	0.011963	-0.117292	-0.629102	0.024495	-0.768032
62253		9.549864	1.065261	2.037479	0.009713	0.000823	0.001089	-0.697998	-0.131104	0.009766	-0.117175	-0.629155	0.024342	-0.768012
62254		9.577097	1.062612	2.040781	0.008323	0.001936	0.000654	-0.693848	-0.126953	0.009521	-0.117088	-0.629188	0.024217	-0.768002
62255		9.580062	1.075666	2.026894	0.007610	0.003208	0.001921	-0.697998	-0.133301	0.005615	-0.116949	-0.629206	0.024077	-0.768012
62256		9.585167	1.073160	2.040551	-0.001284	0.006428	0.002930	-0.691650	-0.128906	0.011963	-0.117012	-0.629168	0.024135	-0.768032
62257		9.574961	1.065339	2.060523	0.002012	0.009091	0.003148	-0.691406	-0.133301	0.014160	-0.116907	-0.629129	0.024039	-0.768083
62258		9.564074	1.068896	2.037188	0.002353	0.006816	0.002931	-0.693848	-0.128906	0.007568	-0.116838	-0.629120	0.023958	-0.768103
62259		9.567493	1.070039	2.067933	0.003719	0.008370	0.002803	-0.697998	-0.129150	0.007568	-0.116779	-0.629077	0.023901	-0.768149
62260		9.560487	1.054818	2.054456	0.002520	0.002705	0.003522	-0.698242	-0.126953	0.007324	-0.116713	-0.629086	0.023863	-0.768153
62261		9.584612	1.048847	2.081722	0.007186	0.002211	0.001475	-0.693604	-0.131104	0.011963	-0.116597	-0.629107	0.023744	-0.768157
62262		9.556580	1.063099	2.035669	0.007927	0.003600	0.001142	-0.689453	-0.128906	0.011963	-0.116493	-0.629131	0.023604	-0.768158
62263		9.573140	1.074365	2.023867	-0.002758	0.004270	0.001827	-0.700195	-0.131348	0.018555	-0.116443	-0.629132	0.023556	-0.768166
62264		9.561518	1.050131	2.040940	0.001761	0.004602	0.001522	-0.696045	-0.122559	0.009521	-0.116266	-0.629159	0.023372	-0.768176
62265		9.560674	1.091740	2.026493	-0.001876	0.004216	0.001520	-0.691406	-0.133301	0.009766	-0.116128	-0.629154	0.023269	-0.768205
62266		9.581575	1.062357	2.059553	-0.001083	0.005599	0.002685	-0.695801	-0.131104	0.007568	-0.116162	-0.629137	0.023289	-0.768213
62267		9.577602	1.080528	2.050525	0.001106	0.006487	0.002519	-0.691650	-0.131104	0.007568	-0.116165	-0.629107	0.023286	-0.768237
62268		9.575795	1.042734	2.031583	0.000085	0.007986	0.002799	-0.695801	-0.129150	0.009766	-0.116187	-0.629062	0.023300	-0.768270
62269		9.568610	1.058385	2.046516	0.004237	0.007932	0.001779	-0.695801	-0.129150	0.009766	-0.116102	-0.629031	0.023201	-0.768311
62270		9.557740	1.082279	2.041752	-0.008329	0.007491	0.003609	-0.691650	-0.131104	0.009766	-0.116097	-0.628986	0.023237	-0.768348
62271		9.569569	1.063072	2.043073	-0.000656	0.006598	0.003132	-0.689453	-0.131104	0.009766	-0.116085	-0.628961	0.023229	-0.768370
62272		9.607928	1.083656	2.032330	0.004730	0.010160	0.000191	-0.696045	-0.124756	0.005127	-0.116066	-0.628911	0.023145	-0.768416
62273		9.582306	1.071284	2.058379	-0.002949	0.010437	0.002434	-0.691650	-0.131104	0.009766	-0.116024	-0.628830	0.023131	-0.768490
62274		9.538497	1.030225	2.094644	-0.002728	0.006936	0.002757	-0.693604	-0.131104	0.011963	-0.116028	-0.628800	0.023136	-0.768513
62275		9.547662	1.048495	2.034399	0.008135	0.003385	-0.000860	-0.689209	-0.133301	0.003418	-0.115936	-0.628829	0.022974	-0.768508
62276		9.567253	1.073264	2.008645	0.001433	0.007499	-0.000029	-0.696045	-0.126953	0.009521	-0.116095	-0.628777	0.023053	-0.768524
62277		9.561095	1.046282	2.091764	-0.002602	0.008779	0.000449	-0.696045	-0.126953	0.009521	-0.116026	-0.628730	0.022974	-0.768576
62278		9.594232	1.069284	2.068241	0.002713	0.005779	-0.000819	-0.693604	-0.131104	0.007568	-0.115925	-0.628720	0.022836	-0.768604
62279		9.573547	1.046352	2.043780	0.005925	0.005167	-0.001261	-0.695801	-0.129150	0.009766	-0.115928	-0.628713	0.022758	-0.768611
62280		9.531755	1.083035	2.015261	0.003654	0.006336	-0.001395	-0.693604	-0.131104	0.005371	-0.115863	-0.628700	0.022631	-0.768635
62281		9.574297	1.074397	2.058117	0.005448	0.008890	-0.001073	-0.691406	-0.135498	0.007812	-0.115905	-0.628648	0.022589	-0.768672
62282		9.565435	1.053714	2.052783	0.000848	0.010617	-0.001073	-0.697998	-0.129150	0.009766	-0.116037	-0.628583	0.022613	-0.768705
62283		9.559645	1.066393	2.051700	0.004567	0.008947	-0.000768	-0.691406	-0.135498	0.010010	-0.115943	-0.628547	0.022466	-0.768753
62284		9.563843	1.106357	2.050784	-0.003908	0.007838	0.000301	-0.693848	-0.128906	0.007568	-0.116057	-0.628510	0.022513	-0.768765
62285		9.562452	1.057672	2.075463	-0.000527	0.008445	0.000821	-0.697754	-0.135498	0.010010	-0.116031	-0.628463	0.022467	-0.768808
62286		9.577236	1.062505	2.072025	0.000980	0.008556	0.000723	-0.695801	-0.131104	0.007568	-0.116077	-0.628427	0.022451	-0.768832
62287		9.573650	1.059759	2.097395	0.001377	0.006890	0.000239	-0.697754	-0.135498	0.005615	-0.116077	-0.628398	0.022409	-0.768856
62288		9.571174	1.095232	2.090506	0.004639	0.006273	0.001299	-0.695801	-0.133301	0.007812	-0.116162	-0.628372	0.022436	-0.768864
62289		9.580956	1.071709	2.046223	0.007832	0.008332	0.000294	-0.695801	-0.129150	0.009766	-0.116152	-0.628340	0.022357	-0.768894
62290		9.555268	1.069777	2.081064	-0.002489	0.009391	0.001670	-0.700195	-0.126953	0.007324	-0.116085	-0.628290	0.022291	-0.768947
62291		9.566916	1.061380	2.091964	0.001229	0.007720	0.001978	-0.695801	-0.131104	0.007568	-0.115956	-0.628252	0.022185	-0.769000
62292		9.598192	1.098716	2.041463	-0.002588	0.005497	0.002776	-0.693604	-0.131104	0.009766	-0.115957	-0.628231	0.022198	-0.769017
62293		9.574354	1.092188	2.059261	-0.004353	0.005607	0.003385	-0.700195	-0.129150	0.003174	-0.115937	-0.628216	0.022203	-0.769032
62294		9.559436	1.054515	2.090905	-0.005344	0.005056	0.002460	-0.693604	-0.131104	0.005371	-0.115977	-0.628178	0.022270	-0.769055
62295		9.566026	1.058283	2.097596	0.000258	0.004498	0.001622	-0.693604	-0.133301	0.001221	-0.116014	-0.628162	0.022290	-0.769062
62296		9.570649	1.067244	2.067919	0.002906	0.004332	0.000709	-0.697998	-0.129150	0.011963	-0.116164	-0.628136	0.022383	-0.769058
62297		9.568357	1.102277	2.060548	-0.003332	0.004107	0.003108	-0.700195	-0.131348	0.009766	-0.116033	-0.628146	0.022296	-0.769072
62298		9.562388	1.034086	2.105463	0.005434	0.002941	0.000336	-0.695801	-0.133301	0.011963	-0.115942	-0.628172	0.022171	-0.769068
62299		9.585489	1.071355	2.064687	0.001357	0.000939	0.001643	-0.695557	-0.137695	0.003418	-0.115898	-0.628219	0.022109	-0.769038
62300		9.564856	1.088874	2.076553	0.004672	0.004221	0.000101	-0.697998	-0.131104	0.011963	-0.116105	-0.628204	0.022218	-0.769016
62301		9.573206	1.059094	2.038854	0.005051	0.005225	-0.000949	-0.697754	-0.135498	0.007812	-0.115997	-0.628217	0.022052	-0.769027
62302		9.547176	1.068931	2.029815	0.000572	0.008179	-0.001496	-0.693604	-0.131104	0.009766	-0.116111	-0.628176	0.022065	-0.769042
62303		9.554059	1.041892	2.061651	0.000529	0.004895	-0.000658	-0.693359	-0.137695	0.012207	-0.116088	-0.628177	0.021992	-0.769048
62304		9.568759	1.088123	2.094393	0.001412	0.004840	-0.000962	-0.696045	-0.126953	0.009521	-0.116187	-0.628189	0.021986	-0.769023
62305		9.580663	1.050141	2.076564	0.006770	0.005121	-0.003055	-0.693604	-0.131104	0.009766	-0.116024	-0.628195	0.021754	-0.769049
62306		9.590162	1.078723	2.078389	0.008932	0.008064	-0.002014	-0.695801	-0.129150	0.009766	-0.115945	-0.628177	0.021583	-0.769080
62307		9.556686	1.136652	2.057737	0.004152	0.007954	-0.001214	-0.702148	-0.131348	0.007568	-0.115834	-0.628153	0.021420	-0.769121
62308		9.534880	1.064886	2.056831	-0.001541	0.009954	0.001090	-0.695801	-0.131104	0.007568	-0.115811	-0.628091	0.021382	-0.769176
62309		9.578793	1.061961	2.093305	0.002861	0.009061	0.001341	-0.693604	-0.135498	0.003418	-0.115772	-0.628045	0.021319	-0.769221
62310		9.589891	1.095817	2.088588	0.000303	0.007785	0.000781	-0.697998	-0.129150	0.007568	-0.115955	-0.627990	0.021434	-0.769236
62311		9.577896	1.071743	2.106550	-0.006230	0.008403	0.000417	-0.695801	-0.131104	0.003174	-0.115928	-0.627938	0.021405	-0.769283
62312		9.553470	1.087315	2.090724	0.001751	0.007284	0.000955	-0.693604	-0.131104	0.011963	-0.115972	-0.627889	0.021420	-0.769316
62313		9.565454	1.048427	2.073166	0.004463	0.004442	0.002113	-0.695801	-0.133301	0.009766	-0.115835	-0.627911	0.021280	-0.769323
62314		9.587144	1.078165	2.092552	0.003670	0.003055	0.000947	-0.693604	-0.131104	0.009766	-0.115804	-0.627935	0.021214	-0.769310
62315		9.582133	1.058924	2.114754	0.006808	0.004501	0.000216	-0.693604	-0.133301	0.007812	-0.115706	-0.627949	0.021075	-0.769316
62316		9.564293	1.111326	2.078205	0.008285	0.001944	-0.000809	-0.695801	-0.131104	0.003174	-0.115702	-0.627982	0.020993	-0.769292
62317		9.565909	1.097461	2.053184	0.000518	0.004281	0.001107	-0.689453	-0.128906	0.007568	-0.115754	-0.627959	0.021028	-0.769302
62318		9.579049	1.136617	2.092860	0.002636	0.003941	0.002988	-0.697998	-0.129150	0.005371	-0.115660	-0.627963	0.020959	-0.769315
62319		9.581133	1.079654	2.084118	-0.006319	0.006559	0.004219	-0.697754	-0.137695	0.012207	-0.115631	-0.627918	0.020997	-0.769355
62320		9.566178	1.031600	2.106561	0.001296	0.005052	0.004042	-0.689453	-0.131104	0.009766	-0.115660	-0.627929	0.021015	-0.769342
62321		9.573990	1.083667	2.090162	0.002149	0.002328	0.002810	-0.697998	-0.133301	0.007568	-0.115595	-0.627957	0.020959	-0.769330
62322		9.580637	1.097562	2.105487	0.000748	0.002827	0.004134	-0.698242	-0.126953	0.011719	-0.115590	-0.627968	0.020982	-0.769321
62323		9.575819	1.067089	2.118323	0.003764	0.003048	0.003944	-0.691406	-0.133301	0.011963	-0.115307	-0.627999	0.020773	-0.769344
62324		9.588096	1.038443	2.108312	0.011772	-0.004853	0.001161	-0.691650	-0.128906	0.007568	-0.115196	-0.628120	0.020625	-0.769265
62325		9.575945	1.088545	2.082283	0.011453	-0.005243	0.001941	-0.697998	-0.133301	0.007568	-0.115043	-0.628223	0.020481	-0.769208
62326		9.545506	1.099590	2.057651	0.001431	-0.004406	0.004283	-0.691650	-0.126953	0.009521	-0.115044	-0.628302	0.020521	-0.769143
62327		9.580061	1.068989	2.038115	-0.002497	-0.002514	0.005974	-0.697998	-0.131104	0.009766	-0.114875	-0.628365	0.020469	-0.769118
62328		9.601055	1.039214	2.069682	0.004692	-0.001735	0.003011	-0.691406	-0.131104	0.005371	-0.114766	-0.628431	0.020387	-0.769082
62329		9.575091	1.100211	2.052155	0.003551	-0.001457	0.003824	-0.695801	-0.133301	0.005615	-0.114785	-0.628473	0.020432	-0.769044
62330		9.551406	1.084594	2.006521	0.004161	0.001381	0.003461	-0.695801	-0.131104	0.011963	-0.114842	-0.628489	0.020491	-0.769021
62331		9.536627	1.046882	2.036922	-0.008026	-0.000724	0.004764	-0.695801	-0.133301	0.005615	-0.114793	-0.628536	0.020517	-0.768989
62332		9.570903	1.036159	2.089587	0.001588	0.002776	0.002331	-0.697998	-0.131104	0.007568	-0.114886	-0.628534	0.020595	-0.768974
62333		9.584054	1.076319	2.076034	0.006446	0.000824	0.001835	-0.691406	-0.133301	0.007812	-0.114829	-0.628567	0.020533	-0.768957
62334		9.556664	1.099817	2.091073	0.006766	0.001215	0.001055	-0.689209	-0.133301	0.010010	-0.114877	-0.628599	0.020532	-0.768925
62335		9.558499	1.065265	2.047230	0.003247	0.002055	0.000497	-0.700195	-0.129150	0.009766	-0.114928	-0.628627	0.020528	-0.768894
62336		9.589044	1.074073	2.089527	0.000080	0.002667	0.002426	-0.695801	-0.129150	0.007568	-0.114803	-0.628643	0.020440	-0.768902
62337		9.575509	1.065082	2.078580	0.009796	-0.001236	0.001436	-0.695557	-0.135498	0.005615	-0.114678	-0.628699	0.020314	-0.768878
62338		9.573479	1.091135	2.007856	0.000502	-0.001059	0.000748	-0.696045	-0.126953	0.009521	-0.114873	-0.628731	0.020455	-0.768819
62339		9.541323	1.084405	2.035307	-0.005587	0.002616	0.003524	-0.693848	-0.129150	0.014160	-0.114741	-0.628737	0.020401	-0.768835
62340		9.565224	1.067806	2.053917	-0.002922	0.003062	0.000847	-0.689453	-0.128906	0.009766	-0.114607	-0.628765	0.020276	-0.768836
62341		9.573383	1.088559	2.062477	-0.003058	0.004509	0.000817	-0.691650	-0.131104	0.014160	-0.114580	-0.628759	0.020244	-0.768846
62342		9.588772	1.061530	2.083026	-0.002235	0.003841	0.000785	-0.689453	-0.128906	0.011963	-0.114514	-0.628781	0.020162	-0.768840
62343		9.593228	1.121617	2.099337	-0.000850	0.002726	0.001230	-0.689453	-0.133301	0.014160	-0.114420	-0.628805	0.020073	-0.768837
62344		9.574736	1.083134	2.048533	-0.007538	0.000891	0.004939	-0.696045	-0.124756	0.011719	-0.114437	-0.628846	0.020138	-0.768799
62345		9.580186	1.058901	2.095493	0.007329	0.000767	0.001534	-0.693604	-0.133301	0.014160	-0.114113	-0.628898	0.019860	-0.768811
62346		9.575156	1.070453	2.091632	-0.002363	-0.003957	0.006004	-0.691650	-0.131104	0.007568	-0.114056	-0.628992	0.019876	-0.768742
62347		9.575561	1.049364	2.072193	0.009823	-0.003297	0.000239	-0.691650	-0.126953	0.007568	-0.114050	-0.629066	0.019826	-0.768684
62348		9.558804	1.029173	2.021765	0.014546	-0.003802	-0.000286	-0.693848	-0.128906	0.009766	-0.113882	-0.629151	0.019634	-0.768645
62349		9.531563	1.053730	2.035603	0.008543	-0.003010	-0.003443	-0.691650	-0.131104	0.007568	-0.113796	-0.629229	0.019468	-0.768597
62350		9.543270	1.078786	2.018669	0.012186	-0.002624	-0.003426	-0.695801	-0.129150	0.007568	-0.113816	-0.629298	0.019375	-0.768540
62351		9.568499	1.102547	2.003794	0.014308	0.000324	-0.003887	-0.695801	-0.129150	0.009766	-0.113734	-0.629341	0.019190	-0.768522
62352		9.576615	1.114638	2.002787	0.006194	0.007620	-0.002339	-0.687256	-0.133301	0.011963	-0.113653	-0.629312	0.019037	-0.768561
62353		9.547709	1.069515	2.024148	-0.004913	0.009352	0.000544	-0.691650	-0.131104	0.007568	-0.113772	-0.629262	0.019103	-0.768583
62354		9.576211	1.072324	2.075268	0.007615	0.009177	-0.000966	-0.693848	-0.128906	0.005371	-0.113801	-0.629210	0.019053	-0.768623
62355		9.583845	1.105263	2.041427	0.004810	0.008736	-0.002785	-0.697998	-0.129150	0.011963	-0.113824	-0.629148	0.018993	-0.768671
62356		9.566401	1.095109	2.003373	-0.006073	0.007575	-0.001341	-0.697998	-0.129150	0.009766	-0.113750	-0.629115	0.018897	-0.768712
62357		9.557582	1.083539	2.059977	-0.002959	0.011079	-0.000876	-0.693604	-0.135498	0.010010	-0.113695	-0.629041	0.018813	-0.768783
62358		9.545071	1.091452	2.053499	0.001688	0.009349	0.000642	-0.696045	-0.129150	0.014160	-0.113825	-0.628992	0.018872	-0.768802
62359		9.571512	1.120056	2.034409	0.003000	0.010295	0.000787	-0.689697	-0.126953	0.013916	-0.113613	-0.628957	0.018654	-0.768867
62360		9.554626	1.056150	2.055806	-0.003356	0.009464	0.001943	-0.693604	-0.133301	0.005615	-0.113406	-0.628921	0.018485	-0.768932
62361		9.560636	1.091181	2.091350	0.002073	0.010354	-0.000409	-0.687256	-0.131104	0.007568	-0.113568	-0.628842	0.018569	-0.768970
62362		9.594217	1.092691	2.102257	0.006729	0.005951	0.001684	-0.689697	-0.122559	0.013916	-0.113587	-0.628823	0.018556	-0.768983
62363		9.574898	1.128719	2.011564	0.010694	0.006728	0.000924	-0.693604	-0.131104	0.007568	-0.113116	-0.628834	0.018127	-0.769054
62364		9.539267	1.079099	2.027034	0.003138	0.008850	0.000817	-0.693604	-0.133301	0.005615	-0.113133	-0.628782	0.018110	-0.769095
62365		9.544165	1.055564	2.075794	0.004005	0.008181	0.002285	-0.691650	-0.131104	0.009766	-0.113251	-0.628727	0.018198	-0.769120
62366		9.574009	1.107123	2.050905	0.008606	0.006452	0.002309	-0.693848	-0.128906	0.007568	-0.113165	-0.628717	0.018099	-0.769143
62367		9.554784	1.131580	2.004081	0.003354	0.010076	0.003271	-0.693848	-0.128906	0.007568	-0.113071	-0.628654	0.018034	-0.769210
62368		9.568274	1.087348	2.024326	0.002871	0.013195	0.005214	-0.693604	-0.131104	0.009766	-0.112961	-0.628559	0.017983	-0.769305
62369		9.562728	1.067329	2.048950	0.007419	0.014140	0.003166	-0.693848	-0.129150	0.011963	-0.112863	-0.628475	0.017879	-0.769390
62370		9.567278	1.044506	2.046827	0.005663	0.017541	0.001423	-0.691650	-0.128906	0.007568	-0.112667	-0.628368	0.017668	-0.769512
62371		9.569346	1.099301	2.021089	0.007167	0.020327	0.000755	-0.697998	-0.131104	0.011963	-0.112578	-0.628214	0.017536	-0.769653
62372		9.551202	1.109033	2.004827	-0.006068	0.025075	0.001146	-0.697998	-0.131104	0.009766	-0.112507	-0.628020	0.017444	-0.769824
62373		9.566947	1.066319	2.110338	0.000144	0.026746	0.001736	-0.693848	-0.128906	0.009766	-0.112428	-0.627809	0.017336	-0.770010
62374		9.582332	1.097867	2.122479	-0.000343	0.025134	0.001560	-0.699951	-0.137695	0.003418	-0.112294	-0.627615	0.017190	-0.770191
62375		9.606528	1.098135	2.148301	-0.004239	0.022298	0.002615	-0.693604	-0.133301	0.009766	-0.112611	-0.627412	0.017440	-0.770305
62376		9.576655	1.093914	2.156522	0.001188	0.017224	0.003197	-0.695801	-0.133301	0.007812	-0.112595	-0.627299	0.017407	-0.770399
62377		9.586386	1.079900	2.123794	0.001309	0.013713	0.000537	-0.693604	-0.133301	0.011963	-0.112630	-0.627212	0.017386	-0.770465
62378		9.558711	1.093728	2.079634	0.003189	0.011538	0.001742	-0.702148	-0.131348	0.005371	-0.112549	-0.627171	0.017273	-0.770513
62379		9.563255	1.059939	2.120121	0.003318	0.012765	0.001200	-0.691406	-0.135498	0.010010	-0.112496	-0.627084	0.017202	-0.770594
62380		9.560953	1.074835	2.096056	0.008475	0.013264	0.001143	-0.695801	-0.129150	0.009766	-0.112519	-0.627025	0.017141	-0.770640
62381		9.599011	1.094893	2.139212	0.008908	0.011592	0.002166	-0.700195	-0.129150	0.007568	-0.112264	-0.626981	0.016894	-0.770718
62382		9.571218	1.108256	2.146603	0.011075	0.007130	0.001672	-0.700195	-0.129150	0.007568	-0.112016	-0.626972	0.016653	-0.770767
62383		9.573286	1.073622	2.103570	0.013346	0.003282	0.002405	-0.695801	-0.131104	0.005371	-0.111743	-0.627002	0.016401	-0.770787
62384		9.578370	1.082910	2.073480	0.014687	0.004843	0.000783	-0.693848	-0.126953	0.007324	-0.111639	-0.627009	0.016255	-0.770800
62385		9.627534	1.121128	2.001912	-0.002575	0.012945	0.004270	-0.695801	-0.133301	0.005615	-0.111451	-0.626923	0.016142	-0.770900
62386		9.588652	1.156520	2.057690	-0.015135	0.025287	0.007867	-0.697998	-0.133301	0.007568	-0.111592	-0.626691	0.016363	-0.771062
62387		9.598971	1.060459	2.209956	-0.017252	0.024404	0.011011	-0.700195	-0.129150	0.000977	-0.111642	-0.626478	0.016562	-0.771225
62388		9.596297	1.092909	2.206232	-0.006854	0.013850	0.008486	-0.697998	-0.131104	0.000977	-0.111632	-0.626347	0.016685	-0.771329
62389		9.559119	1.077031	2.161092	-0.003871	0.006036	0.008545	-0.693848	-0.128906	0.007568	-0.111684	-0.626298	0.016855	-0.771358
62390		9.581687	1.074479	2.101286	-0.009885	0.006212	0.007121	-0.700439	-0.124756	0.002930	-0.111577	-0.626274	0.016876	-0.771393
62391		9.571301	1.024197	2.136582	-0.000442	0.005805	0.002860	-0.697998	-0.131104	0.003174	-0.111353	-0.626243	0.016735	-0.771454
62392		9.579427	1.076239	2.120428	0.000573	0.004297	0.002597	-0.693604	-0.131104	0.011963	-0.111379	-0.626230	0.016770	-0.771459
62393		9.553653	1.095659	2.119518	0.009570	0.004339	0.002351	-0.699951	-0.133301	0.003418	-0.111135	-0.626276	0.016524	-0.771463
62394		9.567414	1.073232	2.103872	0.002643	0.003960	0.002993	-0.696045	-0.126953	0.000977	-0.111204	-0.626270	0.016589	-0.771456
62395		9.568797	1.058034	2.131703	0.006186	0.003730	0.001804	-0.691406	-0.131104	0.005371	-0.111115	-0.626259	0.016519	-0.771480
62396		9.576836	1.089376	2.148956	0.006510	0.001442	0.001602	-0.693848	-0.128906	0.007568	-0.111102	-0.626293	0.016483	-0.771454
62397		9.594031	1.090283	2.127520	0.008945	0.001495	0.002717	-0.691650	-0.128906	0.007568	-0.110897	-0.626342	0.016301	-0.771448
62398		9.592616	1.094202	2.091873	-0.000274	0.004358	0.004391	-0.697998	-0.133301	0.005615	-0.110771	-0.626349	0.016234	-0.771462
62399		9.585529	1.067425	2.121750	-0.001288	0.005867	0.004653	-0.695801	-0.133301	0.003418	-0.110822	-0.626330	0.016313	-0.771468
62400		9.572936	1.073651	2.166630	-0.000142	0.005585	0.003848	-0.695557	-0.135498	0.007812	-0.110951	-0.626304	0.016445	-0.771468
62401		9.597148	1.089099	2.108243	0.002877	0.003125	0.004254	-0.691406	-0.133301	0.007812	-0.111021	-0.626330	0.016509	-0.771436
62402		9.575297	1.100263	2.074350	0.003763	0.003067	0.003957	-0.691650	-0.126953	0.005371	-0.111039	-0.626357	0.016528	-0.771411
62403		9.578521	1.049157	2.110817	0.005444	0.004405	0.004827	-0.695801	-0.129150	0.005371	-0.110853	-0.626360	0.016413	-0.771438
62404		9.584937	1.063150	2.126566	0.003962	0.004909	0.003142	-0.697998	-0.133301	0.007568	-0.110751	-0.626356	0.016340	-0.771457
62405		9.586458	1.110993	2.104557	0.008429	0.004622	0.003157	-0.695801	-0.133301	0.007812	-0.110701	-0.626372	0.016278	-0.771452
62406		9.555827	1.090127	2.106777	0.004663	0.005080	0.006350	-0.697754	-0.135498	0.007812	-0.110664	-0.626380	0.016285	-0.771451
62407		9.591517	1.044819	2.116838	0.007350	0.005518	0.003690	-0.697998	-0.133301	0.005615	-0.110704	-0.626388	0.016300	-0.771438
62408		9.609533	1.103024	2.135246	0.003807	0.005751	0.004876	-0.695801	-0.129150	0.005371	-0.110731	-0.626377	0.016347	-0.771443
62409		9.562010	1.133575	2.100234	0.001580	0.006930	0.006213	-0.695801	-0.133301	0.005615	-0.110626	-0.626349	0.016324	-0.771480
62410		9.555459	1.106770	2.077954	-0.003802	0.006666	0.008262	-0.700195	-0.126953	0.005127	-0.110701	-0.626318	0.016485	-0.771491
62411		9.572953	0.949295	2.078532	-0.007972	0.010021	0.005388	-0.702393	-0.131348	0.009766	-0.110570	-0.626246	0.016463	-0.771569
62412		9.600643	0.961481	2.139462	-0.003459	0.008884	-0.000824	-0.699951	-0.133301	0.007568	-0.110504	-0.626219	0.016358	-0.771603
62413		9.599628	1.034994	2.153242	0.004479	0.008358	-0.004987	-0.693848	-0.128906	0.007568	-0.110562	-0.626197	0.016263	-0.771615
62414		9.607569	1.047573	2.153153	0.007981	0.005443	-0.007090	-0.696045	-0.126953	0.005371	-0.110485	-0.626209	0.016029	-0.771621
62415		9.578521	1.068241	2.122807	0.019927	0.003015	-0.009911	-0.698242	-0.126953	0.007324	-0.110298	-0.626248	0.015639	-0.771623
62416		9.579864	1.077912	2.115866	0.016021	0.002858	-0.009447	-0.695801	-0.128906	0.000977	-0.110066	-0.626294	0.015229	-0.771628
62417		9.559108	1.119555	2.093072	0.008245	0.005221	-0.007601	-0.693604	-0.131104	0.003174	-0.110131	-0.626272	0.015125	-0.771639
62418		9.565784	1.094446	2.072906	-0.006424	0.009885	-0.004204	-0.695801	-0.133301	0.009766	-0.110318	-0.626196	0.015200	-0.771672
62419		9.561138	1.071966	2.132849	0.002308	0.008082	-0.006617	-0.699951	-0.135498	0.010010	-0.110350	-0.626186	0.015061	-0.771678
62420		9.576034	1.109754	2.104590	-0.000874	0.008705	-0.004716	-0.699951	-0.133301	0.003418	-0.110427	-0.626167	0.014993	-0.771684
62421		9.570189	1.091556	2.128125	-0.002451	0.007982	-0.004360	-0.699951	-0.133301	0.009766	-0.110588	-0.626117	0.015031	-0.771700
62422		9.569819	1.082491	2.120826	0.003494	0.007805	-0.005921	-0.697998	-0.129150	0.003174	-0.110554	-0.626112	0.014848	-0.771713
62423		9.588507	1.081102	2.084735	0.000733	0.007361	-0.006262	-0.700195	-0.131104	0.005371	-0.110558	-0.626072	0.014732	-0.771747
62424		9.592912	1.153714	2.058828	-0.002014	0.011669	-0.004495	-0.695801	-0.128906	0.003174	-0.110563	-0.625998	0.014636	-0.771808
62425		9.591128	1.163748	2.124215	-0.012411	0.016884	-0.000852	-0.695801	-0.131104	0.009766	-0.110615	-0.625848	0.014672	-0.771922
62426		9.611789	1.077516	2.204138	-0.015430	0.016058	0.002582	-0.695801	-0.133301	0.007812	-0.110566	-0.625738	0.014663	-0.772018
62427		9.575444	1.110493	2.189435	-0.003645	0.011798	0.002091	-0.695801	-0.129150	0.007568	-0.110557	-0.625676	0.014646	-0.772070
62428		9.588987	1.087199	2.175654	-0.014924	0.007568	0.003305	-0.702393	-0.129150	0.005371	-0.110468	-0.625638	0.014639	-0.772114
62429		9.577363	1.073277	2.149781	-0.008529	0.003647	0.001587	-0.691406	-0.131104	0.000977	-0.110347	-0.625635	0.014574	-0.772135
62430		9.590539	1.081595	2.162077	-0.001268	0.004417	0.000186	-0.693604	-0.133301	0.005615	-0.110469	-0.625613	0.014661	-0.772133
62431		9.578135	1.110049	2.172115	-0.000322	0.002292	0.000200	-0.697998	-0.131104	0.003174	-0.110520	-0.625638	0.014672	-0.772105
62432		9.578253	1.099885	2.163267	0.005226	0.001110	-0.000304	-0.699951	-0.133301	0.009766	-0.110476	-0.625669	0.014598	-0.772088
62433		9.604289	1.101574	2.130846	0.000946	-0.002125	0.000013	-0.695801	-0.133301	0.007812	-0.110356	-0.625759	0.014460	-0.772035
62434		9.584006	1.099085	2.123122	0.006510	0.002057	-0.001649	-0.697998	-0.131104	0.005371	-0.110297	-0.625806	0.014326	-0.772008
62435		9.555553	1.065267	2.099153	0.000894	0.002624	-0.000874	-0.697998	-0.131104	0.007568	-0.110239	-0.625825	0.014238	-0.772002
62436		9.567923	1.115842	2.147451	-0.000624	0.000443	-0.003482	-0.702148	-0.131348	0.007568	-0.110158	-0.625876	0.014092	-0.771975
62437		9.587485	1.093012	2.091811	0.000734	0.004076	-0.002409	-0.697998	-0.131104	0.003174	-0.110029	-0.625892	0.013916	-0.771984
62438		9.581806	1.074358	2.114584	-0.001032	0.006873	-0.002400	-0.695557	-0.135498	0.005615	-0.110060	-0.625856	0.013884	-0.772009
62439		9.587137	1.120875	2.158610	-0.000473	0.007036	-0.005184	-0.693604	-0.131104	0.005371	-0.110226	-0.625834	0.013895	-0.772003
62440		9.568225	1.125165	2.145350	-0.004552	0.005033	-0.002414	-0.695801	-0.133301	0.003418	-0.110251	-0.625823	0.013864	-0.772009
62441		9.565011	1.082077	2.133228	0.000077	0.003908	-0.004120	-0.695557	-0.135498	0.001221	-0.110368	-0.625820	0.013869	-0.771995
62442		9.602195	1.087235	2.120677	0.003438	0.007200	-0.005641	-0.695801	-0.128906	0.000977	-0.110614	-0.625780	0.013939	-0.771991
62443		9.577380	1.176887	2.115796	0.000911	0.007990	-0.002033	-0.695801	-0.131104	0.009766	-0.110592	-0.625724	0.013874	-0.772040
62444		9.578950	1.131793	2.117022	-0.000506	0.006425	-0.003415	-0.693848	-0.128906	0.005371	-0.110441	-0.625729	0.013657	-0.772062
62445		9.585152	1.094907	2.140383	-0.002239	0.009224	-0.001908	-0.699951	-0.133301	0.005615	-0.110336	-0.625681	0.013521	-0.772118
62446		9.587898	1.118257	2.137756	-0.004139	0.010793	-0.001357	-0.695557	-0.137695	0.005615	-0.110343	-0.625618	0.013478	-0.772169
62447		9.585299	1.122183	2.156659	-0.003649	0.009732	-0.000601	-0.695557	-0.137695	0.005615	-0.110536	-0.625568	0.013584	-0.772180
62448		9.573243	1.119707	2.140574	-0.001648	0.008780	0.000075	-0.699951	-0.133301	0.003418	-0.110703	-0.625530	0.013674	-0.772186
62449		9.557375	1.114994	2.147833	0.004728	0.009612	-0.001023	-0.697754	-0.135498	0.003418	-0.110682	-0.625480	0.013593	-0.772230
62450		9.595884	1.104341	2.162898	-0.001132	0.005649	-0.000359	-0.695801	-0.133301	0.003418	-0.110798	-0.625461	0.013652	-0.772228
62451		9.584057	1.143704	2.129992	0.002479	0.005424	0.001465	-0.695557	-0.135498	-0.000977	-0.110800	-0.625449	0.013640	-0.772237
62452		9.578929	1.103887	2.134192	0.004779	0.004861	-0.000135	-0.695801	-0.131104	0.003174	-0.110995	-0.625424	0.013762	-0.772227
62453		9.563267	1.099227	2.140489	0.002517	0.006037	-0.000306	-0.695801	-0.133301	0.003418	-0.110932	-0.625405	0.013675	-0.772253
62454		9.573215	1.116553	2.133088	0.004879	0.005478	0.001092	-0.702148	-0.131104	0.000977	-0.110913	-0.625397	0.013633	-0.772264
62455		9.579861	1.110915	2.130579	0.005930	0.004580	-0.000935	-0.699951	-0.135498	0.007812	-0.110827	-0.625385	0.013519	-0.772288
62456		9.567801	1.119162	2.122451	0.002450	0.005423	-0.000035	-0.693604	-0.133301	0.007812	-0.110776	-0.625396	0.013424	-0.772288
62457		9.584139	1.151309	2.129890	0.005279	0.006484	0.000042	-0.693604	-0.133301	0.003418	-0.110671	-0.625401	0.013278	-0.772301
62458		9.555067	1.095924	2.141178	0.001505	0.007550	-0.000051	-0.695557	-0.137695	0.005615	-0.110705	-0.625368	0.013269	-0.772323
62459		9.595634	1.123532	2.123923	0.007355	0.006759	-0.002821	-0.702148	-0.135498	0.007812	-0.110815	-0.625364	0.013241	-0.772311
62460		9.593606	1.149342	2.107941	0.003652	0.010514	-0.000498	-0.695557	-0.135498	0.005615	-0.110734	-0.625329	0.013105	-0.772354
62461		9.572501	1.156498	2.112360	-0.006723	0.013658	0.001925	-0.697754	-0.139648	0.008057	-0.110818	-0.625237	0.013174	-0.772415
62462		9.569898	1.107432	2.139305	-0.004407	0.017855	0.002434	-0.695557	-0.135498	0.003418	-0.110954	-0.625123	0.013260	-0.772486
62463		9.558540	1.099770	2.161225	-0.005958	0.015059	0.001594	-0.693604	-0.135498	0.001221	-0.111078	-0.625010	0.013357	-0.772558
62464		9.579524	1.118836	2.174675	-0.006055	0.014444	0.000367	-0.695801	-0.133301	-0.000977	-0.111277	-0.624893	0.013501	-0.772621
62465		9.600211	1.106350	2.213011	-0.005206	0.013775	0.001845	-0.689209	-0.135254	0.003418	-0.111396	-0.624773	0.013615	-0.772699
62466		9.591478	1.126601	2.192367	-0.005218	0.009016	-0.000263	-0.702148	-0.135498	0.003418	-0.111560	-0.624723	0.013718	-0.772714
62467		9.586117	1.128216	2.182116	-0.008630	0.010476	0.000360	-0.701904	-0.137695	0.001221	-0.111643	-0.624654	0.013779	-0.772757
62468		9.589749	1.120409	2.151965	0.000802	0.009457	-0.002069	-0.695557	-0.137451	0.001221	-0.111807	-0.624598	0.013838	-0.772777
62469		9.562719	1.129389	2.195369	-0.004398	0.008345	-0.000284	-0.691406	-0.131104	0.003174	-0.112031	-0.624547	0.013991	-0.772784
62470		9.572521	1.104960	2.204246	0.004562	0.005704	-0.001390	-0.697998	-0.129150	0.003174	-0.111938	-0.624542	0.013853	-0.772803
62471		9.578106	1.156147	2.158628	0.006907	0.002457	0.000593	-0.697998	-0.131104	0.000977	-0.111677	-0.624571	0.013616	-0.772822
62472		9.579236	1.141361	2.185871	0.003052	0.000223	0.001346	-0.697754	-0.135498	0.003418	-0.111564	-0.624605	0.013526	-0.772812
62473		9.581612	1.127022	2.160524	0.005687	0.002124	0.001662	-0.702148	-0.131348	0.003174	-0.111546	-0.624638	0.013490	-0.772789
62474		9.586448	1.124751	2.173366	0.003274	-0.000616	0.002610	-0.695557	-0.137695	0.005615	-0.111348	-0.624690	0.013348	-0.772778
62475		9.587124	1.145508	2.139288	0.004273	0.002631	0.002965	-0.693604	-0.131104	0.000977	-0.111386	-0.624726	0.013368	-0.772743
62476		9.578842	1.123701	2.132440	0.000666	0.004931	0.003821	-0.695801	-0.133301	0.003418	-0.111314	-0.624710	0.013351	-0.772767
62477		9.582001	1.146106	2.128637	0.004454	0.006551	0.003340	-0.693604	-0.135498	0.003418	-0.111230	-0.624696	0.013290	-0.772791
62478		9.580794	1.134386	2.173585	0.002776	0.007283	0.005148	-0.695557	-0.137451	-0.000732	-0.111246	-0.624674	0.013335	-0.772806
62479		9.576236	1.114689	2.144436	0.001279	0.009860	0.004643	-0.695801	-0.133301	0.003418	-0.111429	-0.624604	0.013517	-0.772833
62480		9.595401	1.136799	2.173334	-0.007681	0.012505	0.005743	-0.697754	-0.133301	0.003418	-0.111419	-0.624516	0.013584	-0.772904
62481		9.570860	1.129836	2.191525	-0.005074	0.006957	0.004534	-0.702148	-0.131104	0.000977	-0.111383	-0.624487	0.013611	-0.772933
62482		9.603795	1.124032	2.157937	-0.002507	0.008243	0.005123	-0.695557	-0.137451	0.001221	-0.111254	-0.624435	0.013575	-0.772993
62483		9.585021	1.110874	2.224331	0.000765	0.005551	0.005048	-0.697754	-0.135498	0.003418	-0.111395	-0.624419	0.013729	-0.772984
62484		9.604522	1.107232	2.187752	0.006550	0.004139	0.002565	-0.697754	-0.137695	-0.000732	-0.111375	-0.624434	0.013698	-0.772975
62485		9.573289	1.107394	2.207735	0.000141	0.003308	0.002144	-0.695557	-0.135498	0.001221	-0.111582	-0.624429	0.013872	-0.772946
62486		9.621359	1.127696	2.185882	0.000274	-0.000834	0.004262	-0.695557	-0.139648	0.001465	-0.111658	-0.624473	0.013978	-0.772898
62487		9.589035	1.152803	2.186728	0.007308	-0.001912	0.002211	-0.697754	-0.135498	0.005615	-0.111858	-0.624539	0.014121	-0.772813
62488		9.536277	1.065534	2.147279	0.012232	-0.003264	0.001517	-0.695801	-0.133301	0.005615	-0.111771	-0.624644	0.014006	-0.772743
62489		9.543553	1.101636	2.126926	0.005075	-0.002806	0.000844	-0.701904	-0.137695	-0.000977	-0.111679	-0.624733	0.013906	-0.772686
62490		9.567553	1.117589	2.119750	0.010377	-0.001078	0.000289	-0.695557	-0.135498	0.005615	-0.111799	-0.624780	0.013958	-0.772629
62491		9.584381	1.139914	2.116958	0.008054	0.004857	-0.002281	-0.697754	-0.135498	0.001221	-0.111808	-0.624800	0.013864	-0.772614
62492		9.614111	1.129015	2.142424	-0.000423	0.006440	-0.000426	-0.697754	-0.137695	0.001221	-0.111924	-0.624769	0.013924	-0.772620
62493		9.578436	1.137572	2.195543	0.003905	0.004924	0.000165	-0.695557	-0.137695	0.003418	-0.112084	-0.624761	0.014012	-0.772603
62494		9.562313	1.126970	2.155931	0.003333	0.002685	0.000260	-0.695801	-0.131104	0.003174	-0.112224	-0.624784	0.014084	-0.772563
62495		9.569393	1.110837	2.143804	0.003333	0.002685	0.000260	-0.695801	-0.131104	0.000977	-0.112105	-0.624803	0.013963	-0.772566
62496		9.572888	1.123623	2.130392	0.004002	0.005543	0.001391	-0.695801	-0.133301	-0.000977	-0.112009	-0.624785	0.013877	-0.772596
62497		9.592634	1.178697	2.132860	0.005726	0.007500	0.000499	-0.697754	-0.133301	0.003418	-0.112027	-0.624742	0.013861	-0.772629
62498		9.588954	1.103398	2.146563	0.003493	0.008683	0.001818	-0.701904	-0.137695	0.001221	-0.111959	-0.624706	0.013791	-0.772669
62499		9.573021	1.150178	2.146876	0.001189	0.009251	0.003409	-0.695801	-0.133301	-0.000977	-0.112072	-0.624651	0.013897	-0.772695
62500		9.576690	1.126189	2.195821	-0.004907	0.006120	0.002792	-0.699951	-0.137695	0.001221	-0.112146	-0.624607	0.013998	-0.772718
62501		9.596908	1.117761	2.196136	-0.001784	0.006959	0.003870	-0.695557	-0.137695	0.005615	-0.112292	-0.624571	0.014149	-0.772723
62502		9.588682	1.137464	2.174096	0.001101	0.005948	0.004266	-0.697754	-0.135498	0.005615	-0.112375	-0.624571	0.014235	-0.772710
62503		9.590483	1.090736	2.174873	0.003915	0.004321	0.004934	-0.695557	-0.137451	-0.000732	-0.112328	-0.624589	0.014224	-0.772702
62504		9.569288	1.118088	2.195423	0.002016	0.003814	0.002788	-0.695557	-0.139648	0.005859	-0.112509	-0.624580	0.014382	-0.772680
62505		9.575387	1.115802	2.156421	-0.001416	0.002590	0.003986	-0.697754	-0.137695	0.001221	-0.112695	-0.624610	0.014556	-0.772625
62506		9.582269	1.109117	2.153510	0.004276	0.002635	0.002970	-0.695801	-0.133301	0.003418	-0.112820	-0.624625	0.014662	-0.772593
62507		9.576892	1.131237	2.159362	0.002885	0.001069	0.003083	-0.702148	-0.133301	0.007568	-0.112764	-0.624662	0.014634	-0.772572
62508		9.586997	1.106040	2.167043	0.006150	0.003138	0.003617	-0.697754	-0.135498	0.001221	-0.112579	-0.624703	0.014489	-0.772568
62509		9.592494	1.124596	2.146338	0.001128	0.003874	0.003077	-0.699707	-0.139648	0.003662	-0.112645	-0.624700	0.014563	-0.772560
62510		9.588892	1.100707	2.152636	-0.004086	0.005450	0.002771	-0.702148	-0.133301	0.003418	-0.112873	-0.624687	0.014764	-0.772533
62511		9.583287	1.122669	2.159597	-0.000100	0.006226	0.002062	-0.697510	-0.139648	0.001465	-0.112812	-0.624670	0.014721	-0.772557
62512		9.565475	1.121128	2.182194	-0.005767	0.004106	0.001890	-0.695801	-0.131104	-0.001221	-0.113105	-0.624657	0.014972	-0.772520
62513		9.597435	1.105467	2.191211	0.004728	0.004251	0.000150	-0.697754	-0.133301	-0.000977	-0.113034	-0.624644	0.014892	-0.772542
62514		9.600736	1.128772	2.186586	0.001584	0.000725	-0.000346	-0.697998	-0.131104	0.005371	-0.113064	-0.624662	0.014895	-0.772523
62515		9.595442	1.125043	2.128812	0.000092	0.003304	-0.000857	-0.697754	-0.139648	0.003662	-0.112943	-0.624683	0.014761	-0.772527
62516		9.576104	1.107550	2.148787	-0.002117	0.002411	-0.000727	-0.695557	-0.135498	0.003418	-0.113201	-0.624703	0.014930	-0.772470
62517		9.575710	1.117898	2.158344	-0.001442	0.000506	-0.000199	-0.697998	-0.131104	0.000977	-0.113299	-0.624740	0.014987	-0.772424
62518		9.584123	1.128892	2.157126	0.001991	0.001730	-0.001395	-0.702148	-0.135498	0.003418	-0.113217	-0.624757	0.014883	-0.772424
62519		9.600081	1.129703	2.188976	0.000981	0.003246	-0.001146	-0.704346	-0.131348	-0.001221	-0.113258	-0.624770	0.014870	-0.772408
62520		9.577623	1.131004	2.197788	0.000889	-0.000058	-0.000289	-0.695801	-0.133301	0.003418	-0.113162	-0.624791	0.014785	-0.772406
62521		9.581329	1.127858	2.128482	0.006560	-0.002703	-0.000718	-0.697754	-0.137695	-0.000732	-0.113109	-0.624869	0.014696	-0.772353
62522		9.560893	1.135550	2.129479	-0.000193	0.000842	0.000233	-0.695801	-0.133301	0.001221	-0.113313	-0.624884	0.014848	-0.772308
62523		9.577262	1.125657	2.151902	0.002016	0.001734	0.000103	-0.697998	-0.133301	0.005615	-0.113312	-0.624901	0.014827	-0.772295
62524		9.572110	1.138254	2.148519	0.003433	0.001224	-0.001196	-0.702148	-0.135498	0.003418	-0.113246	-0.624946	0.014720	-0.772270
62525		9.579266	1.122284	2.136063	0.002834	0.001061	0.000086	-0.693604	-0.133301	0.003418	-0.113255	-0.624981	0.014700	-0.772241
62526		9.570068	1.132312	2.156190	0.002088	0.002350	-0.000169	-0.697998	-0.133301	0.007568	-0.113245	-0.625002	0.014661	-0.772226
62527		9.578688	1.133007	2.146230	0.005618	0.004195	-0.000139	-0.702148	-0.133301	0.003418	-0.113126	-0.625030	0.014513	-0.772224
62528		9.574453	1.130805	2.170376	0.003337	0.002686	0.000263	-0.695801	-0.128906	0.003174	-0.113041	-0.625048	0.014419	-0.772223
62529		9.591969	1.131719	2.149490	0.007760	0.001789	0.002087	-0.695801	-0.133301	0.001221	-0.112778	-0.625080	0.014204	-0.772240
62530		9.567024	1.130731	2.128982	0.003124	0.000840	0.001080	-0.699951	-0.135498	0.003418	-0.112763	-0.625105	0.014186	-0.772222
62531		9.585269	1.127068	2.144305	0.002738	0.002524	0.001545	-0.700195	-0.129150	0.007568	-0.112775	-0.625124	0.014188	-0.772205
62532		9.575097	1.099321	2.144403	0.001296	0.003030	0.001345	-0.693359	-0.137451	0.003418	-0.112495	-0.625154	0.013958	-0.772226
62533		9.566685	1.129993	2.130895	0.000094	0.005387	0.001826	-0.699951	-0.135498	0.003418	-0.112652	-0.625142	0.014080	-0.772210
62534		9.579358	1.148732	2.152759	0.001415	0.006339	0.001985	-0.697998	-0.133301	0.005615	-0.112672	-0.625122	0.014095	-0.772223
62535		9.577920	1.121121	2.142698	-0.000817	0.002758	0.002700	-0.693604	-0.133301	0.005615	-0.112601	-0.625144	0.014058	-0.772217
62536		9.579371	1.137330	2.145494	0.001729	0.004040	0.001794	-0.697754	-0.137695	0.001221	-0.112552	-0.625156	0.014013	-0.772215
62537		9.575435	1.124045	2.160854	-0.002380	0.004722	0.002460	-0.697754	-0.135498	0.007812	-0.112729	-0.625137	0.014177	-0.772201
62538		9.588750	1.121749	2.164481	0.000623	0.007019	0.003500	-0.695557	-0.135498	0.001221	-0.112701	-0.625130	0.014167	-0.772212
62539		9.572752	1.126521	2.180083	-0.002308	0.005338	0.002187	-0.706543	-0.131348	0.003174	-0.112809	-0.625104	0.014273	-0.772214
62540		9.581620	1.116094	2.161724	0.001417	0.006340	0.001986	-0.695801	-0.133301	0.005615	-0.112625	-0.625082	0.014134	-0.772262
62541		9.598055	1.147468	2.169343	-0.001682	0.005506	0.002403	-0.697754	-0.135498	0.003418	-0.112583	-0.625076	0.014114	-0.772273
62542		9.582056	1.136022	2.130278	0.002330	0.006287	0.003196	-0.697510	-0.139648	0.001465	-0.112602	-0.625058	0.014142	-0.772284
62543		9.574901	1.089001	2.142024	0.002355	0.006293	0.004695	-0.695557	-0.135498	0.003418	-0.112795	-0.625032	0.014332	-0.772274
62544		9.573091	1.123472	2.134751	-0.000888	0.006912	0.003572	-0.695801	-0.133301	0.007812	-0.112853	-0.625005	0.014406	-0.772286
62545		9.561772	1.126373	2.163275	-0.002522	0.006177	0.000919	-0.695801	-0.131104	0.005371	-0.112809	-0.625002	0.014358	-0.772296
62546		9.600490	1.104648	2.169605	0.001299	0.007800	0.001945	-0.693604	-0.133301	0.001221	-0.112670	-0.624977	0.014243	-0.772338
62547		9.603641	1.127454	2.166038	-0.000816	0.005444	0.000615	-0.695557	-0.135498	0.003418	-0.112713	-0.624954	0.014269	-0.772350
62548		9.587942	1.122316	2.172267	-0.000527	0.005223	0.001609	-0.697754	-0.137695	0.003418	-0.112785	-0.624944	0.014326	-0.772346
62549		9.569440	1.125532	2.158457	0.001876	0.005273	0.001250	-0.693359	-0.139648	0.003662	-0.112911	-0.624938	0.014409	-0.772332
62550		9.571140	1.131756	2.152275	0.006200	0.003753	0.001854	-0.693604	-0.131104	0.005371	-0.113099	-0.624954	0.014535	-0.772289
62551		9.584840	1.119904	2.146063	0.003414	0.003302	-0.000007	-0.691406	-0.133301	0.007812	-0.112975	-0.624976	0.014400	-0.772292
62552		9.572697	1.138269	2.146582	0.004399	0.003865	0.000931	-0.695801	-0.131104	0.003174	-0.112906	-0.625006	0.014311	-0.772279
62553		9.579378	1.132098	2.144366	0.001228	0.007186	0.002217	-0.697754	-0.135498	0.005615	-0.112789	-0.624977	0.014225	-0.772321
62554		9.569275	1.146036	2.129674	0.003513	0.008695	0.001817	-0.697754	-0.137695	0.003418	-0.112785	-0.624948	0.014200	-0.772345
62555		9.559353	1.113943	2.167307	0.004330	0.008021	0.001803	-0.697998	-0.131104	0.000977	-0.112883	-0.624919	0.014258	-0.772354
62556		9.588865	1.102285	2.193473	0.003633	0.007237	0.001858	-0.693359	-0.139648	0.003662	-0.112760	-0.624883	0.014158	-0.772403
62557		9.579575	1.147899	2.153009	0.004400	0.003866	0.000932	-0.699951	-0.135498	0.007812	-0.112967	-0.624896	0.014290	-0.772360
62558		9.577514	1.141119	2.161050	0.001490	0.004277	0.003797	-0.693359	-0.137451	0.005615	-0.112919	-0.624917	0.014271	-0.772350
62559		9.591519	1.118251	2.146189	0.004113	0.006174	0.002621	-0.693604	-0.135498	0.001221	-0.113006	-0.624915	0.014330	-0.772337
62560		9.577012	1.140112	2.163806	0.000679	0.007636	0.001725	-0.695557	-0.135498	0.003418	-0.113100	-0.624874	0.014403	-0.772355
62561		9.584213	1.112849	2.144154	-0.002997	0.009332	0.002832	-0.695801	-0.131104	-0.001221	-0.113175	-0.624822	0.014484	-0.772386
62562		9.586627	1.155508	2.159755	-0.009509	0.009968	0.003846	-0.697754	-0.133301	0.003418	-0.113168	-0.624732	0.014552	-0.772458
62563		9.568125	1.111726	2.199269	-0.002253	0.008042	0.003091	-0.695801	-0.133301	0.001221	-0.113136	-0.624693	0.014554	-0.772494
62564		9.596862	1.114500	2.197996	0.006827	0.003922	0.002077	-0.693604	-0.133301	-0.003174	-0.113079	-0.624698	0.014499	-0.772500
62565		9.572454	1.138952	2.107450	0.004137	0.004094	0.001439	-0.697754	-0.135498	-0.000977	-0.113111	-0.624677	0.014524	-0.772511
62566		9.579977	1.117992	2.132424	0.001233	0.007190	0.002216	-0.695557	-0.135498	0.005615	-0.113191	-0.624633	0.014597	-0.772534
62567		9.590578	1.130216	2.161913	0.000153	0.008093	0.002733	-0.702148	-0.135498	0.005615	-0.113221	-0.624608	0.014625	-0.772549
