// Start Time: Unknown
// Update Rate: 40.0Hz
// Filter Profile: human (46.1)
// Firmware Version: 4.6.0
PacketCounter	SampleTimeFine	Acc_X	Acc_Y	Acc_Z	Gyr_X	Gyr_Y	Gyr_Z	Mag_X	Mag_Y	Mag_Z	Quat_q0	Quat_q1	Quat_q2	Quat_q3
61648		5.459074	1.410200	7.959009	0.006212	-0.003940	-0.002118	-0.628418	-0.217285	-0.290527	-0.195985	-0.302974	-0.013804	-0.932527
61649		5.481402	1.413977	7.955532	0.004453	-0.004927	-0.003493	-0.630127	-0.213623	-0.297119	-0.196010	-0.303042	-0.013857	-0.932499
61650		5.448120	1.409146	7.924755	0.005626	-0.003907	-0.002937	-0.637695	-0.220215	-0.293945	-0.196020	-0.303094	-0.013920	-0.932479
61651		5.474115	1.401270	7.941741	0.007358	-0.003340	-0.002871	-0.634766	-0.218994	-0.302734	-0.196026	-0.303151	-0.014008	-0.932458
61652		5.453407	1.400596	7.943564	0.005891	-0.005972	-0.002210	-0.627686	-0.222656	-0.296875	-0.196030	-0.303236	-0.014070	-0.932428
61653		5.466628	1.400498	7.967282	0.006144	-0.006078	-0.004306	-0.638672	-0.216553	-0.300537	-0.196057	-0.303323	-0.014140	-0.932393
61654		5.467815	1.402236	7.966161	0.006144	-0.007162	-0.003221	-0.628662	-0.221191	-0.298584	-0.196071	-0.303422	-0.014202	-0.932357
61655		5.470528	1.403553	7.941138	0.005851	-0.006604	-0.004173	-0.628662	-0.218018	-0.293701	-0.196097	-0.303512	-0.014263	-0.932321
61656		5.469775	1.399922	7.956040	0.006172	-0.005655	-0.002995	-0.623535	-0.210449	-0.297607	-0.196106	-0.303594	-0.014323	-0.932292
61657		5.459923	1.420438	7.953950	0.006131	-0.007373	-0.003874	-0.628662	-0.210938	-0.308838	-0.196125	-0.303695	-0.014377	-0.932254
61658		5.465712	1.398511	7.933499	0.007332	-0.005930	-0.002010	-0.628418	-0.217285	-0.302734	-0.196117	-0.303780	-0.014442	-0.932227
61659		5.461599	1.418009	7.944037	0.004483	-0.003420	-0.003264	-0.623047	-0.221924	-0.311523	-0.196135	-0.303830	-0.014481	-0.932206
61660		5.461884	1.413863	7.935385	0.006173	-0.004571	-0.004078	-0.627197	-0.212646	-0.297363	-0.196158	-0.303893	-0.014541	-0.932180
61661		5.476702	1.419209	7.943292	0.005881	-0.005097	-0.003945	-0.629883	-0.216553	-0.305176	-0.196174	-0.303970	-0.014594	-0.932151
61662		5.469070	1.410610	7.938231	0.004777	-0.002894	-0.003395	-0.625244	-0.210938	-0.297607	-0.196189	-0.304015	-0.014635	-0.932132
61663		5.455829	1.413945	7.936885	0.003659	-0.001986	-0.002416	-0.627441	-0.209473	-0.310059	-0.196194	-0.304053	-0.014660	-0.932119
61664		5.455849	1.409472	7.928477	0.005364	-0.002925	-0.002576	-0.626953	-0.211182	-0.296387	-0.196191	-0.304088	-0.014692	-0.932107
61665		5.468949	1.414874	7.960506	0.005071	-0.003451	-0.002442	-0.628662	-0.219482	-0.295410	-0.196188	-0.304148	-0.014729	-0.932087
61666		5.484327	1.408170	7.928835	0.006776	-0.004390	-0.002602	-0.630859	-0.220703	-0.303467	-0.196190	-0.304224	-0.014792	-0.932061
61667		5.480595	1.387681	7.944203	0.004485	-0.003420	-0.003261	-0.627930	-0.223877	-0.298584	-0.196207	-0.304272	-0.014824	-0.932042
61668		5.468723	1.408173	7.966436	0.004206	-0.003735	-0.002473	-0.633545	-0.208008	-0.300537	-0.196225	-0.304332	-0.014853	-0.932018
61669		5.463269	1.410181	7.953424	0.003619	-0.003704	-0.003292	-0.626953	-0.220215	-0.296875	-0.196210	-0.304387	-0.014842	-0.932003
61670		5.477258	1.409320	7.953811	0.004232	-0.001144	-0.003336	-0.633057	-0.217529	-0.296875	-0.196234	-0.304412	-0.014878	-0.931989
61671		5.465885	1.423749	7.944624	0.004525	-0.000618	-0.003469	-0.624023	-0.217773	-0.298584	-0.196238	-0.304441	-0.014907	-0.931979
61672		5.475201	1.400909	7.961314	0.003366	-0.001428	-0.003367	-0.628906	-0.213135	-0.292969	-0.196269	-0.304454	-0.014930	-0.931967
61673		5.463501	1.409579	7.944187	0.005098	-0.000860	-0.003303	-0.628174	-0.219238	-0.297607	-0.196261	-0.304497	-0.014960	-0.931955
61674		5.470723	1.404063	7.924461	0.005685	-0.000891	-0.002484	-0.634033	-0.218750	-0.305664	-0.196267	-0.304518	-0.015007	-0.931946
61675		5.477143	1.410498	7.944498	0.005096	0.000223	-0.004389	-0.630371	-0.213379	-0.300293	-0.196279	-0.304499	-0.015036	-0.931949
61676		5.455529	1.409495	7.947057	0.003673	-0.000690	-0.002845	-0.625732	-0.211914	-0.288086	-0.196263	-0.304507	-0.015033	-0.931950
61677		5.475037	1.402127	7.952038	0.004499	-0.002124	-0.003690	-0.624023	-0.226562	-0.299561	-0.196258	-0.304592	-0.015061	-0.931923
61678		5.463938	1.416737	7.942613	0.005044	-0.002790	-0.004832	-0.637695	-0.214844	-0.306885	-0.196356	-0.304612	-0.015139	-0.931894
61679		5.470390	1.417454	7.954460	0.005087	-0.002154	-0.002870	-0.634521	-0.213135	-0.302979	-0.196309	-0.304611	-0.015130	-0.931904
61680		5.450884	1.421783	7.940834	0.003618	-0.001537	-0.005460	-0.635010	-0.206787	-0.300537	-0.196297	-0.304614	-0.015120	-0.931906
61681		5.468385	1.403488	7.953754	0.005103	-0.003025	-0.001129	-0.634033	-0.211670	-0.300293	-0.196181	-0.304656	-0.015082	-0.931918
61682		5.489378	1.395552	7.934846	0.003393	0.000078	-0.003143	-0.631592	-0.217041	-0.297119	-0.196128	-0.304655	-0.015064	-0.931929
61683		5.452147	1.391159	7.952697	0.002804	0.001191	-0.005048	-0.621582	-0.218994	-0.303467	-0.196146	-0.304662	-0.015087	-0.931923
61684		5.483384	1.410242	7.938303	0.003979	0.001131	-0.003410	-0.633789	-0.218262	-0.300781	-0.196236	-0.304582	-0.015123	-0.931930
61685		5.460145	1.409586	7.964899	0.003672	0.000393	-0.003930	-0.631836	-0.220703	-0.297852	-0.196234	-0.304579	-0.015142	-0.931931
61686		5.457583	1.394411	7.964806	0.006219	-0.001766	-0.004277	-0.635254	-0.206299	-0.302002	-0.196258	-0.304627	-0.015214	-0.931909
61687		5.450753	1.431148	7.939242	0.004473	-0.002548	-0.004994	-0.631104	-0.219238	-0.309570	-0.196148	-0.304644	-0.015154	-0.931927
61688		5.463758	1.436862	7.971291	0.005342	-0.003345	-0.003876	-0.630615	-0.213379	-0.302002	-0.196191	-0.304583	-0.015172	-0.931938
61689		5.466157	1.397779	7.951764	0.003368	-0.001428	-0.003363	-0.630371	-0.216797	-0.301270	-0.196164	-0.304567	-0.015155	-0.931949
61690		5.455709	1.423349	7.958263	0.002196	-0.002451	-0.003915	-0.629639	-0.214111	-0.299561	-0.196182	-0.304569	-0.015149	-0.931945
61691		5.460713	1.400944	7.938529	0.006222	-0.002848	-0.003190	-0.625977	-0.218750	-0.300049	-0.196149	-0.304598	-0.015173	-0.931942
61692		5.461728	1.413894	7.953877	0.003647	-0.001114	-0.004150	-0.626953	-0.221191	-0.302979	-0.196227	-0.304580	-0.015213	-0.931931
61693		5.466856	1.397155	7.942231	0.003942	-0.001669	-0.003197	-0.630371	-0.215820	-0.296387	-0.196320	-0.304538	-0.015260	-0.931924
61694		5.468161	1.415624	7.965567	0.004822	-0.001172	-0.002512	-0.631592	-0.215088	-0.302002	-0.196280	-0.304592	-0.015286	-0.931914
61695		5.451908	1.396542	7.956581	0.004797	-0.002679	-0.002732	-0.633545	-0.213867	-0.299072	-0.196236	-0.304593	-0.015284	-0.931923
61696		5.465857	1.395712	7.956997	0.003957	-0.001457	-0.002543	-0.630859	-0.214844	-0.298828	-0.196146	-0.304625	-0.015269	-0.931932
61697		5.454171	1.398737	7.931652	0.005291	-0.005276	-0.005400	-0.628174	-0.215576	-0.296631	-0.196126	-0.304694	-0.015282	-0.931913
61698		5.463701	1.422006	7.951075	0.004809	-0.001384	-0.003165	-0.636963	-0.209229	-0.301025	-0.196111	-0.304732	-0.015308	-0.931904
61699		5.469454	1.416734	7.955311	0.003394	0.000079	-0.003141	-0.626465	-0.222168	-0.300781	-0.195925	-0.304730	-0.015232	-0.931945
61700		5.459373	1.402618	7.966808	0.005087	-0.001070	-0.003952	-0.625488	-0.220947	-0.297852	-0.196060	-0.304698	-0.015319	-0.931925
61701		5.454331	1.416323	7.969752	0.004493	-0.003417	-0.003250	-0.637939	-0.218994	-0.302002	-0.196169	-0.304729	-0.015388	-0.931891
61702		5.464260	1.421880	7.941538	0.007066	-0.004067	-0.003375	-0.630127	-0.218506	-0.304199	-0.196106	-0.304783	-0.015434	-0.931886
61703		5.461973	1.400968	7.933158	0.004507	-0.003204	-0.002596	-0.642334	-0.216553	-0.302734	-0.196136	-0.304733	-0.015447	-0.931896
61704		5.474226	1.395137	7.949459	0.005356	-0.002050	-0.004305	-0.625732	-0.215088	-0.295166	-0.196001	-0.304774	-0.015445	-0.931911
61705		5.462957	1.409553	7.940123	0.003370	-0.001428	-0.003360	-0.624756	-0.226318	-0.304688	-0.196008	-0.304815	-0.015454	-0.931896
61706		5.450366	1.424576	7.954585	0.005022	-0.003214	-0.006129	-0.632324	-0.207275	-0.305420	-0.196280	-0.304725	-0.015578	-0.931866
61707		5.469822	1.411899	7.951415	0.005374	-0.002918	-0.002563	-0.628906	-0.216309	-0.305176	-0.196078	-0.304650	-0.015467	-0.931935
61708		5.470522	1.419053	7.958825	0.004810	-0.001383	-0.003163	-0.631104	-0.221436	-0.294678	-0.196093	-0.304547	-0.015463	-0.931965
61709		5.462249	1.404449	7.946196	0.004494	-0.003416	-0.003247	-0.630371	-0.210693	-0.299805	-0.196132	-0.304675	-0.015544	-0.931914
61710		5.469499	1.416647	7.973801	0.004783	-0.001808	-0.004469	-0.634521	-0.218262	-0.301025	-0.196011	-0.304671	-0.015496	-0.931941
61711		5.471096	1.417677	7.949510	0.004783	-0.001808	-0.004468	-0.625488	-0.219482	-0.298828	-0.195985	-0.304685	-0.015524	-0.931942
61712		5.453235	1.399108	7.964614	0.003982	0.000051	-0.002322	-0.628662	-0.223145	-0.299316	-0.196074	-0.304650	-0.015573	-0.931934
61713		5.455522	1.411121	7.956218	0.002787	-0.002481	-0.003090	-0.626709	-0.222168	-0.291504	-0.196204	-0.304660	-0.015642	-0.931902
61714		5.470095	1.416048	7.964337	0.004764	-0.004396	-0.003598	-0.631348	-0.216309	-0.306152	-0.196308	-0.304827	-0.015748	-0.931824
61715		5.444445	1.415116	7.930259	0.003348	-0.002934	-0.003577	-0.626465	-0.219971	-0.299072	-0.196288	-0.304720	-0.015709	-0.931864
61716		5.456572	1.409176	7.946686	0.005103	-0.000855	-0.003296	-0.627197	-0.216309	-0.299805	-0.196372	-0.304695	-0.015773	-0.931853
61717		5.449589	1.417438	7.965760	0.003093	-0.001741	-0.002571	-0.633301	-0.214355	-0.300049	-0.196367	-0.304663	-0.015759	-0.931865
61718		5.463013	1.404968	7.950283	0.004501	-0.004496	-0.002156	-0.625977	-0.213379	-0.294922	-0.196230	-0.304708	-0.015719	-0.931880
61719		5.463796	1.406281	7.949513	0.004765	-0.004396	-0.003596	-0.635986	-0.208740	-0.296143	-0.196169	-0.304789	-0.015706	-0.931866
61720		5.450435	1.403978	7.940102	0.003895	-0.003601	-0.004715	-0.631836	-0.217529	-0.301025	-0.195889	-0.304907	-0.015612	-0.931888
61721		5.472574	1.413529	7.944761	0.003955	-0.000374	-0.003627	-0.624756	-0.221436	-0.306396	-0.195874	-0.304866	-0.015620	-0.931905
61722		5.464659	1.410297	7.948208	0.002487	-0.000846	-0.005129	-0.626221	-0.217041	-0.313965	-0.196101	-0.304670	-0.015650	-0.931921
61723		5.453586	1.424354	7.938759	0.004238	-0.004596	-0.000715	-0.635986	-0.223145	-0.299072	-0.196174	-0.304382	-0.015590	-0.932000
61724		5.458062	1.408000	7.950586	0.003900	-0.004681	-0.003626	-0.627686	-0.215088	-0.302979	-0.196208	-0.304486	-0.015656	-0.931958
61725		5.452926	1.415874	7.945435	0.004187	-0.003074	-0.004849	-0.636475	-0.217529	-0.301514	-0.196204	-0.304410	-0.015634	-0.931984
61726		5.466145	1.403763	7.930036	0.003330	-0.002067	-0.005315	-0.635010	-0.220703	-0.305420	-0.196130	-0.304427	-0.015628	-0.931994
61727		5.457557	1.406934	7.965005	0.003641	-0.002407	-0.003709	-0.626221	-0.213623	-0.303223	-0.196147	-0.304364	-0.015644	-0.932011
61728		5.471515	1.406232	7.965382	0.004507	-0.002121	-0.003678	-0.633545	-0.221924	-0.294189	-0.196119	-0.304261	-0.015605	-0.932051
61729		5.450231	1.405041	7.967822	0.003372	-0.001427	-0.003356	-0.635986	-0.215576	-0.300049	-0.196131	-0.304403	-0.015680	-0.932001
61730		5.451461	1.399920	7.935699	0.005109	-0.001934	-0.002206	-0.632324	-0.215820	-0.309570	-0.195970	-0.304445	-0.015663	-0.932021
61731		5.452692	1.418735	7.958967	0.004191	-0.000700	-0.006371	-0.626465	-0.224854	-0.295166	-0.195972	-0.304248	-0.015625	-0.932086
61732		5.459996	1.413053	7.939207	0.003364	-0.002720	-0.002920	-0.633789	-0.217285	-0.298096	-0.196154	-0.304330	-0.015735	-0.932019
61733		5.451129	1.410354	7.966269	0.005110	-0.001933	-0.002206	-0.630859	-0.212891	-0.299561	-0.196052	-0.304396	-0.015748	-0.932019
61734		5.451484	1.411674	7.965792	0.004217	-0.002647	-0.003541	-0.637695	-0.216309	-0.301270	-0.195925	-0.304405	-0.015698	-0.932043
61735		5.467577	1.421983	7.958001	0.004508	-0.002120	-0.003676	-0.628418	-0.212158	-0.309570	-0.195781	-0.304435	-0.015682	-0.932064
61736		5.449436	1.391816	7.957179	0.003634	-0.003700	-0.003270	-0.639648	-0.213135	-0.306885	-0.195743	-0.304234	-0.015575	-0.932139
61737		5.458221	1.403355	7.960792	0.004792	-0.002886	-0.003374	-0.631836	-0.214111	-0.294922	-0.195530	-0.304178	-0.015499	-0.932204
61738		5.461005	1.421273	7.960094	0.003989	-0.001026	-0.001232	-0.625977	-0.206299	-0.301758	-0.195369	-0.304272	-0.015484	-0.932207
61739		5.439694	1.419937	7.962590	0.003934	-0.001880	-0.003841	-0.627930	-0.217529	-0.295654	-0.195228	-0.304178	-0.015351	-0.932269
61740		5.457076	1.395966	7.967653	0.004224	-0.003726	-0.002451	-0.639648	-0.219482	-0.303223	-0.195229	-0.304262	-0.015383	-0.932241
61741		5.461374	1.407765	7.934795	0.006190	-0.005853	-0.003608	-0.633545	-0.222656	-0.302002	-0.195128	-0.304323	-0.015421	-0.932242
61742		5.454822	1.410738	7.945377	0.005921	-0.004872	-0.003256	-0.632812	-0.216553	-0.298096	-0.195184	-0.304349	-0.015503	-0.932220
61743		5.458020	1.429033	7.944311	0.004474	-0.003841	-0.004542	-0.630615	-0.215332	-0.298340	-0.195123	-0.304418	-0.015516	-0.932210
61744		5.460289	1.401962	7.964398	0.003933	-0.004253	-0.002314	-0.630859	-0.213379	-0.302002	-0.195057	-0.304465	-0.015497	-0.932209
61745		5.454338	1.398382	7.943531	0.006497	-0.002739	-0.004616	-0.631348	-0.208740	-0.301514	-0.194994	-0.304426	-0.015478	-0.932235
61746		5.469621	1.409662	7.959154	0.005908	-0.007458	-0.002380	-0.627686	-0.217285	-0.298096	-0.194806	-0.304448	-0.015378	-0.932269
61747		5.444621	1.414443	7.932747	0.003324	-0.003362	-0.004872	-0.632568	-0.223633	-0.301270	-0.194869	-0.304464	-0.015392	-0.932251
61748		5.464349	1.407248	7.937609	0.004842	-0.000951	-0.001854	-0.625732	-0.212891	-0.296875	-0.194949	-0.304443	-0.015481	-0.932239
61749		5.437730	1.418330	7.943408	0.004793	-0.002886	-0.003371	-0.634766	-0.221924	-0.295410	-0.194920	-0.304457	-0.015458	-0.932241
61750		5.459978	1.422169	7.939796	0.005369	-0.005497	-0.001678	-0.627441	-0.219971	-0.306396	-0.194882	-0.304616	-0.015546	-0.932196
61751		5.457114	1.407441	7.963099	0.005951	-0.004443	-0.001949	-0.626465	-0.220703	-0.298340	-0.195012	-0.304491	-0.015568	-0.932209
61752		5.457031	1.397383	7.946659	0.005355	-0.003339	-0.003857	-0.635986	-0.215820	-0.310791	-0.195138	-0.304499	-0.015638	-0.932179
61753		5.464020	1.409710	7.974409	0.003386	0.001159	-0.004229	-0.629150	-0.217041	-0.298828	-0.195091	-0.304284	-0.015583	-0.932260
61754		5.451558	1.412158	7.949627	0.002812	-0.000974	-0.002867	-0.627930	-0.218994	-0.296631	-0.195094	-0.304269	-0.015580	-0.932264
61755		5.465092	1.411148	7.950338	0.003123	0.001060	-0.002789	-0.631104	-0.218750	-0.301270	-0.195141	-0.304266	-0.015616	-0.932254
61756		5.473655	1.421543	7.931189	0.000904	0.008045	-0.002599	-0.630371	-0.224854	-0.296875	-0.195162	-0.304115	-0.015620	-0.932299
61757		5.464098	1.382355	7.949968	-0.011937	0.020312	-0.005048	-0.624023	-0.206787	-0.299805	-0.195368	-0.303877	-0.015600	-0.932334
61758		5.470546	1.329678	8.014269	-0.007775	0.010775	-0.007695	-0.626465	-0.218018	-0.299316	-0.195320	-0.303638	-0.015406	-0.932425
61759		5.344226	1.551283	7.942996	-0.004290	0.008690	-0.004304	-0.631592	-0.211914	-0.305908	-0.195419	-0.303484	-0.015361	-0.932455
61760		5.435360	1.383996	7.989223	-0.001894	-0.000255	0.007030	-0.628662	-0.217773	-0.309082	-0.195199	-0.303357	-0.015189	-0.932545
61761		5.459974	1.351103	7.975223	0.004972	-0.002473	0.006631	-0.635498	-0.215576	-0.295410	-0.195156	-0.303205	-0.015149	-0.932605
61762		5.465992	1.385195	7.973742	0.004181	-0.008031	-0.002437	-0.636963	-0.223389	-0.298828	-0.194994	-0.303413	-0.015150	-0.932571
61763		5.468125	1.385061	7.949242	-0.000866	-0.000288	-0.000030	-0.630371	-0.219971	-0.301514	-0.194982	-0.303474	-0.015172	-0.932553
61764		5.456587	1.409110	7.956540	-0.005426	0.007011	-0.002458	-0.633789	-0.224609	-0.298340	-0.195062	-0.303334	-0.015121	-0.932583
61765		5.406454	1.376808	7.995453	-0.000866	0.004456	-0.003084	-0.622803	-0.222412	-0.298096	-0.195153	-0.303327	-0.015181	-0.932565
61766		5.437831	1.395583	7.980687	0.003883	-0.005107	-0.004917	-0.632080	-0.218018	-0.302490	-0.195365	-0.303362	-0.015260	-0.932508
61767		5.446744	1.396249	7.967850	0.009581	-0.010725	-0.004335	-0.620850	-0.221924	-0.302246	-0.195345	-0.303461	-0.015319	-0.932479
61768		5.438948	1.422196	7.949175	0.005299	-0.007858	-0.004496	-0.634766	-0.208496	-0.300293	-0.195575	-0.303439	-0.015384	-0.932437
61769		5.418646	1.382305	7.979568	0.009048	-0.009843	-0.002544	-0.627930	-0.224854	-0.305176	-0.195295	-0.303568	-0.015335	-0.932454
61770		5.443791	1.386827	7.950795	0.012697	-0.014619	-0.004715	-0.633545	-0.217773	-0.298340	-0.195472	-0.303645	-0.015486	-0.932390
61771		5.460830	1.432817	7.928141	0.010425	-0.013235	-0.004074	-0.626953	-0.211914	-0.295410	-0.195406	-0.303847	-0.015551	-0.932337
61772		5.446878	1.392390	7.970797	0.005950	-0.005732	-0.001506	-0.625977	-0.215576	-0.295654	-0.195288	-0.303939	-0.015525	-0.932332
61773		5.448715	1.399744	7.977374	0.007638	-0.009462	-0.001432	-0.629150	-0.219238	-0.301758	-0.195253	-0.304069	-0.015548	-0.932296
61774		5.458462	1.400571	7.963907	0.011905	-0.013833	-0.001481	-0.631104	-0.210449	-0.295410	-0.195255	-0.304181	-0.015625	-0.932258
61775		5.460768	1.397336	7.953769	0.011317	-0.013809	-0.002296	-0.631104	-0.215820	-0.307861	-0.195044	-0.304396	-0.015629	-0.932232
61776		5.461426	1.394490	7.967803	0.009367	-0.010176	-0.000930	-0.628418	-0.221924	-0.298340	-0.194984	-0.304358	-0.015629	-0.932257
61777		5.444421	1.405107	7.960462	0.010739	-0.014862	-0.002018	-0.632568	-0.218018	-0.302734	-0.195057	-0.304525	-0.015726	-0.932185
61778		5.478983	1.425591	7.943008	0.012144	-0.017825	-0.002243	-0.635010	-0.213867	-0.300293	-0.195005	-0.304677	-0.015780	-0.932146
61779		5.488580	1.387373	7.958437	0.007923	-0.007855	-0.002653	-0.628418	-0.214355	-0.293457	-0.194850	-0.304748	-0.015776	-0.932155
61780		5.480399	1.418548	7.948129	0.004535	-0.002981	-0.001926	-0.629150	-0.221924	-0.306396	-0.194777	-0.304820	-0.015770	-0.932147
61781		5.457428	1.406495	7.958636	0.006538	-0.003384	-0.002216	-0.632812	-0.212891	-0.301514	-0.194890	-0.304704	-0.015818	-0.932160
61782		5.469889	1.395283	7.966742	0.007382	-0.005895	-0.001956	-0.633789	-0.225098	-0.299316	-0.194743	-0.304714	-0.015800	-0.932188
61783		5.484917	1.434421	7.937321	0.007629	-0.006013	-0.004046	-0.636230	-0.215088	-0.302002	-0.194844	-0.304784	-0.015910	-0.932142
61784		5.466146	1.405391	7.960188	0.005064	-0.005157	-0.003271	-0.639404	-0.221680	-0.295410	-0.194724	-0.304795	-0.015889	-0.932164
61785		5.460325	1.401933	7.939193	0.007953	-0.003764	-0.003322	-0.620117	-0.211670	-0.303711	-0.194653	-0.304932	-0.015984	-0.932133
61786		5.474004	1.390336	7.923388	0.007054	-0.005774	-0.004210	-0.625977	-0.221191	-0.296875	-0.194706	-0.304812	-0.015952	-0.932161
61787		5.480534	1.437164	7.937347	0.005960	-0.004437	-0.001939	-0.626709	-0.223633	-0.295654	-0.194809	-0.304837	-0.016006	-0.932131
61788		5.453325	1.397607	7.956340	0.005645	-0.004103	-0.003544	-0.629883	-0.221924	-0.300049	-0.194966	-0.304883	-0.016087	-0.932081
61789		5.469891	1.408275	7.947973	0.006780	-0.006086	-0.003420	-0.634033	-0.214111	-0.299072	-0.195048	-0.304904	-0.016147	-0.932056
61790		5.471933	1.421972	7.962402	0.008176	-0.007972	-0.004735	-0.625488	-0.217285	-0.308838	-0.194928	-0.304981	-0.016159	-0.932056
61791		5.478231	1.405805	7.950028	0.005929	-0.006159	-0.002796	-0.626221	-0.223633	-0.291016	-0.194989	-0.304828	-0.016147	-0.932094
61792		5.453790	1.422060	7.939438	0.004508	-0.003411	-0.003224	-0.631592	-0.212891	-0.294189	-0.195143	-0.304930	-0.016218	-0.932027
61793		5.476087	1.431744	7.943766	0.004526	-0.001904	-0.003016	-0.629150	-0.216797	-0.302002	-0.195006	-0.304983	-0.016198	-0.932039
61794		5.479985	1.410082	7.948061	0.005632	-0.004318	-0.004192	-0.631348	-0.218506	-0.302734	-0.195008	-0.304935	-0.016204	-0.932054
61795		5.471443	1.408082	7.975019	0.005940	-0.002284	-0.004122	-0.633545	-0.217773	-0.295654	-0.195015	-0.304872	-0.016230	-0.932072
61796		5.480812	1.413589	7.946867	0.005925	-0.002499	-0.004772	-0.637207	-0.215820	-0.299561	-0.194973	-0.304931	-0.016267	-0.932061
61797		5.475109	1.421696	7.941989	0.004805	-0.000301	-0.004246	-0.635742	-0.220459	-0.288330	-0.194851	-0.304923	-0.016270	-0.932089
61798		5.477331	1.400764	7.970506	0.004226	-0.001355	-0.003970	-0.634277	-0.219971	-0.291016	-0.194810	-0.305089	-0.016327	-0.932042
61799		5.462472	1.438287	7.956180	0.005955	-0.002067	-0.003470	-0.622070	-0.219727	-0.306885	-0.194773	-0.305214	-0.016389	-0.932008
61800		5.473252	1.409379	7.941243	0.003647	-0.002409	-0.003692	-0.632812	-0.213867	-0.307373	-0.194939	-0.305025	-0.016381	-0.932036
61801		5.463674	1.395436	7.952796	0.006260	-0.001324	-0.002958	-0.631348	-0.215088	-0.294189	-0.194833	-0.304886	-0.016359	-0.932104
61802		5.463350	1.391064	7.944673	0.004545	-0.000396	-0.002807	-0.627930	-0.212891	-0.299561	-0.194743	-0.304919	-0.016362	-0.932112
61803		5.483956	1.440738	7.944064	0.003640	0.001249	-0.005672	-0.624512	-0.211670	-0.303467	-0.194708	-0.304827	-0.016338	-0.932149
61804		5.452798	1.430083	7.966763	0.003939	-0.000591	-0.004273	-0.638184	-0.208252	-0.299316	-0.194690	-0.304682	-0.016289	-0.932201
61805		5.458131	1.413383	7.955184	0.005088	-0.003647	-0.003053	-0.625732	-0.220947	-0.300293	-0.194386	-0.304715	-0.016238	-0.932255
61806		5.458730	1.414939	7.954496	0.005940	-0.003573	-0.003675	-0.625000	-0.211914	-0.299072	-0.194523	-0.304678	-0.016275	-0.932238
61807		5.472069	1.403080	7.938988	0.006519	-0.002519	-0.003951	-0.626221	-0.214844	-0.293701	-0.194480	-0.304631	-0.016266	-0.932262
61808		5.466656	1.416884	7.942007	0.004562	0.001112	-0.002599	-0.626465	-0.226074	-0.298096	-0.194448	-0.304625	-0.016275	-0.932271
61809		5.464800	1.413144	7.958014	0.003652	0.000173	-0.004577	-0.628418	-0.218994	-0.297119	-0.194689	-0.304582	-0.016336	-0.932233
61810		5.456817	1.410100	7.961616	0.004215	-0.000280	-0.005060	-0.630371	-0.221680	-0.299805	-0.194749	-0.304562	-0.016364	-0.932227
61811		5.464858	1.416279	7.957417	0.007399	-0.003303	-0.002828	-0.629883	-0.218506	-0.302490	-0.194807	-0.304564	-0.016423	-0.932213
61812		5.474892	1.427707	7.936838	0.006490	-0.004242	-0.004805	-0.632080	-0.213867	-0.306396	-0.194837	-0.304530	-0.016450	-0.932218
61813		5.460184	1.426394	7.951452	0.005655	-0.002809	-0.003977	-0.632324	-0.211426	-0.297852	-0.194742	-0.304430	-0.016433	-0.932270
61814		5.455766	1.394572	7.951830	0.005367	-0.002045	-0.004282	-0.635986	-0.219238	-0.305176	-0.194574	-0.304438	-0.016424	-0.932303
61815		5.470280	1.405781	7.967896	0.003378	-0.000138	-0.003788	-0.623047	-0.218994	-0.302246	-0.194547	-0.304350	-0.016423	-0.932337
61816		5.464384	1.413505	7.963195	0.003926	-0.000807	-0.004920	-0.628906	-0.213379	-0.302734	-0.194702	-0.304239	-0.016424	-0.932341
61817		5.449019	1.444934	7.941052	0.003650	-0.002409	-0.003687	-0.632812	-0.228027	-0.290771	-0.194635	-0.304168	-0.016389	-0.932379
61818		5.464956	1.416039	7.962352	0.003361	-0.002935	-0.003548	-0.632080	-0.215088	-0.304688	-0.194785	-0.304305	-0.016463	-0.932301
61819		5.469845	1.393293	7.943078	0.004547	-0.000394	-0.002804	-0.624268	-0.208740	-0.299561	-0.194702	-0.304206	-0.016447	-0.932352
61820		5.461973	1.447747	7.964631	0.004490	0.000030	-0.005847	-0.629639	-0.214600	-0.292236	-0.194611	-0.304119	-0.016417	-0.932399
61821		5.442666	1.405981	7.949022	0.003350	-0.000571	-0.005086	-0.627686	-0.220459	-0.312500	-0.194541	-0.304172	-0.016426	-0.932397
61822		5.462318	1.399016	7.953944	0.003637	-0.002625	-0.004335	-0.633789	-0.213379	-0.297607	-0.194691	-0.303981	-0.016399	-0.932428
61823		5.456996	1.412521	7.956925	0.003378	-0.000137	-0.003787	-0.634277	-0.218018	-0.298340	-0.194536	-0.303982	-0.016391	-0.932460
61824		5.457576	1.419555	7.964387	0.003954	-0.002955	-0.002730	-0.630127	-0.217773	-0.299072	-0.194464	-0.304017	-0.016399	-0.932464
61825		5.462171	1.442707	7.947143	0.005354	-0.004841	-0.004039	-0.633789	-0.226074	-0.298340	-0.194462	-0.304044	-0.016415	-0.932455
61826		5.456420	1.405796	7.963506	0.005976	-0.001846	-0.002813	-0.635254	-0.215088	-0.303955	-0.194554	-0.304077	-0.016488	-0.932424
61827		5.463983	1.399938	7.943538	0.003940	-0.004462	-0.002933	-0.634277	-0.223877	-0.302490	-0.194435	-0.304056	-0.016463	-0.932456
61828		5.467895	1.429723	7.957888	0.005383	-0.004407	-0.002739	-0.627686	-0.219727	-0.298340	-0.194491	-0.304064	-0.016500	-0.932441
61829		5.460100	1.420780	7.953324	0.005125	-0.000629	-0.002636	-0.631348	-0.218262	-0.301514	-0.194541	-0.304039	-0.016525	-0.932438
61830		5.457920	1.405468	7.953434	0.004504	-0.002334	-0.004306	-0.627441	-0.217041	-0.299561	-0.194543	-0.304010	-0.016533	-0.932447
61831		5.460616	1.423570	7.952470	0.004244	-0.002427	-0.002867	-0.628174	-0.220215	-0.297607	-0.194552	-0.303985	-0.016527	-0.932453
61832		5.446408	1.414991	7.935750	0.003653	-0.001118	-0.004129	-0.628662	-0.218994	-0.303711	-0.194625	-0.303975	-0.016543	-0.932441
61833		5.451898	1.416654	7.971405	0.003321	-0.004876	-0.005046	-0.628418	-0.220215	-0.303467	-0.194695	-0.303934	-0.016528	-0.932440
61834		5.459464	1.410608	7.951464	0.003090	-0.001955	-0.003201	-0.637451	-0.210449	-0.300049	-0.194769	-0.303863	-0.016517	-0.932448
61835		5.461767	1.422711	7.942720	0.004216	-0.002861	-0.004165	-0.630371	-0.208496	-0.304932	-0.194524	-0.303881	-0.016499	-0.932494
61836		5.452761	1.414660	7.962065	0.004505	-0.002334	-0.004304	-0.633057	-0.220459	-0.303711	-0.194357	-0.303796	-0.016455	-0.932557
61837		5.468720	1.425006	7.954038	0.004245	-0.002426	-0.002866	-0.631104	-0.218262	-0.304443	-0.194373	-0.303757	-0.016462	-0.932566
61838		5.453406	1.417378	7.961140	0.005400	-0.001608	-0.002978	-0.644531	-0.215576	-0.308594	-0.194373	-0.303691	-0.016469	-0.932588
61839		5.473699	1.416529	7.973648	0.005964	-0.003351	-0.003014	-0.630859	-0.222412	-0.303467	-0.194145	-0.303661	-0.016480	-0.932645
61840		5.439198	1.417408	7.975232	0.005661	-0.004095	-0.003523	-0.626465	-0.218994	-0.302734	-0.194232	-0.303642	-0.016507	-0.932632
61841		5.453825	1.404401	7.935854	0.004809	-0.002879	-0.003347	-0.624756	-0.220947	-0.302490	-0.194315	-0.303590	-0.016504	-0.932632
61842		5.454027	1.405615	7.935500	0.002512	-0.000429	-0.003812	-0.633301	-0.220215	-0.299561	-0.194470	-0.303502	-0.016488	-0.932629
61843		5.449517	1.430833	7.954008	0.004218	-0.002861	-0.004163	-0.628906	-0.217041	-0.299072	-0.194474	-0.303523	-0.016509	-0.932621
61844		5.453337	1.409242	7.958564	0.006267	-0.001315	-0.002950	-0.625732	-0.218018	-0.297852	-0.194452	-0.303510	-0.016534	-0.932629
61845		5.448145	1.422848	7.961400	0.002788	-0.002699	-0.003707	-0.627197	-0.221924	-0.302979	-0.194511	-0.303506	-0.016519	-0.932618
61846		5.459914	1.405332	7.962157	0.003366	-0.002935	-0.003540	-0.626221	-0.224121	-0.301025	-0.194639	-0.303459	-0.016512	-0.932607
61847		5.455950	1.417916	7.941092	0.003943	-0.001880	-0.003820	-0.628174	-0.215088	-0.298096	-0.194816	-0.303422	-0.016526	-0.932582
61848		5.454502	1.414055	7.956912	0.003119	-0.000230	-0.002347	-0.625488	-0.211670	-0.299316	-0.194759	-0.303397	-0.016510	-0.932602
61849		5.462844	1.425518	7.960613	0.003655	-0.002407	-0.003679	-0.630859	-0.222656	-0.300781	-0.194682	-0.303366	-0.016484	-0.932629
61850		5.448974	1.422637	7.951767	0.003697	-0.000465	-0.002180	-0.629395	-0.209229	-0.302979	-0.194750	-0.303338	-0.016494	-0.932623
61851		5.468978	1.421495	7.964529	0.004824	-0.001371	-0.003143	-0.629639	-0.225586	-0.299072	-0.194570	-0.303273	-0.016474	-0.932683
61852		5.439512	1.410091	7.963176	0.006240	-0.001749	-0.004246	-0.628174	-0.219727	-0.304688	-0.194726	-0.303284	-0.016529	-0.932645
61853		5.454516	1.422242	7.978689	0.010836	-0.005356	-0.003758	-0.636719	-0.218994	-0.297119	-0.194767	-0.303271	-0.016595	-0.932640
61854		5.470147	1.422164	7.954506	0.011428	-0.004084	-0.003389	-0.626953	-0.221436	-0.298096	-0.194660	-0.303367	-0.016697	-0.932629
61855		5.464552	1.424889	7.941344	0.006532	-0.003801	-0.003490	-0.630859	-0.221924	-0.301758	-0.194748	-0.303394	-0.016731	-0.932601
61856		5.463938	1.427450	7.964558	0.004206	-0.003079	-0.004807	-0.636475	-0.220459	-0.301514	-0.194826	-0.303384	-0.016745	-0.932588
61857		5.456744	1.430107	7.975760	0.003105	-0.000448	-0.002995	-0.626221	-0.215820	-0.299316	-0.194787	-0.303367	-0.016749	-0.932602
61858		5.466003	1.440370	7.955769	0.000505	-0.000035	-0.003523	-0.629639	-0.221436	-0.309814	-0.194792	-0.303311	-0.016704	-0.932620
61859		5.449856	1.425758	7.955652	-0.001475	0.000797	-0.001939	-0.632812	-0.215820	-0.310547	-0.194874	-0.303150	-0.016631	-0.932656
61860		5.454287	1.420298	7.984258	-0.001172	0.001542	-0.001431	-0.631836	-0.220215	-0.305908	-0.194797	-0.302983	-0.016552	-0.932728
61861		5.434222	1.417085	7.963217	0.001638	-0.004809	-0.003142	-0.636963	-0.224365	-0.302734	-0.194826	-0.302951	-0.016515	-0.932733
61862		5.456798	1.426368	7.967294	0.002836	-0.003336	-0.001310	-0.629883	-0.218994	-0.303955	-0.194844	-0.302969	-0.016512	-0.932723
61863		5.462897	1.414902	7.963482	0.002229	-0.003536	-0.002774	-0.629883	-0.222656	-0.295410	-0.194862	-0.302936	-0.016482	-0.932731
61864		5.471870	1.426180	7.966758	0.003388	-0.005296	-0.001991	-0.627930	-0.213867	-0.301025	-0.194927	-0.303022	-0.016481	-0.932689
61865		5.444997	1.424971	7.956776	0.003386	-0.004006	-0.002439	-0.621338	-0.219238	-0.303467	-0.194854	-0.303012	-0.016452	-0.932708
61866		5.459391	1.424339	7.956782	0.004801	-0.004384	-0.003542	-0.630859	-0.217773	-0.301270	-0.194979	-0.302963	-0.016440	-0.932698
61867		5.456540	1.409742	7.980593	0.003398	-0.002499	-0.002239	-0.635742	-0.220947	-0.302979	-0.194946	-0.302952	-0.016427	-0.932709
61868		5.445938	1.416757	7.939410	0.004235	-0.002642	-0.003508	-0.633301	-0.221680	-0.300293	-0.194935	-0.302951	-0.016438	-0.932711
61869		5.443921	1.419781	7.986790	0.002817	-0.000974	-0.002854	-0.627441	-0.218506	-0.295410	-0.194960	-0.302947	-0.016438	-0.932708
61870		5.460902	1.428888	7.954930	0.003370	-0.002934	-0.003535	-0.629639	-0.217041	-0.299805	-0.194992	-0.302988	-0.016434	-0.932688
61871		5.464666	1.401097	7.951635	0.004239	-0.003931	-0.003059	-0.636475	-0.220947	-0.303711	-0.194965	-0.303004	-0.016429	-0.932688
61872		5.459336	1.408869	7.946480	0.006273	-0.002600	-0.002498	-0.628662	-0.219971	-0.302246	-0.194926	-0.303004	-0.016460	-0.932696
61873		5.452715	1.417366	7.965352	0.002835	-0.002046	-0.001756	-0.622559	-0.218018	-0.301025	-0.194960	-0.302969	-0.016438	-0.932700
61874		5.442285	1.442906	7.971273	0.006017	-0.003980	-0.000612	-0.628906	-0.220703	-0.302979	-0.194998	-0.302950	-0.016433	-0.932699
61875		5.459416	1.407597	7.960840	0.005379	-0.003329	-0.003820	-0.630127	-0.211182	-0.308350	-0.195058	-0.302932	-0.016446	-0.932692
61876		5.454033	1.415487	7.955696	0.004800	-0.003095	-0.003987	-0.623047	-0.229492	-0.296143	-0.194922	-0.302847	-0.016432	-0.932748
61877		5.460362	1.410514	7.959675	0.004844	-0.002440	-0.002043	-0.634521	-0.215576	-0.302734	-0.195202	-0.302876	-0.016447	-0.932680
61878		5.460281	1.405666	7.951509	0.002530	-0.001502	-0.002712	-0.630371	-0.213379	-0.308350	-0.195095	-0.302850	-0.016427	-0.932711
61879		5.455021	1.419006	7.954392	0.004539	-0.001896	-0.002999	-0.631104	-0.219482	-0.301758	-0.194987	-0.302757	-0.016415	-0.932764
61880		5.461210	1.414106	7.958456	0.004496	-0.002551	-0.004943	-0.632324	-0.218750	-0.303955	-0.195015	-0.302750	-0.016426	-0.932760
61881		5.454056	1.411077	7.961580	0.005703	-0.004943	-0.001765	-0.625732	-0.220215	-0.298828	-0.194974	-0.302757	-0.016431	-0.932767
61882		5.455818	1.411403	7.937027	0.004252	-0.002423	-0.002857	-0.636719	-0.209229	-0.297119	-0.195051	-0.302756	-0.016428	-0.932751
61883		5.435173	1.416099	7.947356	0.006261	-0.002817	-0.003144	-0.635498	-0.212891	-0.303955	-0.194783	-0.302812	-0.016455	-0.932788
61884		5.449674	1.421675	7.955261	0.004831	-0.002657	-0.002689	-0.633545	-0.225830	-0.297607	-0.194612	-0.302794	-0.016456	-0.932830
61885		5.463396	1.415299	7.947659	0.004816	-0.002876	-0.003337	-0.635742	-0.218750	-0.300049	-0.194700	-0.302850	-0.016488	-0.932793
61886		5.464178	1.422491	7.954924	0.003673	-0.002189	-0.003024	-0.629883	-0.217773	-0.300049	-0.194639	-0.302870	-0.016494	-0.932799
61887		5.470598	1.423284	7.966905	0.003957	-0.000373	-0.003615	-0.624756	-0.220215	-0.300781	-0.194636	-0.302844	-0.016497	-0.932808
61888		5.446381	1.399135	7.962713	0.002800	0.000096	-0.003950	-0.632080	-0.223389	-0.304199	-0.194746	-0.302787	-0.016481	-0.932803
61889		5.456342	1.421449	7.958168	0.003106	-0.000447	-0.002993	-0.630127	-0.211426	-0.308838	-0.194819	-0.302738	-0.016476	-0.932804
61890		5.448675	1.417899	7.961747	0.003124	-0.001517	-0.001895	-0.631592	-0.218994	-0.299072	-0.194692	-0.302635	-0.016435	-0.932865
61891		5.447350	1.414109	7.977548	0.003641	-0.001337	-0.004768	-0.631836	-0.216064	-0.306396	-0.194702	-0.302641	-0.016444	-0.932861
61892		5.466869	1.401568	7.974526	0.005961	-0.003562	-0.003648	-0.634766	-0.213867	-0.297607	-0.194649	-0.302606	-0.016453	-0.932883
61893		5.448837	1.410257	7.944841	0.004526	-0.002114	-0.003644	-0.635986	-0.216309	-0.300537	-0.194509	-0.302642	-0.016469	-0.932900
61894		5.456377	1.410267	7.932897	0.004522	-0.000825	-0.004094	-0.629883	-0.208252	-0.294189	-0.194409	-0.302643	-0.016490	-0.932920
61895		5.441655	1.414470	7.955788	0.003656	-0.001118	-0.004120	-0.628662	-0.213867	-0.303467	-0.194233	-0.302671	-0.016489	-0.932948
61896		5.442227	1.421733	7.963179	0.004527	-0.002113	-0.003643	-0.633545	-0.215088	-0.301025	-0.194194	-0.302629	-0.016477	-0.932970
61897		5.469208	1.407616	7.948554	0.003938	-0.003387	-0.004007	-0.628418	-0.215820	-0.305664	-0.194107	-0.302643	-0.016478	-0.932983
61898		5.441432	1.419584	7.978337	0.004523	-0.000825	-0.004093	-0.630127	-0.215576	-0.299316	-0.194122	-0.302568	-0.016465	-0.933005
61899		5.468061	1.405523	7.963946	0.003642	-0.001337	-0.004767	-0.631104	-0.216064	-0.295898	-0.194092	-0.302562	-0.016468	-0.933013
61900		5.447054	1.410130	7.974551	0.004537	-0.000605	-0.003445	-0.631836	-0.219482	-0.301270	-0.194021	-0.302584	-0.016492	-0.933020
61901		5.435455	1.424290	7.965066	0.005672	-0.002799	-0.003954	-0.633545	-0.214111	-0.305176	-0.194023	-0.302593	-0.016518	-0.933016
61902		5.447431	1.407363	7.965718	0.005677	-0.004087	-0.003502	-0.635986	-0.214111	-0.300049	-0.193929	-0.302582	-0.016522	-0.933040
61903		5.455772	1.413381	7.961224	0.004820	-0.002874	-0.003332	-0.635010	-0.216064	-0.304199	-0.193776	-0.302609	-0.016543	-0.933062
61904		5.456889	1.426731	7.976223	0.005395	-0.001819	-0.003615	-0.638672	-0.219238	-0.296631	-0.193693	-0.302586	-0.016561	-0.933087
61905		5.449487	1.410791	7.940391	0.004839	0.000141	-0.002939	-0.636475	-0.214111	-0.306885	-0.193553	-0.302624	-0.016620	-0.933102
61906		5.448637	1.413265	7.963848	0.004506	-0.003839	-0.004483	-0.635010	-0.216797	-0.296143	-0.193454	-0.302602	-0.016616	-0.933130
61907		5.451028	1.425629	7.954830	0.004199	-0.003298	-0.005440	-0.632080	-0.224121	-0.311035	-0.193357	-0.302665	-0.016655	-0.933129
61908		5.457171	1.420661	7.958969	0.003093	-0.000666	-0.003638	-0.626221	-0.224121	-0.299561	-0.193486	-0.302563	-0.016630	-0.933136
61909		5.449848	1.423289	7.970303	0.004251	-0.001132	-0.003302	-0.632080	-0.223877	-0.298828	-0.193621	-0.302549	-0.016638	-0.933112
61910		5.450433	1.430571	7.977672	0.004530	-0.002112	-0.003639	-0.628906	-0.213135	-0.312988	-0.193663	-0.302575	-0.016670	-0.933094
61911		5.450035	1.420107	7.961674	0.004822	-0.002873	-0.003329	-0.625000	-0.217285	-0.305420	-0.193677	-0.302464	-0.016620	-0.933129
61912		5.456360	1.415164	7.965690	0.003649	-0.002626	-0.004312	-0.633545	-0.213623	-0.305420	-0.193777	-0.302404	-0.016584	-0.933128
61913		5.450452	1.416812	7.952909	0.004851	-0.002434	-0.002035	-0.629639	-0.209961	-0.307617	-0.193668	-0.302372	-0.016576	-0.933161
61914		5.436684	1.413934	7.944043	0.002763	-0.001852	-0.005436	-0.634521	-0.211914	-0.301758	-0.193622	-0.302291	-0.016532	-0.933197
61915		5.441804	1.409952	7.972043	0.004258	-0.002420	-0.002849	-0.625732	-0.218750	-0.306396	-0.193464	-0.302292	-0.016536	-0.933230
61916		5.450037	1.415751	7.967645	0.004536	-0.003400	-0.003186	-0.629395	-0.220947	-0.302246	-0.193573	-0.302243	-0.016503	-0.933224
61917		5.436154	1.406998	7.950845	0.004537	-0.003400	-0.003186	-0.625244	-0.218506	-0.307861	-0.193630	-0.302245	-0.016503	-0.933211
61918		5.451076	1.418244	7.966490	0.002812	-0.002482	-0.003042	-0.633545	-0.216309	-0.302979	-0.193748	-0.302168	-0.016447	-0.933213
61919		5.445525	1.425647	7.961500	0.003665	-0.002406	-0.003663	-0.631348	-0.207275	-0.302734	-0.193686	-0.302159	-0.016447	-0.933228
61920		5.449917	1.409805	7.973998	0.004545	-0.001892	-0.002991	-0.628418	-0.219482	-0.303223	-0.193506	-0.302131	-0.016440	-0.933275
61921		5.452122	1.421719	7.965156	0.001932	-0.002996	-0.003714	-0.623291	-0.218018	-0.305176	-0.193580	-0.302110	-0.016404	-0.933267
61922		5.458322	1.416341	7.969343	0.002821	-0.000974	-0.002847	-0.632568	-0.209717	-0.298584	-0.193704	-0.302033	-0.016352	-0.933267
61923		5.437663	1.407751	7.940623	0.003644	-0.001338	-0.004762	-0.626709	-0.217041	-0.295898	-0.193541	-0.302039	-0.016366	-0.933299
61924		5.444926	1.420500	7.968038	0.003100	-0.001954	-0.003183	-0.637451	-0.219238	-0.296387	-0.193549	-0.302062	-0.016361	-0.933290
61925		5.459383	1.425470	7.976051	0.001689	-0.002865	-0.001631	-0.629150	-0.222900	-0.293945	-0.193420	-0.302126	-0.016372	-0.933295
61926		5.443569	1.405450	7.967810	0.004853	-0.002432	-0.002033	-0.631836	-0.210938	-0.292969	-0.193447	-0.302190	-0.016405	-0.933269
61927		5.444113	1.406702	7.967217	0.004252	-0.003926	-0.003041	-0.629639	-0.217285	-0.297607	-0.193271	-0.302270	-0.016429	-0.933279
61928		5.446494	1.418805	7.958208	0.004839	-0.002651	-0.002679	-0.634277	-0.211182	-0.303467	-0.193239	-0.302299	-0.016445	-0.933276
61929		5.458585	1.401530	7.958910	0.004560	-0.004467	-0.002083	-0.631592	-0.215332	-0.300293	-0.193086	-0.302308	-0.016438	-0.933305
61930		5.460937	1.413585	7.949924	0.003952	-0.001878	-0.003804	-0.624756	-0.211914	-0.298828	-0.193033	-0.302307	-0.016445	-0.933316
61931		5.438897	1.419095	7.984454	0.003394	0.000082	-0.003132	-0.627686	-0.221436	-0.305664	-0.193025	-0.302268	-0.016420	-0.933330
61932		5.452051	1.406685	7.969279	0.005119	-0.003631	-0.003014	-0.632812	-0.214844	-0.306396	-0.193141	-0.302242	-0.016405	-0.933315
61933		5.452256	1.402117	7.960898	0.004540	-0.003398	-0.003182	-0.634033	-0.214600	-0.301025	-0.193092	-0.302216	-0.016394	-0.933334
61934		5.447305	1.415611	7.963457	0.003674	-0.003694	-0.003207	-0.631592	-0.216309	-0.305176	-0.192990	-0.302237	-0.016398	-0.933348
61935		5.446081	1.406061	7.971239	0.004540	-0.003398	-0.003182	-0.632324	-0.220459	-0.297607	-0.192975	-0.302219	-0.016389	-0.933357
61936		5.455771	1.416669	7.950661	0.003380	-0.002934	-0.003517	-0.626709	-0.219482	-0.304199	-0.192961	-0.302259	-0.016406	-0.933347
61937		5.434616	1.415101	7.953450	0.004268	-0.000910	-0.002653	-0.625488	-0.211426	-0.297852	-0.193054	-0.302207	-0.016384	-0.933345
61938		5.448784	1.414622	7.953567	0.005128	-0.004918	-0.002559	-0.625488	-0.217041	-0.297119	-0.193008	-0.302241	-0.016374	-0.933344
61939		5.447625	1.404998	7.961327	0.003409	-0.002493	-0.002224	-0.630615	-0.219727	-0.293213	-0.193038	-0.302254	-0.016356	-0.933333
61940		5.468286	1.404045	7.973626	0.005737	-0.004709	-0.001098	-0.635742	-0.221924	-0.298584	-0.192982	-0.302349	-0.016393	-0.933314
61941		5.442990	1.413548	7.955489	0.002815	-0.002481	-0.003038	-0.629395	-0.220947	-0.297852	-0.192945	-0.302385	-0.016412	-0.933309
61942		5.449661	1.414242	7.967344	0.003695	-0.001966	-0.002366	-0.627930	-0.222412	-0.296143	-0.192975	-0.302402	-0.016415	-0.933297
61943		5.450249	1.415414	7.966734	0.005144	-0.004697	-0.001911	-0.629883	-0.214600	-0.305908	-0.193026	-0.302465	-0.016428	-0.933266
61944		5.457047	1.410590	7.970435	0.005982	-0.004842	-0.003178	-0.632812	-0.211670	-0.303955	-0.193014	-0.302453	-0.016420	-0.933273
61945		5.457294	1.406274	7.961984	0.005680	-0.002795	-0.003944	-0.628418	-0.218506	-0.296875	-0.192920	-0.302436	-0.016431	-0.933298
61946		5.459035	1.412591	7.945347	0.003953	-0.001878	-0.003801	-0.623779	-0.214600	-0.300293	-0.192944	-0.302453	-0.016438	-0.933287
61947		5.442892	1.406055	7.976486	0.005423	-0.002881	-0.002507	-0.628174	-0.206055	-0.300781	-0.192986	-0.302441	-0.016421	-0.933283
61948		5.445337	1.418194	7.967378	0.003956	-0.004673	-0.003537	-0.636230	-0.225586	-0.305420	-0.192864	-0.302445	-0.016396	-0.933307
61949		5.437677	1.403104	7.954989	0.005117	-0.005137	-0.003201	-0.627441	-0.214600	-0.299561	-0.192907	-0.302470	-0.016414	-0.933289
61950		5.444504	1.398239	7.958686	0.004537	-0.004905	-0.003369	-0.631836	-0.215088	-0.309570	-0.192905	-0.302496	-0.016403	-0.933282
61951		5.439694	1.411704	7.961131	0.004286	-0.003484	-0.001742	-0.625244	-0.220947	-0.301758	-0.192883	-0.302442	-0.016368	-0.933304
61952		5.440006	1.406790	7.952745	0.004595	-0.004023	-0.000784	-0.634277	-0.214600	-0.302979	-0.192982	-0.302443	-0.016337	-0.933284
61953		5.447817	1.419563	7.979775	0.003067	-0.003903	-0.004661	-0.633789	-0.218018	-0.311768	-0.192919	-0.302448	-0.016332	-0.933296
61954		5.438890	1.392133	7.952364	0.001970	-0.001049	-0.002223	-0.634277	-0.218262	-0.298828	-0.192933	-0.302354	-0.016282	-0.933324
61955		5.447212	1.403543	7.955899	0.005172	-0.001459	-0.000880	-0.635010	-0.214111	-0.294922	-0.192846	-0.302372	-0.016308	-0.933336
61956		5.446186	1.399922	7.971590	0.003368	-0.003155	-0.004158	-0.635254	-0.211914	-0.302246	-0.192717	-0.302431	-0.016335	-0.933343
61957		5.454062	1.399586	7.959424	0.003706	-0.003252	-0.001909	-0.631592	-0.217773	-0.303955	-0.192570	-0.302436	-0.016332	-0.933372
61958		5.462195	1.405213	7.955064	0.003968	-0.001658	-0.003154	-0.630859	-0.211914	-0.308838	-0.192578	-0.302406	-0.016324	-0.933380
61959		5.439752	1.398863	7.973985	0.003963	-0.003165	-0.003344	-0.629395	-0.222900	-0.302979	-0.192555	-0.302349	-0.016288	-0.933403
61960		5.449546	1.409490	7.953249	0.003944	-0.004894	-0.004179	-0.635010	-0.214111	-0.298096	-0.192669	-0.302365	-0.016273	-0.933375
61961		5.455780	1.398853	7.949341	0.006843	-0.003256	-0.003604	-0.627930	-0.218506	-0.306396	-0.192539	-0.302409	-0.016329	-0.933387
61962		5.456173	1.406071	7.956833	0.000790	0.001987	-0.003470	-0.629639	-0.214844	-0.304443	-0.192641	-0.302302	-0.016270	-0.933401
61963		5.441792	1.402362	7.948581	0.001718	0.000372	-0.000597	-0.633301	-0.210449	-0.297852	-0.192620	-0.302233	-0.016220	-0.933429
61964		5.422554	1.417069	7.950949	0.002808	-0.001195	-0.003489	-0.631836	-0.213623	-0.302734	-0.192478	-0.302238	-0.016227	-0.933457
61965		5.441542	1.398147	7.940462	0.003403	-0.001205	-0.002675	-0.633301	-0.223145	-0.305176	-0.192418	-0.302208	-0.016216	-0.933479
61966		5.450886	1.478028	7.952845	0.001070	0.001007	-0.003804	-0.638184	-0.215088	-0.304932	-0.192493	-0.302145	-0.016190	-0.933484
61967		5.449530	1.364840	7.966582	-0.002522	0.001722	0.003345	-0.634766	-0.225586	-0.298340	-0.192321	-0.302074	-0.016115	-0.933544
61968		5.474561	1.449729	7.948349	-0.012317	0.008266	0.003905	-0.628906	-0.221924	-0.303223	-0.192316	-0.301953	-0.015956	-0.933587
61969		5.484168	1.325413	7.957179	-0.018988	0.018888	0.002050	-0.628418	-0.217529	-0.302002	-0.192431	-0.301638	-0.015708	-0.933669
61970		5.515519	1.391261	7.967476	-0.020888	0.031351	-0.006229	-0.622559	-0.216797	-0.302002	-0.192593	-0.301178	-0.015499	-0.933788
61971		5.439085	1.390401	7.962254	-0.024948	0.042867	-0.007993	-0.629883	-0.216553	-0.299561	-0.192859	-0.300562	-0.015256	-0.933935
61972		5.464694	1.380423	7.959175	-0.034374	0.046743	-0.004256	-0.624512	-0.218262	-0.297852	-0.192987	-0.299924	-0.014940	-0.934119
61973		5.416883	1.367756	8.009916	-0.049022	0.053993	-0.002478	-0.628906	-0.217529	-0.306152	-0.193229	-0.299172	-0.014452	-0.934318
61974		5.356334	1.291784	8.034366	-0.045227	0.039159	-0.000297	-0.625000	-0.211914	-0.305420	-0.193398	-0.298566	-0.013962	-0.934484
61975		5.313054	1.269546	8.065342	-0.016932	0.007329	-0.011597	-0.631836	-0.214111	-0.306152	-0.193577	-0.298394	-0.013755	-0.934505
61976		5.279194	1.523831	8.042800	0.005599	-0.035515	-0.006960	-0.630859	-0.215088	-0.314453	-0.193561	-0.298796	-0.013716	-0.934381
61977		5.566865	1.475828	7.794007	-0.024340	0.019841	0.007448	-0.623291	-0.209961	-0.304199	-0.193545	-0.298417	-0.013380	-0.934510
61978		5.399059	1.065467	8.055470	-0.007391	0.029319	-0.011324	-0.628418	-0.205811	-0.304932	-0.193678	-0.298014	-0.013336	-0.934611
61979		5.177396	1.129244	8.215408	0.036133	-0.063111	-0.038167	-0.629395	-0.214844	-0.323242	-0.193854	-0.298801	-0.013693	-0.934319
61980		5.210501	1.490143	8.071234	0.067404	-0.123173	-0.033333	-0.632080	-0.219238	-0.310547	-0.194055	-0.300243	-0.014199	-0.933807
61981		5.376550	1.536458	7.864020	0.059871	-0.089391	-0.009437	-0.634766	-0.220215	-0.301758	-0.193960	-0.301358	-0.014652	-0.933460
61982		5.761489	1.224086	7.670065	0.029539	0.033183	-0.019524	-0.633789	-0.222168	-0.304199	-0.194017	-0.301022	-0.015116	-0.933549
61983		5.265461	1.221667	8.042549	0.036456	0.053620	-0.060245	-0.635742	-0.217285	-0.308594	-0.194556	-0.300444	-0.015853	-0.933611
61984		4.460414	2.217914	8.405091	0.091645	-0.045002	0.018117	-0.617920	-0.218506	-0.300781	-0.193902	-0.301140	-0.016698	-0.933508
61985		5.795451	1.558349	7.547746	0.013928	0.014345	0.219237	-0.629639	-0.219238	-0.298096	-0.191405	-0.300992	-0.015978	-0.934084
61986		5.547374	1.003900	7.972610	-0.057664	0.049739	0.156497	-0.625732	-0.214355	-0.305664	-0.189793	-0.300299	-0.014792	-0.934655
61987		4.520287	2.428285	8.459495	-0.073757	-0.202092	0.224106	-0.632568	-0.208740	-0.296631	-0.187559	-0.302461	-0.012531	-0.934442
61988		6.170040	1.186229	7.676716	-0.123010	-0.301439	0.345773	-0.636963	-0.197266	-0.300049	-0.183998	-0.305731	-0.009039	-0.934126
61989		5.349809	0.120975	8.927394	-0.041263	-0.425886	0.173454	-0.645020	-0.189209	-0.286865	-0.182105	-0.310557	-0.006856	-0.932923
61990		3.794075	1.432721	11.483406	0.291108	-1.543055	0.253149	-0.659424	-0.195801	-0.266846	-0.177916	-0.329157	-0.005724	-0.927345
61991		2.862911	1.550685	13.107791	0.277463	-3.861635	0.485310	-0.686279	-0.192139	-0.186035	-0.171116	-0.374115	0.001679	-0.911457
61992		7.260216	1.610731	10.150585	-0.418590	-5.482667	0.851010	-0.709473	-0.173828	-0.085449	-0.162685	-0.434782	0.022092	-0.885444
61993		9.595160	0.015889	9.559180	-0.422488	-5.548203	0.670886	-0.718506	-0.156738	0.009766	-0.155384	-0.494179	0.041533	-0.854353
61994		16.759121	-0.222275	8.597523	0.485727	-3.096037	-0.340247	-0.720215	-0.164062	0.079346	-0.153976	-0.528118	0.040119	-0.834130
61995		12.832569	-0.529609	0.449656	-0.138727	-0.168571	-0.402766	-0.711426	-0.178223	0.083740	-0.158545	-0.530082	0.039037	-0.832077
61996		14.487265	-0.911310	0.062205	0.662136	2.746421	1.062204	-0.726562	-0.151367	0.037354	-0.144048	-0.502206	0.033608	-0.852003
61997		1.349597	5.186716	-8.102280	0.211625	2.273499	0.826694	-0.731445	-0.145264	-0.015869	-0.134512	-0.477959	0.032396	-0.867417
61998		2.727929	4.122260	-5.660937	-0.456658	0.930181	-0.238017	-0.726562	-0.141846	-0.042725	-0.140138	-0.467165	0.034399	-0.872316
61999		0.405272	-0.762845	-4.633690	-0.748686	-0.004697	-0.627341	-0.728027	-0.156494	-0.032959	-0.151309	-0.466089	0.038960	-0.870832
62000		0.174815	-3.312221	-2.916806	-0.282580	-0.800419	-0.297804	-0.719727	-0.146729	-0.021973	-0.155749	-0.474392	0.041862	-0.865415
62001		-0.484085	-4.060612	-2.965927	0.360260	-1.518826	0.549189	-0.727539	-0.153320	0.007080	-0.146787	-0.491116	0.044233	-0.857498
62002		24.241197	9.774144	15.938777	-0.110817	-0.326530	0.796859	-0.723633	-0.128174	0.007812	-0.138778	-0.493930	0.051043	-0.856836
62003		18.458744	-11.447234	9.520567	0.119922	5.541338	-0.544627	-0.715820	-0.142090	-0.098877	-0.147039	-0.433955	0.036726	-0.888096
62004		0.540270	5.357973	10.485318	0.802951	5.851222	-1.461611	-0.691650	-0.165039	-0.196777	-0.161219	-0.369902	0.009188	-0.914930
62005		1.824740	6.784699	15.756997	0.084180	3.479546	-0.582125	-0.651855	-0.179443	-0.268555	-0.167696	-0.329943	-0.001396	-0.928985
62006		4.198500	1.031030	12.507434	-0.071749	0.643332	0.428146	-0.660645	-0.178223	-0.275879	-0.163011	-0.322168	-0.000101	-0.932542
62007		3.789071	-1.122451	13.113038	0.176994	-1.760899	0.297098	-0.680420	-0.169434	-0.237549	-0.158812	-0.342881	0.002667	-0.925853
62008		2.977613	3.576505	13.773967	-0.048057	-4.337749	0.651941	-0.698975	-0.154297	-0.159912	-0.151060	-0.392376	0.014671	-0.907197
62009		6.751447	3.397817	11.313106	-0.739148	-6.186402	1.468051	-0.725342	-0.129639	-0.044189	-0.136372	-0.459488	0.041886	-0.876652
62010		19.567796	-1.966873	11.850236	0.043776	-5.053811	0.855839	-0.733887	-0.119873	0.053467	-0.123776	-0.513517	0.054866	-0.847331
62011		17.198934	-2.320022	2.808418	1.503837	-1.915194	0.052344	-0.733643	-0.107422	0.094971	-0.112218	-0.535894	0.042284	-0.835725
62012		20.718824	0.307807	-0.812744	1.490890	1.918727	1.702888	-0.744873	-0.073486	0.058838	-0.085318	-0.516719	0.035471	-0.851155
62013		-0.376105	2.208035	-10.699186	0.884865	2.335655	1.053694	-0.752930	-0.055908	0.016602	-0.069328	-0.492062	0.030428	-0.867261
62014		0.080881	1.343764	-7.479849	0.769564	0.222590	-0.222906	-0.746826	-0.062256	0.012695	-0.067069	-0.490379	0.020597	-0.868681
62015		1.328107	-0.904343	-3.380549	0.043688	-0.728125	-1.009442	-0.751953	-0.079102	0.033447	-0.077570	-0.498517	0.014623	-0.863279
62016		2.012920	-4.659292	-1.560183	-1.074946	-1.153033	-0.280045	-0.738525	-0.083496	0.050293	-0.087058	-0.509876	0.025680	-0.855446
62017		1.705928	-6.580808	-0.689479	-1.058499	-1.328358	0.938554	-0.738037	-0.073242	0.070557	-0.083328	-0.522464	0.044525	-0.847411
62018		1.342560	-2.574347	-0.476456	-0.431224	-1.432429	1.248558	-0.750977	-0.043945	0.099609	-0.072158	-0.536315	0.058889	-0.838863
62019		0.124240	0.902513	-0.779490	-1.359347	-1.910431	1.339342	-0.743164	-0.019775	0.131104	-0.065810	-0.553803	0.083960	-0.825785
62020		32.751281	2.012870	20.376409	-1.986452	2.253440	0.096262	-0.746338	-0.018066	0.081299	-0.080906	-0.528394	0.103350	-0.838792
62021		11.675564	-7.838049	4.066484	0.894990	5.104449	-1.585518	-0.750977	-0.039307	-0.018311	-0.097993	-0.476617	0.078190	-0.870126
62022		5.464617	2.926005	10.869006	2.577754	5.601293	-2.604181	-0.732666	-0.095459	-0.122803	-0.116050	-0.419746	0.027672	-0.899766
62023		4.512136	8.574281	14.462067	0.960411	3.914782	-1.356359	-0.715332	-0.123291	-0.193848	-0.127444	-0.376940	0.004148	-0.917419
62024		4.032697	4.364471	13.915795	0.081271	1.209008	0.125253	-0.707031	-0.122559	-0.214600	-0.125625	-0.363084	0.001933	-0.923247
62025		3.635397	0.460314	13.784479	-0.225535	-1.700840	0.657977	-0.719482	-0.107666	-0.176270	-0.118931	-0.382183	0.010223	-0.916345
62026		4.529193	0.633088	12.211401	-0.542700	-4.039937	0.843855	-0.729492	-0.088379	-0.097900	-0.111136	-0.426964	0.026495	-0.897022
62027		8.327410	1.194655	11.533578	-0.866598	-5.702726	1.159942	-0.746826	-0.071045	0.002197	-0.100528	-0.488077	0.050272	-0.865533
62028		18.019600	-2.405559	12.084540	0.800041	-5.115069	0.222508	-0.747070	-0.063721	0.110596	-0.089795	-0.543179	0.049328	-0.833343
62029		19.103523	-0.531780	7.596829	2.174057	-2.839684	-0.445490	-0.723633	-0.073730	0.176270	-0.077808	-0.574909	0.026863	-0.814067
62030		18.953776	0.681372	-0.034513	1.328265	0.653570	1.176402	-0.735107	-0.049072	0.164795	-0.056540	-0.569009	0.021270	-0.820109
62031		1.095953	5.037984	-4.265861	-0.326811	2.749048	0.746028	-0.743896	-0.042969	0.113281	-0.051935	-0.540015	0.028054	-0.839583
62032		-5.539408	3.151625	-4.627502	-0.328555	1.102616	-1.227107	-0.752197	-0.063965	0.091553	-0.067405	-0.528507	0.022546	-0.845948
62033		-2.273508	0.807982	1.068808	-0.428463	0.115122	-2.613981	-0.737061	-0.111816	0.085693	-0.097825	-0.527333	0.009710	-0.843953
62034		1.765730	-4.261112	0.392474	-1.082610	0.321673	-1.925658	-0.728027	-0.147705	0.077637	-0.125220	-0.522596	0.008037	-0.843296
62035		1.813172	-5.270485	-3.792315	-0.660709	0.255643	-0.270868	-0.735352	-0.163330	0.063477	-0.132374	-0.518825	0.012855	-0.844472
62036		0.291647	-1.114568	-6.140102	0.267198	-0.318784	0.461119	-0.736084	-0.154297	0.079346	-0.125720	-0.522497	0.013625	-0.843211
62037		-3.021574	-2.395641	-8.679778	0.680340	-2.074202	1.045066	-0.732910	-0.128418	0.112305	-0.109860	-0.544975	0.016621	-0.831058
62038		31.248750	15.827474	-1.294516	-0.633869	-2.841147	1.487746	-0.720947	-0.094482	0.152832	-0.098044	-0.572813	0.037309	-0.812945
62039		23.054764	-15.252468	7.610040	-0.509804	5.811159	-0.074773	-0.739990	-0.103516	0.033447	-0.104826	-0.511668	0.034723	-0.852057
62040		11.572885	-1.519067	15.354371	1.632498	6.725630	-2.323230	-0.717041	-0.135254	-0.081543	-0.121610	-0.441086	-0.006322	-0.889165
62041		3.373686	6.965567	11.024427	0.146867	5.357676	-1.661395	-0.688232	-0.169922	-0.187988	-0.138485	-0.380514	-0.025126	-0.914002
62042		6.005000	7.832140	10.155107	-0.533980	4.154513	-0.231736	-0.668945	-0.177246	-0.263672	-0.142150	-0.331398	-0.027216	-0.932324
62043		2.314652	-2.371538	13.709486	-0.567224	1.830770	0.102601	-0.661377	-0.170166	-0.294189	-0.142628	-0.308850	-0.023390	-0.940065
62044		4.970545	1.234207	8.774789	0.199440	-0.024531	-0.064622	-0.656494	-0.166260	-0.296631	-0.142599	-0.309365	-0.025887	-0.939834
62045		6.050226	0.753123	7.639338	0.405160	0.155478	-0.142553	-0.657959	-0.178955	-0.293213	-0.142584	-0.308089	-0.031428	-0.940087
62046		5.569338	0.464268	8.161221	0.475595	0.110646	-0.318107	-0.655518	-0.181885	-0.300537	-0.144440	-0.307425	-0.038379	-0.939763
62047		4.398622	3.589710	6.263710	0.104030	-0.114823	-0.213294	-0.652588	-0.192139	-0.286865	-0.146551	-0.308758	-0.040156	-0.938924
62048		5.250695	2.080980	8.521088	-0.377899	-0.227436	0.215215	-0.650635	-0.177979	-0.294678	-0.145596	-0.310784	-0.034416	-0.938632
62049		6.460076	0.172552	7.972492	0.122575	-0.095905	-0.051026	-0.655029	-0.187012	-0.292480	-0.145701	-0.312019	-0.035835	-0.938153
62050		5.274798	1.117830	7.797299	0.129244	0.039566	-0.145766	-0.649658	-0.181152	-0.291260	-0.146881	-0.311652	-0.037934	-0.938008
62051		4.980353	2.813445	6.853716	-0.058707	0.173563	-0.055445	-0.655029	-0.182861	-0.297607	-0.147625	-0.309411	-0.037726	-0.938642
62052		5.465533	1.536800	7.915647	-0.390835	0.283525	0.150350	-0.644531	-0.180664	-0.299316	-0.147180	-0.305361	-0.033034	-0.940214
62053		5.964339	1.083533	8.468099	-0.146248	0.235791	0.008176	-0.651611	-0.177246	-0.310791	-0.147523	-0.302265	-0.031664	-0.941207
62054		5.106301	1.185634	8.298329	0.011307	0.143994	-0.046812	-0.645020	-0.178467	-0.305664	-0.147931	-0.300511	-0.032187	-0.941687
62055		5.240893	1.464356	8.160342	0.017529	0.036103	-0.027166	-0.649414	-0.177246	-0.310059	-0.148143	-0.300060	-0.032504	-0.941786
62056		5.261731	1.881418	7.907760	-0.044463	-0.033896	0.021858	-0.648926	-0.177490	-0.310547	-0.148026	-0.300335	-0.031781	-0.941742
62057		5.289294	1.616586	8.013644	-0.093806	-0.070859	0.059103	-0.648682	-0.173096	-0.307861	-0.147675	-0.300968	-0.030270	-0.941644
62058		5.630102	1.220597	8.068256	-0.030843	-0.074695	0.038923	-0.653809	-0.175049	-0.309814	-0.147320	-0.301758	-0.029569	-0.941470
62059		5.420385	1.427285	8.016643	0.037195	-0.065549	-0.001358	-0.649414	-0.177734	-0.306885	-0.147186	-0.302549	-0.029836	-0.941228
62060		5.419967	1.466138	7.967195	0.026349	-0.050492	0.006544	-0.651367	-0.175781	-0.302002	-0.147006	-0.303148	-0.029973	-0.941059
62061		5.462410	1.658216	7.905346	-0.031296	-0.019771	0.030452	-0.652588	-0.177002	-0.306396	-0.146748	-0.303295	-0.029396	-0.941070
62062		5.496753	1.491186	7.944767	-0.055907	0.003347	0.054519	-0.644775	-0.174316	-0.308105	-0.146291	-0.303128	-0.028484	-0.941223
62063		5.438250	1.280022	7.977565	-0.055158	-0.010798	0.057354	-0.648682	-0.172363	-0.309570	-0.145801	-0.303123	-0.027548	-0.941329
62064		5.198802	1.281858	8.062713	-0.041509	-0.059105	0.066927	-0.648926	-0.169678	-0.304199	-0.145160	-0.303715	-0.026648	-0.941263
62065		5.596533	1.116735	7.881503	-0.016586	-0.069430	0.080964	-0.651123	-0.166748	-0.303467	-0.144262	-0.304485	-0.025965	-0.941171
62066		5.606762	0.985630	7.889124	0.020226	-0.072834	0.018857	-0.655518	-0.161377	-0.301270	-0.143954	-0.305340	-0.025945	-0.940942
62067		5.474892	1.549630	7.863490	0.023423	-0.065565	0.009776	-0.654297	-0.174805	-0.312500	-0.143728	-0.306116	-0.026006	-0.940723
62068		5.627449	1.421137	7.898126	0.011435	-0.048154	0.029273	-0.657959	-0.167236	-0.302490	-0.143333	-0.306656	-0.025895	-0.940610
62069		5.492753	1.366346	7.865369	0.015995	-0.032882	0.025340	-0.658447	-0.172607	-0.302002	-0.142953	-0.307038	-0.025870	-0.940544
62070		5.588759	1.233517	7.899821	0.005833	-0.007916	0.030888	-0.656738	-0.163330	-0.310791	-0.142552	-0.307111	-0.025749	-0.940584
62071		5.558869	1.199586	7.969780	0.004940	-0.003092	0.010190	-0.654053	-0.167236	-0.292969	-0.142366	-0.307104	-0.025717	-0.940616
62072		5.496974	1.335754	7.963151	0.016919	-0.014085	-0.000694	-0.660400	-0.176025	-0.306152	-0.142298	-0.307268	-0.025827	-0.940569
62073		5.546183	1.299744	7.873272	0.037449	-0.026245	-0.008309	-0.651855	-0.173340	-0.299072	-0.142247	-0.307597	-0.026198	-0.940459
62074		5.594592	1.389792	7.869815	0.024392	-0.006853	-0.003957	-0.657227	-0.165527	-0.304932	-0.142190	-0.307679	-0.026429	-0.940435
62075		5.590804	1.384260	7.902739	-0.002318	0.013200	0.009217	-0.656738	-0.168945	-0.294678	-0.142047	-0.307475	-0.026339	-0.940526
62076		5.569358	1.293259	7.906917	-0.009675	0.020922	0.007216	-0.655029	-0.172119	-0.297363	-0.141977	-0.307182	-0.026168	-0.940637
62077		5.517851	1.302212	7.919321	-0.006474	0.019550	0.000809	-0.648682	-0.163330	-0.304688	-0.141975	-0.306905	-0.026061	-0.940730
62078		5.539582	1.256720	7.931979	-0.002073	0.017931	-0.004571	-0.647461	-0.166260	-0.299805	-0.141986	-0.306637	-0.026039	-0.940816
62079		5.542496	1.319694	7.931036	0.000969	0.010218	-0.008445	-0.647949	-0.167480	-0.295898	-0.142051	-0.306473	-0.026046	-0.940860
62080		5.586270	1.330119	7.892936	-0.000744	0.013246	-0.010672	-0.657227	-0.167725	-0.299561	-0.142158	-0.306276	-0.026039	-0.940908
62081		5.526333	1.371789	7.893761	-0.000827	0.032151	-0.010106	-0.655029	-0.164307	-0.305420	-0.142247	-0.305857	-0.026062	-0.941030
62082		5.498364	1.321945	7.971282	0.003215	0.028145	-0.007119	-0.655518	-0.163086	-0.304443	-0.142269	-0.305483	-0.026126	-0.941147
62083		5.531667	1.228933	7.961796	0.014267	0.010247	-0.012362	-0.651367	-0.164551	-0.301270	-0.142316	-0.305340	-0.026304	-0.941181
62084		5.503173	1.340625	7.937549	0.012356	0.009762	-0.016184	-0.656982	-0.158936	-0.300781	-0.142425	-0.305201	-0.026471	-0.941205
62085		5.471869	1.372681	7.930243	0.006414	0.008821	-0.010014	-0.653076	-0.168213	-0.299316	-0.142471	-0.305067	-0.026538	-0.941239
62086		5.515716	1.359539	7.938739	0.000329	0.010635	-0.002744	-0.644043	-0.170654	-0.300049	-0.142481	-0.304907	-0.026507	-0.941291
62087		5.515755	1.333975	7.923634	-0.003196	0.016617	-0.001972	-0.649170	-0.165039	-0.305908	-0.142498	-0.304664	-0.026450	-0.941369
62088		5.491929	1.312667	7.959901	-0.001352	0.017640	-0.000606	-0.649658	-0.167969	-0.309326	-0.142465	-0.304405	-0.026419	-0.941458
62089		5.489959	1.283933	7.961340	0.000473	0.011977	-0.008473	-0.651611	-0.168701	-0.301758	-0.142522	-0.304210	-0.026433	-0.941512
62090		5.473493	1.350380	7.946752	0.004880	0.009997	-0.005500	-0.647949	-0.175293	-0.306396	-0.142547	-0.304062	-0.026468	-0.941555
62091		5.477132	1.319464	7.975954	0.006832	0.009044	-0.007047	-0.655029	-0.180908	-0.308594	-0.142591	-0.303921	-0.026539	-0.941592
62092		5.490785	1.313874	7.929908	0.009538	0.004309	-0.007698	-0.648926	-0.163574	-0.307861	-0.142647	-0.303843	-0.026633	-0.941606
62093		5.480427	1.342474	7.934951	0.009846	0.004821	-0.007855	-0.644287	-0.167969	-0.303467	-0.142651	-0.303751	-0.026740	-0.941632
62094		5.470748	1.309100	7.955131	0.011217	0.003088	-0.008432	-0.651123	-0.171143	-0.303467	-0.142680	-0.303688	-0.026857	-0.941645
62095		5.464245	1.322008	7.973419	0.014715	-0.004160	-0.008690	-0.652344	-0.172119	-0.304443	-0.142713	-0.303722	-0.026994	-0.941625
62096		5.476843	1.346443	7.965994	0.017458	-0.009673	-0.007528	-0.648926	-0.160400	-0.312500	-0.142724	-0.303826	-0.027151	-0.941585
62097		5.491176	1.332312	7.926560	0.015782	-0.009475	-0.005631	-0.653320	-0.172607	-0.303711	-0.142659	-0.303903	-0.027307	-0.941566
62098		5.502184	1.352171	7.935597	0.010102	-0.005034	-0.006075	-0.647949	-0.169189	-0.304688	-0.142682	-0.303942	-0.027377	-0.941547
62099		5.467883	1.330239	7.960581	0.009070	-0.001521	-0.006163	-0.650391	-0.172363	-0.314453	-0.142693	-0.303930	-0.027451	-0.941548
62100		5.473174	1.352892	7.941796	0.009411	-0.001786	-0.004511	-0.646240	-0.158691	-0.302002	-0.142670	-0.303906	-0.027542	-0.941556
62101		5.481273	1.326329	7.952698	0.010379	-0.005789	-0.005723	-0.650391	-0.165283	-0.304443	-0.142642	-0.303947	-0.027621	-0.941545
62102		5.506195	1.340275	7.939158	0.011300	-0.004252	-0.006198	-0.650146	-0.162354	-0.305664	-0.142635	-0.303972	-0.027714	-0.941535
62103		5.491353	1.342167	7.954059	0.007570	-0.001791	-0.007032	-0.650146	-0.173096	-0.305420	-0.142636	-0.303957	-0.027776	-0.941538
62104		5.472179	1.353294	7.948066	0.003937	0.001406	-0.005912	-0.647217	-0.167725	-0.301025	-0.142676	-0.303904	-0.027791	-0.941549
62105		5.479713	1.358387	7.944004	0.005296	0.002391	-0.001626	-0.653076	-0.164551	-0.311035	-0.142652	-0.303847	-0.027802	-0.941570
62106		5.463760	1.326113	7.975491	0.005344	-0.001104	-0.004676	-0.658203	-0.166260	-0.307617	-0.142627	-0.303813	-0.027839	-0.941584
62107		5.484865	1.349227	7.940689	0.010353	-0.008077	-0.004050	-0.649658	-0.182861	-0.303711	-0.142596	-0.303883	-0.027906	-0.941564
62108		5.508364	1.358946	7.943469	0.007267	-0.004347	-0.004552	-0.646729	-0.169434	-0.302490	-0.142651	-0.303912	-0.027936	-0.941545
62109		5.478997	1.356217	7.950532	0.004794	0.000407	-0.005373	-0.653320	-0.171387	-0.307861	-0.142674	-0.303874	-0.027955	-0.941554
62110		5.483226	1.344971	7.948219	0.004002	0.001896	-0.004610	-0.656006	-0.162354	-0.304199	-0.142685	-0.303812	-0.027971	-0.941572
62111		5.463772	1.355514	7.942503	0.003631	0.000893	-0.005752	-0.643066	-0.167236	-0.305176	-0.142688	-0.303767	-0.027976	-0.941585
62112		5.478452	1.367065	7.958037	0.004407	0.003145	-0.002815	-0.649414	-0.166260	-0.303955	-0.142666	-0.303687	-0.027998	-0.941614
62113		5.482590	1.355607	7.955829	0.003325	0.000380	-0.005592	-0.653809	-0.168457	-0.298828	-0.142683	-0.303645	-0.028002	-0.941625
62114		5.487337	1.344467	7.953151	0.007060	-0.003099	-0.003595	-0.649902	-0.171387	-0.306641	-0.142688	-0.303668	-0.028016	-0.941616
62115		5.466290	1.345012	7.955915	0.003264	-0.003176	-0.003416	-0.648193	-0.170898	-0.304443	-0.142693	-0.303665	-0.028010	-0.941616
62116		5.478514	1.340186	7.972643	0.006203	-0.002101	-0.004134	-0.654785	-0.165527	-0.306885	-0.142700	-0.303657	-0.028039	-0.941617
62117		5.490049	1.352678	7.935220	0.004182	-0.000618	-0.005052	-0.652588	-0.167969	-0.300293	-0.142695	-0.303626	-0.028053	-0.941627
62118		5.490662	1.360385	7.942458	0.002873	0.001606	-0.003179	-0.649170	-0.166992	-0.308105	-0.142703	-0.303583	-0.028030	-0.941641
62119		5.489640	1.354870	7.935129	0.002197	-0.000932	-0.003002	-0.650635	-0.172607	-0.307373	-0.142684	-0.303544	-0.028021	-0.941657
62120		5.482745	1.358551	7.946241	0.003944	-0.002681	-0.001273	-0.653809	-0.176270	-0.308350	-0.142665	-0.303537	-0.028016	-0.941662
62121		5.449658	1.374233	7.963005	0.003020	-0.001154	-0.004272	-0.656982	-0.173828	-0.311035	-0.142698	-0.303512	-0.028011	-0.941665
62122		5.468658	1.366192	7.968625	0.001307	-0.000181	-0.004192	-0.650635	-0.171143	-0.303467	-0.142718	-0.303467	-0.027993	-0.941677
62123		5.465017	1.350613	7.970517	0.004134	0.001859	-0.000847	-0.649414	-0.171631	-0.306396	-0.142699	-0.303416	-0.027985	-0.941697
62124		5.478558	1.348865	7.971149	0.002716	-0.002688	-0.002953	-0.643311	-0.164551	-0.308838	-0.142703	-0.303407	-0.027970	-0.941699
62125		5.457184	1.348651	7.974271	0.000451	-0.000205	-0.003571	-0.657471	-0.170654	-0.305908	-0.142678	-0.303348	-0.027956	-0.941723
62126		5.485961	1.347609	7.959274	0.003394	-0.001171	-0.001971	-0.655762	-0.171143	-0.298584	-0.142669	-0.303332	-0.027937	-0.941730
62127		5.467770	1.364121	7.960615	0.003731	0.000609	-0.002639	-0.655518	-0.174561	-0.310547	-0.142692	-0.303315	-0.027906	-0.941733
62128		5.466753	1.358863	7.953243	0.004281	0.000120	-0.003099	-0.655029	-0.173096	-0.295898	-0.142694	-0.303272	-0.027919	-0.941746
62129		5.473214	1.350996	7.934174	0.004429	-0.002639	-0.004192	-0.648926	-0.175537	-0.310303	-0.142755	-0.303302	-0.027886	-0.941728
62130		5.473946	1.326023	7.957039	0.004800	-0.001635	-0.003050	-0.650879	-0.162842	-0.312256	-0.142756	-0.303275	-0.027910	-0.941736
62131		5.477332	1.343765	7.954938	0.003084	0.000359	-0.004129	-0.652100	-0.174316	-0.302490	-0.142705	-0.303210	-0.027934	-0.941764
62132		5.458275	1.353852	7.948995	0.002780	-0.001174	-0.002810	-0.656006	-0.165527	-0.300049	-0.142738	-0.303199	-0.027903	-0.941763
62133		5.476338	1.348296	7.978498	-0.000310	0.001529	-0.002160	-0.647949	-0.170166	-0.313232	-0.142741	-0.303158	-0.027831	-0.941778
62134		5.459375	1.335222	7.979502	0.003298	-0.001909	-0.003920	-0.652588	-0.169189	-0.304932	-0.142720	-0.303118	-0.027855	-0.941793
62135		5.469686	1.343874	7.958220	0.005809	-0.005391	-0.003601	-0.645996	-0.168945	-0.312500	-0.142718	-0.303154	-0.027866	-0.941782
62136		5.478745	1.349494	7.952995	0.008380	-0.006339	-0.004300	-0.644043	-0.166260	-0.312500	-0.142680	-0.303174	-0.027944	-0.941779
62137		5.482098	1.361534	7.942906	0.005531	-0.003615	-0.005109	-0.645996	-0.173096	-0.304688	-0.142647	-0.303152	-0.028002	-0.941789
62138		5.478243	1.349673	7.968003	0.004429	-0.001618	-0.005349	-0.652344	-0.172119	-0.303711	-0.142690	-0.303135	-0.028015	-0.941788
62139		5.475089	1.334783	7.969490	0.004737	-0.002126	-0.004348	-0.651367	-0.165527	-0.310059	-0.142720	-0.303136	-0.028015	-0.941783
62140		5.463459	1.342415	7.951848	0.004220	-0.001392	-0.003238	-0.649658	-0.165527	-0.313477	-0.142675	-0.303102	-0.028036	-0.941800
62141		5.463897	1.343920	7.951292	0.006456	-0.004118	-0.003267	-0.658203	-0.168701	-0.305664	-0.142610	-0.303091	-0.028093	-0.941811
62142		5.469294	1.332766	7.948223	0.005568	-0.004389	-0.003297	-0.650391	-0.163818	-0.304932	-0.142600	-0.303120	-0.028096	-0.941804
62143		5.476863	1.340896	7.967245	0.004800	-0.000613	-0.004207	-0.649414	-0.166260	-0.305908	-0.142574	-0.303091	-0.028114	-0.941816
62144		5.459298	1.354491	7.944961	0.000512	0.001306	-0.003430	-0.661133	-0.168701	-0.303711	-0.142565	-0.303030	-0.028084	-0.941838
62145		5.478749	1.352698	7.958190	0.002289	0.001848	-0.003369	-0.646240	-0.174561	-0.308594	-0.142571	-0.302989	-0.028050	-0.941852
62146		5.456961	1.352316	7.961642	0.000824	-0.000222	-0.001269	-0.646240	-0.175049	-0.301758	-0.142578	-0.302941	-0.028017	-0.941867
62147		5.460695	1.342860	7.983089	0.001436	0.000803	-0.001589	-0.650635	-0.168213	-0.305420	-0.142616	-0.302904	-0.027970	-0.941875
62148		5.469422	1.344159	7.955159	0.001681	-0.000198	-0.001889	-0.655518	-0.164307	-0.301270	-0.142600	-0.302868	-0.027939	-0.941889
62149		5.468395	1.338243	7.947922	0.001774	0.001562	-0.001099	-0.662354	-0.166016	-0.305420	-0.142567	-0.302830	-0.027891	-0.941908
62150		5.452077	1.341085	7.987371	0.003117	0.000605	-0.003478	-0.654541	-0.167725	-0.302246	-0.142552	-0.302801	-0.027870	-0.941920
62151		5.472140	1.330498	7.969079	0.005908	-0.003629	-0.002804	-0.652100	-0.167236	-0.308594	-0.142543	-0.302829	-0.027869	-0.941913
62152		5.469711	1.348302	7.954259	0.004743	-0.003146	-0.003185	-0.652344	-0.168457	-0.304443	-0.142514	-0.302823	-0.027885	-0.941918
62153		5.470000	1.349711	7.953821	0.003880	-0.001130	-0.004886	-0.652344	-0.174316	-0.304932	-0.142532	-0.302807	-0.027883	-0.941921
62154		5.475234	1.344392	7.958835	0.001803	0.002829	-0.001610	-0.648682	-0.169678	-0.304443	-0.142553	-0.302745	-0.027848	-0.941939
62155		5.446651	1.343849	7.950333	0.001494	0.003336	-0.002610	-0.652344	-0.162598	-0.313477	-0.142560	-0.302669	-0.027821	-0.941963
62156		5.454075	1.357450	7.977458	-0.000038	0.001793	-0.002970	-0.648682	-0.166504	-0.304199	-0.142495	-0.302577	-0.027811	-0.942003
62157		5.444005	1.341241	7.967304	0.000239	0.001039	-0.002620	-0.650146	-0.160645	-0.302979	-0.142489	-0.302526	-0.027767	-0.942021
62158		5.470826	1.336732	7.968937	0.003700	0.000364	-0.003286	-0.646240	-0.177979	-0.315430	-0.142445	-0.302490	-0.027765	-0.942039
62159		5.462599	1.334030	7.973112	0.002293	0.000828	-0.002208	-0.650391	-0.166016	-0.309814	-0.142462	-0.302412	-0.027774	-0.942062
62160		5.458275	1.354041	7.982856	0.001462	0.003090	-0.003259	-0.651611	-0.163818	-0.309326	-0.142434	-0.302321	-0.027769	-0.942095
62161		5.469706	1.339159	7.969299	0.001987	0.000315	-0.002048	-0.649170	-0.165039	-0.306885	-0.142378	-0.302267	-0.027759	-0.942121
62162		5.452557	1.325746	7.970542	-0.000895	0.001768	-0.002351	-0.646729	-0.171631	-0.297119	-0.142355	-0.302197	-0.027711	-0.942149
62163		5.457548	1.352300	7.959997	-0.002248	0.005784	-0.003454	-0.647705	-0.158936	-0.306152	-0.142435	-0.302115	-0.027616	-0.942166
62164		5.432896	1.347547	7.980850	-0.002980	0.007767	-0.001396	-0.645264	-0.174072	-0.306885	-0.142368	-0.301967	-0.027556	-0.942225
62165		5.414118	1.327084	7.975457	0.000089	0.002780	-0.000371	-0.652344	-0.169434	-0.308838	-0.142388	-0.301891	-0.027506	-0.942248
62166		5.449718	1.299749	7.996150	0.005118	-0.003158	-0.000883	-0.650635	-0.171875	-0.308838	-0.142353	-0.301894	-0.027509	-0.942252
62167		5.470601	1.321946	7.961449	0.005606	-0.004139	-0.002641	-0.647949	-0.160889	-0.307129	-0.142356	-0.301908	-0.027523	-0.942247
62168		5.464561	1.323210	7.948738	0.003638	-0.000128	-0.004584	-0.654541	-0.171875	-0.306885	-0.142314	-0.301863	-0.027539	-0.942267
62169		5.442767	1.333023	7.983033	0.004250	0.000897	-0.004903	-0.649902	-0.168457	-0.309326	-0.142353	-0.301828	-0.027541	-0.942272
62170		5.441840	1.328114	7.975575	0.004435	-0.001617	-0.005341	-0.652832	-0.164307	-0.306152	-0.142365	-0.301804	-0.027562	-0.942278
62171		5.458001	1.337137	7.966821	0.006585	-0.001086	-0.002980	-0.645264	-0.163574	-0.303223	-0.142319	-0.301791	-0.027591	-0.942288
62172		5.450890	1.341433	7.977975	0.004562	-0.000629	-0.002742	-0.657227	-0.170654	-0.307373	-0.142290	-0.301768	-0.027594	-0.942300
62173		5.443912	1.336125	7.958090	0.004471	-0.002390	-0.003530	-0.650635	-0.166748	-0.310059	-0.142300	-0.301774	-0.027588	-0.942296
62174		5.457910	1.334908	7.958341	0.005331	-0.003384	-0.002988	-0.647461	-0.163330	-0.311523	-0.142264	-0.301769	-0.027612	-0.942302
62175		5.444749	1.339085	7.957020	0.005051	-0.001611	-0.004499	-0.652832	-0.176025	-0.310303	-0.142217	-0.301729	-0.027657	-0.942321
62176		5.436973	1.336985	7.960789	0.005360	-0.002117	-0.003499	-0.647705	-0.162598	-0.304443	-0.142259	-0.301721	-0.027670	-0.942317
62177		5.438253	1.345143	7.967456	0.006772	-0.003599	-0.003415	-0.652832	-0.173340	-0.310059	-0.142214	-0.301735	-0.027700	-0.942318
62178		5.448883	1.327634	7.969660	0.004809	-0.001629	-0.003040	-0.655518	-0.169922	-0.308594	-0.142231	-0.301718	-0.027709	-0.942321
62179		5.443292	1.338477	7.987592	0.006348	-0.007139	-0.003529	-0.650879	-0.172363	-0.309082	-0.142227	-0.301776	-0.027723	-0.942303
62180		5.438791	1.346699	7.981567	0.007908	-0.004327	-0.003681	-0.649658	-0.168945	-0.306396	-0.142239	-0.301796	-0.027767	-0.942293
62181		5.451475	1.333012	7.966989	0.006746	-0.004865	-0.002901	-0.643555	-0.162598	-0.310791	-0.142229	-0.301826	-0.027789	-0.942284
62182		5.454653	1.344555	7.957038	0.004750	-0.003143	-0.003176	-0.651855	-0.169678	-0.306641	-0.142162	-0.301798	-0.027828	-0.942302
62183		5.446105	1.335590	7.953592	0.003706	-0.000653	-0.002123	-0.653076	-0.169434	-0.309570	-0.142157	-0.301776	-0.027815	-0.942310
62184		5.447818	1.317019	7.983863	0.005980	-0.003128	-0.001496	-0.648193	-0.159912	-0.311279	-0.142122	-0.301778	-0.027834	-0.942315
62185		5.452733	1.341412	7.988379	0.004323	-0.005664	-0.004450	-0.650146	-0.167969	-0.311523	-0.142043	-0.301781	-0.027868	-0.942324
62186		5.449534	1.352799	7.966167	0.005913	-0.002604	-0.003954	-0.646729	-0.164062	-0.307373	-0.142021	-0.301761	-0.027909	-0.942333
62187		5.447565	1.344325	7.974785	0.004446	-0.003655	-0.003014	-0.651611	-0.162354	-0.304199	-0.141978	-0.301759	-0.027922	-0.942340
62188		5.428895	1.321793	7.984527	0.005061	-0.003648	-0.002174	-0.642578	-0.170166	-0.315674	-0.141914	-0.301778	-0.027925	-0.942343
62189		5.445898	1.330553	7.975190	0.005496	-0.007162	-0.002904	-0.655029	-0.167725	-0.305908	-0.141900	-0.301784	-0.027969	-0.942342
62190		5.464874	1.343188	7.949078	0.007794	-0.007352	-0.003949	-0.647949	-0.165527	-0.313477	-0.141884	-0.301854	-0.027997	-0.942321
62191		5.449779	1.337387	7.956624	0.003311	-0.002927	-0.002746	-0.655762	-0.166748	-0.317383	-0.141831	-0.301819	-0.028017	-0.942340
62192		5.449945	1.338368	7.956345	0.002845	0.000340	-0.002665	-0.646240	-0.170410	-0.306396	-0.141764	-0.301741	-0.028041	-0.942374
62193		5.434588	1.338350	7.972009	0.002908	0.000836	-0.001368	-0.648926	-0.167725	-0.317871	-0.141773	-0.301695	-0.028021	-0.942388
62194		5.456213	1.340322	7.968372	0.004264	-0.002158	-0.001418	-0.649902	-0.164307	-0.310303	-0.141707	-0.301638	-0.028059	-0.942415
62195		5.454404	1.331654	7.976936	0.005862	-0.005135	-0.002926	-0.648193	-0.165771	-0.298096	-0.141646	-0.301649	-0.028092	-0.942420
62196		5.448866	1.332969	7.963861	0.005615	-0.004134	-0.002629	-0.641113	-0.169189	-0.309814	-0.141641	-0.301701	-0.028076	-0.942405
62197		5.434940	1.340032	7.986266	0.005148	-0.000868	-0.002549	-0.649902	-0.164551	-0.315186	-0.141645	-0.301653	-0.028103	-0.942418
62198		5.440798	1.335257	7.990808	0.006841	-0.003101	-0.002111	-0.645996	-0.163574	-0.312256	-0.141554	-0.301621	-0.028168	-0.942440
62199		5.447820	1.327753	7.971335	0.006994	-0.004845	-0.004352	-0.654785	-0.167236	-0.303955	-0.141499	-0.301614	-0.028233	-0.942449
62200		5.451270	1.349214	7.992068	0.006968	-0.006110	-0.003838	-0.650146	-0.168213	-0.315918	-0.141485	-0.301678	-0.028247	-0.942430
62201		5.458666	1.341848	7.972311	0.008504	-0.005580	-0.002319	-0.651611	-0.170898	-0.310303	-0.141428	-0.301679	-0.028321	-0.942436
62202		5.450657	1.333443	7.968446	0.005306	-0.003629	-0.003627	-0.649170	-0.160645	-0.308350	-0.141442	-0.301681	-0.028337	-0.942433
62203		5.446315	1.347741	7.970158	0.005733	-0.001107	-0.002357	-0.652832	-0.176758	-0.305664	-0.141339	-0.301647	-0.028377	-0.942458
62204		5.444412	1.339167	7.978798	0.005008	-0.005159	-0.002303	-0.653320	-0.166748	-0.305420	-0.141414	-0.301697	-0.028349	-0.942432
62205		5.457322	1.325162	7.964139	0.007586	-0.006101	-0.002995	-0.647705	-0.162109	-0.308350	-0.141379	-0.301752	-0.028376	-0.942418
62206		5.462683	1.349894	7.968200	0.006088	-0.007400	-0.002701	-0.652100	-0.167480	-0.307617	-0.141300	-0.301791	-0.028409	-0.942417
62207		5.463003	1.345124	7.959885	0.006691	-0.005357	-0.004186	-0.652100	-0.171387	-0.309570	-0.141286	-0.301824	-0.028439	-0.942407
62208		5.441493	1.339430	7.955209	0.007029	-0.004596	-0.003699	-0.654297	-0.165771	-0.312744	-0.141300	-0.301844	-0.028470	-0.942398
62209		5.451121	1.351399	7.957347	0.006172	-0.004621	-0.003080	-0.651123	-0.169922	-0.318848	-0.141233	-0.301845	-0.028514	-0.942406
62210		5.467047	1.330673	7.988026	0.007163	-0.004618	0.000057	-0.649170	-0.165771	-0.309570	-0.141162	-0.301820	-0.028571	-0.942423
62211		5.459003	1.354661	7.968052	0.005982	-0.002107	-0.002651	-0.653809	-0.170410	-0.302246	-0.141112	-0.301797	-0.028607	-0.942437
62212		5.453144	1.323240	7.971407	0.005563	-0.005646	-0.002755	-0.648926	-0.170166	-0.317383	-0.141130	-0.301863	-0.028589	-0.942414
62213		5.457367	1.341490	7.968415	0.007583	-0.005083	-0.004153	-0.647705	-0.162598	-0.294678	-0.141121	-0.301846	-0.028662	-0.942419
62214		5.442375	1.336127	7.975904	0.006974	-0.006109	-0.003828	-0.654053	-0.169434	-0.303955	-0.141094	-0.301934	-0.028662	-0.942394
62215		5.445220	1.351052	7.989229	0.007903	-0.006602	-0.001987	-0.651367	-0.167969	-0.296875	-0.141077	-0.302005	-0.028677	-0.942373
62216		5.461047	1.347342	7.964905	0.008647	-0.009604	-0.002869	-0.650635	-0.168701	-0.309814	-0.141080	-0.302139	-0.028678	-0.942330
62217		5.470859	1.353006	7.959060	0.007791	-0.009628	-0.002249	-0.646973	-0.161621	-0.309570	-0.141048	-0.302210	-0.028716	-0.942311
62218		5.455248	1.341083	7.959206	0.007024	-0.003579	-0.004858	-0.651611	-0.166504	-0.311523	-0.140975	-0.302192	-0.028785	-0.942325
62219		5.456541	1.349290	7.965826	0.005126	-0.002130	-0.002031	-0.647705	-0.167725	-0.301514	-0.140915	-0.302160	-0.028815	-0.942344
62220		5.463714	1.347721	7.954115	0.004005	0.000876	-0.003447	-0.652588	-0.165771	-0.311768	-0.140931	-0.302133	-0.028804	-0.942351
62221		5.453107	1.335375	7.967583	0.004286	0.000125	-0.003093	-0.647705	-0.163818	-0.306885	-0.140873	-0.302073	-0.028834	-0.942378
62222		5.464573	1.366543	7.991852	0.004446	-0.002639	-0.004165	-0.646729	-0.164795	-0.303711	-0.140835	-0.302057	-0.028856	-0.942388
62223		5.464070	1.351899	7.953161	0.005616	-0.003116	-0.003781	-0.651855	-0.170654	-0.309082	-0.140811	-0.302064	-0.028874	-0.942388
62224		5.452534	1.359517	7.935328	0.006569	-0.002343	-0.002457	-0.653076	-0.168701	-0.295898	-0.140808	-0.302055	-0.028901	-0.942391
62225		5.443391	1.353727	7.955585	0.002732	-0.002688	-0.002927	-0.650635	-0.154785	-0.311768	-0.140834	-0.302107	-0.028841	-0.942372
62226		5.467537	1.333180	7.958793	0.004879	-0.001129	-0.001736	-0.650635	-0.167725	-0.302490	-0.140632	-0.302044	-0.028903	-0.942421
62227		5.457311	1.353462	7.955695	0.003333	-0.000648	-0.004416	-0.654297	-0.174072	-0.297607	-0.140650	-0.302035	-0.028888	-0.942421
62228		5.467578	1.335643	7.958352	0.003365	-0.000399	-0.003768	-0.650635	-0.172363	-0.314697	-0.140734	-0.302062	-0.028836	-0.942402
62229		5.446115	1.335769	7.961609	0.004231	-0.001388	-0.003222	-0.650146	-0.169189	-0.303955	-0.140758	-0.302010	-0.028855	-0.942414
62230		5.448012	1.350085	7.975660	0.003927	-0.001901	-0.003059	-0.648438	-0.169434	-0.313965	-0.140775	-0.302011	-0.028841	-0.942412
62231		5.449693	1.354668	7.958883	0.003365	-0.000399	-0.003768	-0.647949	-0.169434	-0.308838	-0.140781	-0.301941	-0.028861	-0.942433
62232		5.448863	1.349307	7.951474	0.002412	-0.001172	-0.005091	-0.653809	-0.169434	-0.303955	-0.140823	-0.301903	-0.028854	-0.942439
62233		5.459273	1.341229	7.985017	0.004872	-0.000113	-0.002900	-0.648682	-0.171875	-0.313721	-0.140826	-0.301893	-0.028850	-0.942442
62234		5.450618	1.332551	7.981716	0.005923	-0.002602	-0.003940	-0.651123	-0.168457	-0.312012	-0.140855	-0.301859	-0.028888	-0.942447
62235		5.466793	1.341625	7.972737	0.005361	-0.001099	-0.004649	-0.648682	-0.168701	-0.301270	-0.140848	-0.301815	-0.028928	-0.942461
62236		5.455744	1.355605	7.962360	0.003615	-0.001399	-0.004059	-0.653320	-0.175049	-0.306885	-0.140885	-0.301821	-0.028904	-0.942454
62237		5.443128	1.365897	7.968532	0.003062	-0.000911	-0.003604	-0.655273	-0.169678	-0.309082	-0.140969	-0.301810	-0.028872	-0.942446
62238		5.452674	1.341423	7.963960	0.003062	-0.000911	-0.003604	-0.650391	-0.169678	-0.309814	-0.140971	-0.301784	-0.028864	-0.942454
62239		5.462398	1.317129	7.959242	0.005067	-0.002626	-0.003321	-0.648438	-0.168701	-0.305908	-0.140974	-0.301770	-0.028881	-0.942458
62240		5.456453	1.360627	7.961017	0.004169	-0.001887	-0.004514	-0.648438	-0.171143	-0.311279	-0.141000	-0.301759	-0.028882	-0.942458
62241		5.444754	1.344921	7.990724	0.003344	-0.001662	-0.003249	-0.648926	-0.166992	-0.304932	-0.141026	-0.301721	-0.028882	-0.942466
62242		5.460221	1.346982	7.974525	0.004147	-0.003150	-0.003996	-0.651367	-0.166016	-0.303955	-0.141026	-0.301729	-0.028881	-0.942463
62243		5.447176	1.351044	7.973168	0.006239	-0.003101	-0.002936	-0.652100	-0.169678	-0.304443	-0.140989	-0.301749	-0.028897	-0.942462
62244		5.445976	1.339666	7.958167	0.005894	-0.002850	-0.004584	-0.642334	-0.166016	-0.314697	-0.141018	-0.301769	-0.028906	-0.942451
62245		5.440972	1.357221	7.983442	0.004765	-0.003138	-0.003156	-0.655762	-0.164062	-0.302002	-0.140972	-0.301713	-0.028955	-0.942474
62246		5.439302	1.339089	7.961037	0.006748	-0.006116	-0.002353	-0.650146	-0.165771	-0.310059	-0.140895	-0.301786	-0.028967	-0.942462
62247		5.447424	1.347436	7.979611	0.003844	-0.003663	-0.003831	-0.657227	-0.169922	-0.298584	-0.140855	-0.301774	-0.028983	-0.942472
62248		5.452537	1.336059	7.976968	0.004474	-0.001374	-0.004675	-0.652832	-0.164795	-0.306885	-0.140896	-0.301814	-0.028954	-0.942453
62249		5.434250	1.352839	7.978118	0.004873	-0.000111	-0.002898	-0.643066	-0.164795	-0.305664	-0.140830	-0.301782	-0.028976	-0.942473
62250		5.439174	1.341467	7.975607	0.005070	-0.002625	-0.003317	-0.643066	-0.172607	-0.311279	-0.140803	-0.301766	-0.028997	-0.942481
62251		5.453234	1.340430	7.975758	0.005320	-0.003625	-0.003608	-0.646484	-0.165283	-0.311523	-0.140869	-0.301745	-0.029015	-0.942478
62252		5.440241	1.344439	7.974378	0.004766	-0.003138	-0.003154	-0.646484	-0.168213	-0.299561	-0.140815	-0.301712	-0.029050	-0.942495
62253		5.454207	1.343360	7.974600	0.005374	-0.002112	-0.003480	-0.650879	-0.168457	-0.307861	-0.140846	-0.301735	-0.029040	-0.942484
62254		5.439935	1.340664	7.966363	0.003399	-0.000149	-0.003118	-0.639648	-0.166748	-0.303711	-0.140840	-0.301697	-0.029038	-0.942497
62255		5.451152	1.329534	7.976189	0.005092	-0.001361	-0.003835	-0.656250	-0.166748	-0.306152	-0.140861	-0.301673	-0.029051	-0.942501
62256		5.432448	1.349355	8.000852	0.003324	-0.002925	-0.002726	-0.647949	-0.168457	-0.309814	-0.140817	-0.301686	-0.029038	-0.942504
62257		5.454399	1.342027	7.965832	0.005939	-0.003612	-0.002768	-0.648193	-0.170410	-0.307617	-0.140802	-0.301677	-0.029065	-0.942508
62258		5.454554	1.346982	7.988646	0.006994	-0.006100	-0.003803	-0.656250	-0.171875	-0.311523	-0.140831	-0.301714	-0.029090	-0.942491
62259		5.450396	1.351533	7.959151	0.002979	-0.002676	-0.004374	-0.648193	-0.171387	-0.305420	-0.140864	-0.301702	-0.029081	-0.942490
62260		5.443422	1.355520	7.970331	0.004048	0.000115	-0.001633	-0.652588	-0.166016	-0.313477	-0.140898	-0.301674	-0.029061	-0.942495
62261		5.446674	1.340507	7.984498	0.003650	-0.001149	-0.003408	-0.642578	-0.167969	-0.305664	-0.140833	-0.301619	-0.029090	-0.942521
62262		5.454092	1.339000	7.972595	0.005658	-0.002861	-0.003122	-0.650146	-0.166504	-0.308105	-0.140846	-0.301611	-0.029106	-0.942521
62263		5.450555	1.350104	7.950419	0.005323	-0.003624	-0.003604	-0.644287	-0.169922	-0.306641	-0.140812	-0.301613	-0.029129	-0.942525
62264		5.457503	1.351967	7.962025	0.005690	-0.002610	-0.002475	-0.646729	-0.175049	-0.307129	-0.140838	-0.301604	-0.029139	-0.942524
62265		5.441917	1.345882	7.970174	0.003347	-0.001662	-0.003244	-0.647461	-0.167480	-0.305908	-0.140951	-0.301589	-0.029106	-0.942512
62266		5.458321	1.354422	7.961047	0.004780	-0.004149	-0.001983	-0.648193	-0.171631	-0.309814	-0.140929	-0.301604	-0.029106	-0.942511
62267		5.441960	1.341592	7.962015	0.002478	-0.000675	-0.003792	-0.645264	-0.171143	-0.306396	-0.140984	-0.301560	-0.029089	-0.942517
62268		5.457309	1.353311	7.976834	0.003315	-0.001913	-0.003889	-0.656006	-0.173584	-0.307129	-0.141051	-0.301543	-0.029071	-0.942513
62269		5.441777	1.337533	7.953973	0.005576	-0.004624	-0.003892	-0.654785	-0.170410	-0.304688	-0.141122	-0.301586	-0.029060	-0.942489
62270		5.448786	1.339533	7.965520	0.005963	-0.002347	-0.003284	-0.648438	-0.166016	-0.307861	-0.141147	-0.301607	-0.029058	-0.942479
62271		5.450630	1.354137	7.979497	0.003954	-0.000636	-0.003571	-0.647705	-0.165527	-0.314453	-0.141110	-0.301568	-0.029074	-0.942497
62272		5.450036	1.349144	7.971894	0.006487	-0.003084	-0.004383	-0.648926	-0.169189	-0.312256	-0.141037	-0.301523	-0.029147	-0.942519
62273		5.435057	1.343672	7.979548	0.006949	-0.007611	-0.003920	-0.653564	-0.171143	-0.302002	-0.141027	-0.301554	-0.029191	-0.942510
62274		5.458470	1.343287	7.951169	0.006207	-0.005621	-0.001885	-0.645020	-0.175781	-0.307617	-0.141060	-0.301628	-0.029169	-0.942482
62275		5.444844	1.350491	7.973461	0.003587	-0.001651	-0.004698	-0.644775	-0.166016	-0.307373	-0.141204	-0.301608	-0.029144	-0.942468
62276		5.449860	1.339159	7.970928	0.005378	-0.002109	-0.003475	-0.659424	-0.169678	-0.306396	-0.141165	-0.301582	-0.029176	-0.942480
62277		5.451949	1.353993	7.984689	0.005567	-0.003611	-0.005055	-0.647461	-0.170898	-0.307617	-0.141186	-0.301617	-0.029180	-0.942466
62278		5.437944	1.351676	7.976228	0.005650	-0.001847	-0.004284	-0.654297	-0.176758	-0.308838	-0.141230	-0.301601	-0.029196	-0.942464
62279		5.450967	1.344293	7.969307	0.005316	-0.002611	-0.004765	-0.652832	-0.172119	-0.311523	-0.141360	-0.301609	-0.029183	-0.942442
62280		5.456299	1.333274	7.966516	0.006469	-0.004346	-0.003859	-0.647705	-0.167480	-0.313232	-0.141388	-0.301616	-0.029209	-0.942435
62281		5.460716	1.357966	7.970918	0.005128	-0.001108	-0.003185	-0.652832	-0.170898	-0.306641	-0.141331	-0.301554	-0.029256	-0.942462
62282		5.440807	1.361529	7.957663	0.004510	-0.001123	-0.004022	-0.652100	-0.171143	-0.304688	-0.141372	-0.301544	-0.029249	-0.942459
62283		5.456461	1.341197	7.988854	0.006250	-0.003094	-0.002923	-0.649658	-0.174805	-0.310059	-0.141409	-0.301571	-0.029247	-0.942445
62284		5.458412	1.346043	7.971760	0.004459	-0.002636	-0.004146	-0.646240	-0.157959	-0.303955	-0.141504	-0.301559	-0.029239	-0.942435
62285		5.443630	1.336776	7.956172	0.004156	-0.003149	-0.003981	-0.659180	-0.167480	-0.310791	-0.141347	-0.301553	-0.029279	-0.942459
62286		5.445674	1.351408	7.969981	0.004762	-0.002123	-0.004310	-0.655518	-0.165771	-0.308350	-0.141302	-0.301541	-0.029301	-0.942469
62287		5.448462	1.330202	7.976774	0.004491	-0.002385	-0.003499	-0.648926	-0.170898	-0.296143	-0.141237	-0.301535	-0.029318	-0.942480
62288		5.459858	1.351647	7.969821	0.003318	-0.001913	-0.003884	-0.649658	-0.169434	-0.312012	-0.141337	-0.301582	-0.029257	-0.942452
62289		5.451216	1.342595	7.966688	0.003956	-0.000635	-0.003568	-0.653809	-0.169922	-0.309326	-0.141326	-0.301527	-0.029276	-0.942471
62290		5.437669	1.346030	7.965790	0.002921	-0.000169	-0.000205	-0.650879	-0.172119	-0.302002	-0.141295	-0.301490	-0.029253	-0.942488
62291		5.444165	1.347330	7.977813	0.002416	-0.001179	-0.005078	-0.658936	-0.171631	-0.311523	-0.141403	-0.301501	-0.029203	-0.942470
62292		5.437222	1.351418	7.988974	0.003937	-0.001897	-0.003046	-0.652344	-0.165527	-0.312256	-0.141414	-0.301488	-0.029196	-0.942473
62293		5.445425	1.356439	7.984247	0.004795	-0.001871	-0.003663	-0.654297	-0.170410	-0.302979	-0.141332	-0.301447	-0.029237	-0.942497
62294		5.455568	1.332309	7.979426	0.005345	-0.004631	-0.002425	-0.644531	-0.176514	-0.310547	-0.141360	-0.301505	-0.029215	-0.942475
62295		5.471138	1.367054	7.946261	0.004746	-0.003385	-0.003785	-0.649170	-0.170654	-0.305664	-0.141484	-0.301491	-0.029205	-0.942461
62296		5.429479	1.339948	7.976818	0.002145	-0.001442	-0.004268	-0.649414	-0.166504	-0.302490	-0.141543	-0.301479	-0.029172	-0.942457
62297		5.445537	1.348657	7.967818	0.006304	-0.001577	-0.002797	-0.650146	-0.161621	-0.307861	-0.141515	-0.301487	-0.029187	-0.942458
62298		5.452201	1.340663	7.948674	0.005396	-0.003117	-0.002301	-0.653809	-0.176025	-0.308594	-0.141372	-0.301477	-0.029230	-0.942481
62299		5.458358	1.345716	7.984093	0.004891	-0.001116	-0.001727	-0.650635	-0.162598	-0.301270	-0.141461	-0.301468	-0.029204	-0.942472
62300		5.461033	1.356928	7.974232	0.005365	-0.003368	-0.002946	-0.644043	-0.179932	-0.304932	-0.141377	-0.301500	-0.029217	-0.942474
62301		5.443429	1.341144	7.991635	0.005366	-0.003368	-0.002945	-0.647705	-0.170654	-0.311035	-0.141578	-0.301523	-0.029174	-0.942437
62302		5.453347	1.349610	7.970173	0.005050	-0.002871	-0.003948	-0.648438	-0.161865	-0.304688	-0.141593	-0.301499	-0.029195	-0.942442
62303		5.451539	1.341247	7.978967	0.004747	-0.003384	-0.003782	-0.651855	-0.167725	-0.304932	-0.141491	-0.301504	-0.029225	-0.942455
62304		5.453235	1.345917	7.962045	0.004259	-0.000122	-0.003731	-0.652832	-0.163330	-0.316406	-0.141485	-0.301485	-0.029224	-0.942462
62305		5.438065	1.346542	7.977708	0.005799	0.000425	-0.002221	-0.646973	-0.163574	-0.303711	-0.141318	-0.301394	-0.029303	-0.942514
62306		5.438988	1.354529	7.984552	0.005145	-0.002115	-0.002012	-0.650391	-0.165527	-0.311768	-0.141231	-0.301391	-0.029322	-0.942527
62307		5.452236	1.346955	7.977529	0.005273	-0.004123	-0.004877	-0.647461	-0.170654	-0.304932	-0.141169	-0.301377	-0.029368	-0.942540
62308		5.445507	1.341369	7.957560	0.004843	-0.002628	-0.001846	-0.646973	-0.173340	-0.310059	-0.141198	-0.301385	-0.029353	-0.942533
62309		5.453124	1.349544	7.976485	0.003384	-0.001409	-0.002590	-0.645508	-0.165283	-0.308105	-0.141265	-0.301350	-0.029333	-0.942535
62310		5.440507	1.359823	7.982616	0.004545	-0.000870	-0.003372	-0.643066	-0.167480	-0.311035	-0.141207	-0.301306	-0.029362	-0.942557
62311		5.448956	1.332397	7.994557	0.004781	-0.003132	-0.003135	-0.648682	-0.163330	-0.312744	-0.141177	-0.301271	-0.029391	-0.942572
62312		5.445087	1.343221	7.972519	0.004514	-0.001122	-0.004017	-0.653076	-0.178467	-0.304199	-0.141065	-0.301208	-0.029445	-0.942607
62313		5.451815	1.345132	7.984290	0.005703	-0.002601	-0.002462	-0.643799	-0.168701	-0.305420	-0.141231	-0.301247	-0.029397	-0.942571
62314		5.424303	1.344999	7.975149	0.005021	-0.003123	-0.004588	-0.649170	-0.166504	-0.313965	-0.141264	-0.301247	-0.029406	-0.942566
62315		5.433698	1.356815	7.977251	0.004733	-0.004645	-0.003254	-0.650391	-0.170410	-0.304443	-0.141191	-0.301226	-0.029444	-0.942582
62316		5.439723	1.342165	7.950856	0.005355	-0.002357	-0.004109	-0.659668	-0.160645	-0.313721	-0.141239	-0.301240	-0.029440	-0.942570
62317		5.440352	1.353671	7.981109	0.005402	-0.003114	-0.002296	-0.656738	-0.158691	-0.314209	-0.141027	-0.301218	-0.029504	-0.942607
62318		5.441086	1.355018	7.980380	0.004432	-0.005158	-0.003087	-0.641357	-0.164551	-0.306396	-0.140799	-0.301205	-0.029569	-0.942643
62319		5.441063	1.349745	7.972473	0.005068	-0.003879	-0.002774	-0.648193	-0.158447	-0.311768	-0.140748	-0.301198	-0.029592	-0.942653
62320		5.439409	1.341156	7.981242	0.004544	-0.003140	-0.001678	-0.650391	-0.176758	-0.309082	-0.140535	-0.301157	-0.029652	-0.942696
62321		5.455762	1.349585	7.972024	0.002749	-0.002688	-0.002901	-0.640869	-0.171875	-0.307617	-0.140678	-0.301156	-0.029596	-0.942676
62322		5.440216	1.343271	7.980337	0.004894	-0.001112	-0.001724	-0.650146	-0.166016	-0.305664	-0.140748	-0.301120	-0.029584	-0.942678
62323		5.438295	1.334725	7.989289	0.005403	-0.003113	-0.002294	-0.646484	-0.174561	-0.312500	-0.140691	-0.301131	-0.029599	-0.942682
62324		5.443698	1.355855	7.969636	0.005276	-0.006393	-0.003177	-0.644775	-0.168457	-0.304199	-0.140793	-0.301148	-0.029589	-0.942662
62325		5.443151	1.354193	7.985301	0.005309	-0.003871	-0.004226	-0.650146	-0.159668	-0.312500	-0.140826	-0.301166	-0.029592	-0.942651
62326		5.440521	1.339013	7.987055	0.003084	-0.001922	-0.002421	-0.646729	-0.171387	-0.314941	-0.140633	-0.301110	-0.029638	-0.942697
62327		5.429777	1.352342	7.976376	0.003259	-0.004689	-0.003469	-0.651123	-0.162842	-0.312988	-0.140680	-0.301084	-0.029631	-0.942698
62328		5.436435	1.347635	7.980510	0.007375	-0.006329	-0.002118	-0.651367	-0.169434	-0.308838	-0.140526	-0.301093	-0.029702	-0.942716
62329		5.460355	1.353662	7.959368	0.004118	-0.004663	-0.004085	-0.649658	-0.151611	-0.311035	-0.140545	-0.301109	-0.029697	-0.942708
62330		5.440316	1.360208	7.969523	0.003370	-0.002670	-0.002062	-0.652100	-0.166504	-0.308105	-0.140203	-0.301057	-0.029780	-0.942773
62331		5.453860	1.319710	7.979376	0.003307	-0.003175	-0.003349	-0.665039	-0.172607	-0.313721	-0.140161	-0.301056	-0.029779	-0.942780
62332		5.435055	1.329503	7.973123	0.004531	-0.002130	-0.002845	-0.645996	-0.166504	-0.316406	-0.140149	-0.301051	-0.029781	-0.942783
62333		5.445120	1.347929	7.982420	0.005930	-0.003851	-0.003387	-0.651611	-0.167725	-0.305176	-0.140112	-0.301003	-0.029828	-0.942802
62334		5.454477	1.359817	7.984493	0.005374	-0.003364	-0.002936	-0.647949	-0.172363	-0.312744	-0.140089	-0.301026	-0.029835	-0.942798
62335		5.445371	1.344144	7.974084	0.003022	-0.002428	-0.003708	-0.656250	-0.164795	-0.300537	-0.140175	-0.300990	-0.029812	-0.942797
62336		5.443475	1.335812	7.983017	0.007456	-0.002292	-0.003048	-0.650635	-0.173340	-0.305908	-0.140078	-0.301035	-0.029850	-0.942797
62337		5.440626	1.353552	7.967842	0.004978	-0.004636	-0.004699	-0.647461	-0.166504	-0.311279	-0.140187	-0.301073	-0.029829	-0.942769
62338		5.450048	1.365477	7.969852	0.005343	-0.003617	-0.003578	-0.647949	-0.165039	-0.311523	-0.140155	-0.301053	-0.029858	-0.942779
62339		5.453124	1.344170	7.976680	0.004293	-0.002136	-0.001389	-0.647217	-0.173828	-0.311523	-0.140070	-0.301012	-0.029878	-0.942804
62340		5.431189	1.337486	7.972778	0.005120	-0.002363	-0.002650	-0.646484	-0.166016	-0.310059	-0.140170	-0.300988	-0.029864	-0.942797
62341		5.446129	1.343277	7.979954	0.005249	-0.004376	-0.005508	-0.639893	-0.170898	-0.305176	-0.140158	-0.300980	-0.029897	-0.942800
62342		5.450699	1.368108	7.983991	0.005933	-0.003850	-0.003383	-0.647217	-0.174072	-0.304443	-0.140255	-0.300989	-0.029889	-0.942783
62343		5.448759	1.349610	7.962041	0.004231	-0.002642	-0.002676	-0.652344	-0.177002	-0.309326	-0.140379	-0.301006	-0.029845	-0.942761
62344		5.440727	1.340570	7.958603	0.005029	-0.005390	-0.002882	-0.648682	-0.164795	-0.309570	-0.140525	-0.301045	-0.029804	-0.942728
62345		5.444121	1.361894	7.979076	0.005362	-0.004623	-0.002405	-0.656250	-0.163818	-0.306885	-0.140437	-0.301047	-0.029835	-0.942740
62346		5.456979	1.347821	7.964625	0.005793	-0.006123	-0.005428	-0.655029	-0.168457	-0.312012	-0.140345	-0.301095	-0.029877	-0.942737
62347		5.441447	1.374223	7.955852	0.003118	-0.001668	-0.001774	-0.649658	-0.167480	-0.306152	-0.140298	-0.301063	-0.029872	-0.942754
62348		5.438082	1.352190	7.950539	0.004775	-0.004389	-0.002597	-0.652588	-0.163330	-0.308594	-0.140276	-0.301086	-0.029872	-0.942750
62349		5.449589	1.344925	7.983575	0.005903	-0.004103	-0.004025	-0.651855	-0.170166	-0.301270	-0.140166	-0.301093	-0.029922	-0.942763
62350		5.446570	1.362374	7.968513	0.004246	-0.001382	-0.003201	-0.650146	-0.168701	-0.302002	-0.140205	-0.301114	-0.029897	-0.942751
62351		5.442307	1.343929	7.987079	0.003356	-0.001661	-0.003227	-0.648926	-0.165527	-0.309570	-0.140225	-0.301127	-0.029871	-0.942744
62352		5.441689	1.338383	7.979645	0.002736	-0.001681	-0.004064	-0.650146	-0.169922	-0.306396	-0.140184	-0.301090	-0.029877	-0.942762
62353		5.446123	1.359418	7.960516	0.005420	0.000419	-0.004513	-0.648193	-0.166504	-0.309814	-0.140225	-0.301060	-0.029888	-0.942766
62354		5.443212	1.354701	7.993434	0.005438	-0.000588	-0.003342	-0.651367	-0.176270	-0.306885	-0.140185	-0.301014	-0.029920	-0.942785
62355		5.442605	1.349424	7.985949	0.004234	-0.002641	-0.002673	-0.653320	-0.164307	-0.300537	-0.140325	-0.301029	-0.029872	-0.942761
62356		5.443747	1.347141	7.961695	0.003568	-0.004175	-0.003624	-0.643311	-0.174316	-0.308838	-0.140258	-0.301080	-0.029866	-0.942755
62357		5.444361	1.348600	7.961028	0.005618	-0.003355	-0.004382	-0.652588	-0.164551	-0.306396	-0.140404	-0.301074	-0.029852	-0.942735
62358		5.459088	1.354461	7.968315	0.004486	-0.001375	-0.004653	-0.655029	-0.168457	-0.309570	-0.140336	-0.301060	-0.029880	-0.942749
62359		5.443626	1.358488	8.007583	0.003102	-0.000661	-0.002943	-0.656006	-0.155518	-0.302002	-0.140308	-0.301030	-0.029874	-0.942763
62360		5.437023	1.348808	7.964372	0.002436	-0.002195	-0.003894	-0.651855	-0.163086	-0.305908	-0.140064	-0.301040	-0.029911	-0.942795
62361		5.435922	1.346723	7.980553	0.004599	-0.001619	-0.001553	-0.647949	-0.169678	-0.316895	-0.139936	-0.301029	-0.029934	-0.942817
62362		5.444850	1.358379	7.982900	0.005759	-0.001079	-0.002337	-0.646240	-0.166748	-0.307617	-0.139940	-0.300956	-0.029962	-0.942839
62363		5.430567	1.355459	7.974813	0.003659	-0.001148	-0.003392	-0.640625	-0.166748	-0.310547	-0.139932	-0.300923	-0.029962	-0.942850
62364		5.454942	1.335327	7.978178	0.003646	-0.002407	-0.002864	-0.651123	-0.163574	-0.307861	-0.139943	-0.300877	-0.029961	-0.942863
62365		5.436885	1.351788	7.979041	0.004474	-0.002635	-0.004123	-0.648193	-0.168701	-0.313477	-0.139855	-0.300867	-0.029992	-0.942879
62366		5.447337	1.366833	7.964681	0.004744	-0.002375	-0.004933	-0.652832	-0.168213	-0.310547	-0.139882	-0.300826	-0.030011	-0.942887
62367		5.442388	1.341998	7.976081	0.003296	-0.002169	-0.004509	-0.647949	-0.169678	-0.309814	-0.139879	-0.300805	-0.030012	-0.942894
62368		5.436168	1.342716	7.963501	0.003917	-0.002147	-0.003673	-0.653076	-0.166260	-0.314209	-0.139920	-0.300781	-0.030004	-0.942896
62369		5.443798	1.351214	7.982342	0.003296	-0.002169	-0.004509	-0.651123	-0.165039	-0.301025	-0.139871	-0.300738	-0.030024	-0.942916
62370		5.428830	1.341479	7.967103	0.003980	-0.001639	-0.002388	-0.647217	-0.168213	-0.298584	-0.139801	-0.300756	-0.030022	-0.942921
62371		5.450757	1.354128	7.993806	0.003660	-0.001147	-0.003391	-0.649170	-0.162842	-0.304443	-0.139829	-0.300777	-0.029996	-0.942911
62372		5.434843	1.337767	7.971557	0.004250	-0.001380	-0.003197	-0.640381	-0.166260	-0.300049	-0.139732	-0.300766	-0.030018	-0.942928
62373		5.445819	1.359172	7.964521	0.003372	-0.000401	-0.003752	-0.653564	-0.171143	-0.299805	-0.139766	-0.300753	-0.029999	-0.942928
62374		5.442184	1.347110	7.990453	0.000445	-0.000244	-0.003548	-0.642090	-0.163818	-0.309326	-0.139826	-0.300769	-0.029930	-0.942916
62375		5.435607	1.347383	7.978189	0.004024	-0.000125	-0.002273	-0.644775	-0.167969	-0.308594	-0.139772	-0.300704	-0.029946	-0.942944
62376		5.424168	1.360689	7.967883	0.004025	-0.000125	-0.002273	-0.653076	-0.164551	-0.307373	-0.139784	-0.300656	-0.029940	-0.942958
62377		5.437124	1.352654	7.961166	0.002759	-0.002687	-0.002887	-0.654053	-0.167236	-0.302490	-0.139697	-0.300654	-0.029941	-0.942971
62378		5.438221	1.360389	7.967882	0.003661	-0.001147	-0.003390	-0.647461	-0.170898	-0.310303	-0.139664	-0.300668	-0.029934	-0.942972
62379		5.442375	1.342271	7.958496	0.004520	-0.001120	-0.004006	-0.653809	-0.162109	-0.306885	-0.139736	-0.300633	-0.029928	-0.942973
62380		5.440739	1.340189	7.975065	0.001121	0.002551	-0.003128	-0.647705	-0.169189	-0.306152	-0.139607	-0.300567	-0.029933	-0.943013
62381		5.434157	1.350573	7.993737	0.002545	-0.000173	-0.002492	-0.651367	-0.161865	-0.310791	-0.139639	-0.300539	-0.029901	-0.943018
62382		5.451491	1.362136	7.968067	0.003619	-0.002660	-0.003502	-0.647461	-0.164551	-0.315186	-0.139515	-0.300513	-0.029932	-0.943044
62383		5.430843	1.329648	7.988329	0.003330	-0.001914	-0.003863	-0.647949	-0.166504	-0.306396	-0.139470	-0.300452	-0.029950	-0.943069
62384		5.441953	1.351097	7.981165	0.003600	-0.001655	-0.004673	-0.646973	-0.170898	-0.309570	-0.139473	-0.300438	-0.029951	-0.943073
62385		5.441224	1.345738	7.973799	0.003963	-0.000633	-0.003557	-0.653320	-0.166748	-0.307861	-0.139550	-0.300402	-0.029933	-0.943074
62386		5.419009	1.339176	7.970154	0.004459	-0.001628	-0.005289	-0.646729	-0.170166	-0.304199	-0.139526	-0.300393	-0.029954	-0.943080
62387		5.420359	1.357744	8.007504	0.005959	-0.002583	-0.003898	-0.648193	-0.167236	-0.302490	-0.139589	-0.300410	-0.029953	-0.943065
62388		5.431600	1.340242	8.009915	0.003628	-0.004923	-0.001799	-0.642822	-0.169189	-0.308105	-0.139572	-0.300458	-0.029928	-0.943053
62389		5.441641	1.348242	7.988202	0.004468	-0.003892	-0.003587	-0.652832	-0.165527	-0.308594	-0.139640	-0.300457	-0.029914	-0.943044
62390		5.440608	1.336307	7.973396	0.004768	-0.003378	-0.003755	-0.652588	-0.172852	-0.299805	-0.139577	-0.300463	-0.029937	-0.943050
62391		5.429066	1.353369	7.986376	0.003952	-0.001891	-0.003026	-0.648926	-0.166504	-0.309570	-0.139654	-0.300507	-0.029896	-0.943026
62392		5.442057	1.345390	7.979638	0.003425	-0.001150	-0.001936	-0.651855	-0.173828	-0.305420	-0.139615	-0.300473	-0.029892	-0.943043
62393		5.427831	1.342236	7.971575	0.004222	-0.001632	-0.003836	-0.647217	-0.167236	-0.312256	-0.139721	-0.300484	-0.029861	-0.943025
62394		5.433301	1.341142	7.999860	0.005101	-0.002609	-0.003280	-0.643555	-0.172363	-0.308594	-0.139712	-0.300453	-0.029879	-0.943035
62395		5.435112	1.345667	7.982741	0.004180	-0.003146	-0.003947	-0.653809	-0.168457	-0.313965	-0.139837	-0.300447	-0.029849	-0.943020
62396		5.428269	1.349882	7.993870	0.004026	-0.000123	-0.002272	-0.652588	-0.170654	-0.317871	-0.139802	-0.300391	-0.029858	-0.943042
62397		5.433313	1.338195	7.991596	0.003684	-0.002150	-0.002215	-0.646729	-0.172607	-0.310791	-0.139813	-0.300340	-0.029852	-0.943057
62398		5.420896	1.348451	7.997557	0.004512	-0.002377	-0.003473	-0.647949	-0.167969	-0.303223	-0.139915	-0.300322	-0.029832	-0.943049
62399		5.435409	1.343786	7.974100	0.003622	-0.002659	-0.003498	-0.655273	-0.166992	-0.308105	-0.139935	-0.300340	-0.029812	-0.943040
62400		5.433800	1.335167	7.983026	0.004232	-0.003895	-0.002132	-0.646973	-0.165039	-0.312012	-0.139874	-0.300362	-0.029814	-0.943042
62401		5.430281	1.355780	7.991505	0.003622	-0.002659	-0.003497	-0.650146	-0.175049	-0.306396	-0.139829	-0.300328	-0.029826	-0.943060
62402		5.435412	1.344134	7.989172	0.003726	-0.000636	-0.002103	-0.647461	-0.164795	-0.311279	-0.139954	-0.300322	-0.029775	-0.943045
62403		5.437809	1.355164	7.979297	0.005103	-0.002609	-0.003278	-0.654541	-0.172363	-0.303223	-0.139893	-0.300294	-0.029806	-0.943062
62404		5.414618	1.345443	7.992023	0.003560	-0.003169	-0.004780	-0.653076	-0.166992	-0.315674	-0.139983	-0.300338	-0.029770	-0.943035
62405		5.449399	1.339203	7.981250	0.005362	-0.003608	-0.003556	-0.645020	-0.166504	-0.304688	-0.139932	-0.300314	-0.029804	-0.943049
62406		5.431318	1.355651	7.982063	0.003364	-0.001659	-0.003217	-0.650879	-0.167969	-0.319336	-0.139934	-0.300305	-0.029791	-0.943053
62407		5.433644	1.327579	7.982062	0.003913	-0.003404	-0.003133	-0.646484	-0.166504	-0.305420	-0.139907	-0.300254	-0.029805	-0.943072
62408		5.438008	1.351816	7.986109	0.002433	-0.003455	-0.003352	-0.656006	-0.166504	-0.310791	-0.139907	-0.300264	-0.029781	-0.943070
62409		5.429383	1.346401	8.006479	0.006843	-0.003556	-0.003336	-0.652588	-0.170166	-0.311035	-0.139834	-0.300273	-0.029826	-0.943076
62410		5.439492	1.354890	7.984577	0.005281	-0.006635	-0.003775	-0.651855	-0.166504	-0.308105	-0.139861	-0.300313	-0.029826	-0.943059
62411		5.439990	1.349817	7.976344	0.006784	-0.007586	-0.002383	-0.644531	-0.173096	-0.304688	-0.139803	-0.300376	-0.029852	-0.943047
62412		5.445010	1.332238	7.966356	0.008035	-0.002760	-0.003480	-0.644043	-0.166504	-0.304688	-0.139922	-0.300395	-0.029856	-0.943023
62413		5.432642	1.343180	7.972164	0.005964	-0.002580	-0.003892	-0.657959	-0.167236	-0.307129	-0.139926	-0.300398	-0.029874	-0.943021
62414		5.419740	1.357740	8.001627	0.006792	-0.002808	-0.005149	-0.650391	-0.169922	-0.310547	-0.139886	-0.300421	-0.029918	-0.943019
62415		5.446429	1.348239	7.995342	0.006296	-0.001811	-0.003419	-0.654785	-0.168945	-0.307861	-0.139908	-0.300402	-0.029937	-0.943021
62416		5.424034	1.331595	7.960947	0.006596	-0.001297	-0.003587	-0.646973	-0.167969	-0.301758	-0.139894	-0.300399	-0.029965	-0.943023
62417		5.432459	1.347402	7.986738	0.005344	-0.002604	-0.004725	-0.655029	-0.167725	-0.307617	-0.139928	-0.300424	-0.029968	-0.943010
62418		5.426232	1.348639	7.974059	0.007746	-0.002013	-0.003840	-0.649414	-0.169434	-0.307373	-0.139889	-0.300431	-0.030016	-0.943012
62419		5.434455	1.354323	7.969043	0.005904	-0.003091	-0.005171	-0.649658	-0.169434	-0.309814	-0.139931	-0.300440	-0.030032	-0.943002
62420		5.433277	1.352838	7.985262	0.003675	0.000112	-0.003916	-0.647949	-0.172852	-0.313232	-0.139960	-0.300395	-0.030027	-0.943013
62421		5.445224	1.338316	7.971618	0.003666	-0.001145	-0.003383	-0.643555	-0.168213	-0.312988	-0.140048	-0.300349	-0.030005	-0.943015
62422		5.442380	1.361675	7.963942	0.000806	0.000774	-0.002431	-0.651123	-0.163574	-0.307861	-0.140065	-0.300263	-0.029971	-0.943041
62423		5.442795	1.329887	7.981130	0.000806	0.000774	-0.002430	-0.653564	-0.163330	-0.311768	-0.139971	-0.300212	-0.029957	-0.943071
62424		5.424152	1.345686	7.982403	0.002516	-0.000429	-0.003130	-0.646729	-0.165771	-0.300537	-0.139858	-0.300163	-0.029973	-0.943103
62425		5.437821	1.344290	7.982848	0.003429	-0.001148	-0.001931	-0.639893	-0.171875	-0.307861	-0.139827	-0.300172	-0.029956	-0.943106
62426		5.418726	1.353781	7.976755	0.003927	-0.002145	-0.003660	-0.645996	-0.165527	-0.307617	-0.139954	-0.300151	-0.029922	-0.943095
62427		5.429547	1.336262	7.979565	0.004588	-0.000606	-0.002716	-0.643066	-0.160645	-0.307861	-0.139913	-0.300117	-0.029936	-0.943111
62428		5.422909	1.340589	7.990553	0.004148	-0.004659	-0.004044	-0.646484	-0.163330	-0.313721	-0.139811	-0.300116	-0.029967	-0.943125
62429		5.429483	1.374825	7.984876	0.004541	-0.003377	-0.002291	-0.648193	-0.172119	-0.305908	-0.139715	-0.300083	-0.029996	-0.943149
62430		5.416085	1.339335	7.993881	0.003698	-0.000889	-0.002741	-0.649902	-0.168457	-0.311279	-0.139801	-0.300074	-0.029959	-0.943140
62431		5.436979	1.335129	7.982683	0.004281	-0.002377	-0.002014	-0.645996	-0.171387	-0.307617	-0.139788	-0.300055	-0.029956	-0.943148
62432		5.423710	1.338746	7.981595	0.004818	-0.001861	-0.003634	-0.649170	-0.172363	-0.309326	-0.139875	-0.300046	-0.029939	-0.943139
62433		5.434887	1.360348	7.974147	0.004810	-0.003119	-0.003100	-0.647705	-0.167969	-0.302734	-0.139957	-0.300051	-0.029919	-0.943126
62434		5.424610	1.341676	7.980491	0.006292	-0.003065	-0.002881	-0.649170	-0.169678	-0.312256	-0.139963	-0.300082	-0.029927	-0.943115
62435		5.438892	1.341080	7.980383	0.005569	-0.005117	-0.005104	-0.656250	-0.169434	-0.311035	-0.140007	-0.300092	-0.029940	-0.943105
62436		5.434739	1.355604	7.981498	0.006553	-0.004065	-0.003157	-0.646240	-0.171143	-0.306885	-0.139989	-0.300112	-0.029963	-0.943100
62437		5.434525	1.350571	7.973766	0.005671	-0.003091	-0.003715	-0.642090	-0.172607	-0.311523	-0.140066	-0.300121	-0.029956	-0.943086
62438		5.440150	1.349945	8.001950	0.005648	-0.002089	-0.004888	-0.646729	-0.173096	-0.313477	-0.140191	-0.300089	-0.029954	-0.943078
62439		5.438778	1.338127	7.987430	0.004819	-0.001861	-0.003632	-0.650879	-0.169922	-0.308350	-0.140288	-0.300053	-0.029941	-0.943075
62440		5.412977	1.351160	7.992499	0.006785	-0.005320	-0.004072	-0.646973	-0.164795	-0.306152	-0.140319	-0.300092	-0.029957	-0.943058
62441		5.442373	1.351416	7.976265	0.006194	-0.005090	-0.004265	-0.646240	-0.169434	-0.305664	-0.140270	-0.300122	-0.029991	-0.943054
62442		5.418560	1.335010	7.981979	0.003991	-0.001632	-0.002375	-0.647461	-0.166260	-0.318359	-0.140303	-0.300115	-0.029970	-0.943052
62443		5.428203	1.353460	7.991257	0.004528	-0.001117	-0.003995	-0.646729	-0.172852	-0.315674	-0.140249	-0.300037	-0.030008	-0.943084
62444		5.443466	1.355712	7.974789	0.005965	-0.003833	-0.003348	-0.652344	-0.171387	-0.303711	-0.140327	-0.300016	-0.030010	-0.943079
62445		5.429598	1.352886	7.966477	0.005082	-0.002860	-0.003906	-0.649414	-0.168945	-0.308105	-0.140399	-0.300050	-0.029992	-0.943058
62446		5.430740	1.361107	7.973028	0.004198	-0.001887	-0.004465	-0.652344	-0.171143	-0.309326	-0.140427	-0.300040	-0.029990	-0.943057
62447		5.422126	1.352187	7.970169	0.005127	-0.000089	-0.004335	-0.641113	-0.160645	-0.317627	-0.140480	-0.300014	-0.029992	-0.943058
62448		5.423899	1.367358	7.983832	0.006565	-0.002805	-0.003686	-0.652832	-0.169678	-0.315674	-0.140318	-0.299943	-0.030081	-0.943102
62449		5.437101	1.359955	7.976884	0.004492	-0.002631	-0.004099	-0.652588	-0.170898	-0.302979	-0.140322	-0.299912	-0.030092	-0.943110
62450		5.430407	1.364337	7.987910	0.003931	-0.002144	-0.003653	-0.648682	-0.172363	-0.313477	-0.140384	-0.299941	-0.030063	-0.943093
62451		5.435774	1.352923	7.985472	0.005438	-0.003090	-0.002260	-0.646973	-0.173096	-0.300537	-0.140436	-0.299925	-0.030056	-0.943090
62452		5.436221	1.354439	7.984911	0.006005	-0.002318	-0.003240	-0.642334	-0.171143	-0.314209	-0.140557	-0.299963	-0.030029	-0.943061
62453		5.430899	1.361964	7.979254	0.004816	-0.003117	-0.003093	-0.647217	-0.165771	-0.311768	-0.140609	-0.299928	-0.030026	-0.943065
62454		5.424339	1.366445	7.990173	0.005084	-0.002860	-0.003903	-0.650146	-0.163330	-0.315186	-0.140554	-0.299905	-0.030058	-0.943079
62455		5.430842	1.358056	7.971236	0.003670	-0.001145	-0.003377	-0.650879	-0.162598	-0.315430	-0.140429	-0.299844	-0.030097	-0.943116
62456		5.424322	1.358555	7.958867	0.003347	-0.000658	-0.004382	-0.656982	-0.167969	-0.298340	-0.140302	-0.299777	-0.030140	-0.943155
62457		5.427726	1.347792	7.996827	0.003633	-0.002658	-0.003481	-0.646729	-0.162842	-0.302490	-0.140299	-0.299839	-0.030117	-0.943136
62458		5.428161	1.349136	7.996306	0.006361	-0.002547	-0.001594	-0.648926	-0.165771	-0.309570	-0.140186	-0.299856	-0.030153	-0.943146
62459		5.423561	1.363525	7.997701	0.005652	-0.002088	-0.004882	-0.649170	-0.165771	-0.307617	-0.140149	-0.299839	-0.030190	-0.943156
62460		5.434393	1.346129	8.000587	0.002518	-0.000430	-0.003126	-0.644775	-0.165039	-0.309082	-0.140105	-0.299808	-0.030184	-0.943173
62461		5.435056	1.343433	7.976654	0.003634	-0.002658	-0.003480	-0.641602	-0.164062	-0.307373	-0.140063	-0.299789	-0.030191	-0.943185
62462		5.424614	1.363421	7.973059	0.003640	-0.001401	-0.004016	-0.645264	-0.170898	-0.304199	-0.140026	-0.299756	-0.030203	-0.943200
62463		5.413236	1.337765	7.972764	0.004263	-0.001373	-0.003181	-0.645996	-0.167725	-0.308105	-0.140103	-0.299756	-0.030177	-0.943190
62464		5.431345	1.366109	7.984742	-0.000946	0.000457	-0.001839	-0.651123	-0.168457	-0.299561	-0.140108	-0.299704	-0.030113	-0.943208
62465		5.400193	1.347911	7.979126	0.002586	0.001341	-0.002382	-0.650391	-0.170410	-0.307861	-0.140119	-0.299700	-0.030079	-0.943208
62466		5.421181	1.353920	7.998759	0.002214	-0.002200	-0.002419	-0.644043	-0.163086	-0.307617	-0.140157	-0.299698	-0.030037	-0.943204
62467		5.431962	1.325647	7.970891	0.004258	-0.002629	-0.002645	-0.647949	-0.173828	-0.306396	-0.140073	-0.299684	-0.030056	-0.943221
62468		5.422582	1.352700	7.974073	0.007455	-0.003773	-0.003121	-0.649414	-0.171387	-0.307129	-0.140182	-0.299717	-0.030051	-0.943194
62469		5.427657	1.345535	7.995090	0.005026	-0.003372	-0.005178	-0.647461	-0.174072	-0.309814	-0.140268	-0.299736	-0.030042	-0.943176
62470		5.423552	1.355830	7.972881	0.003105	-0.001915	-0.002394	-0.652832	-0.177979	-0.307129	-0.140381	-0.299723	-0.029991	-0.943165
62471		5.415974	1.353267	7.976990	0.004856	-0.001601	-0.002985	-0.647461	-0.170654	-0.306396	-0.140559	-0.299737	-0.029939	-0.943135
62472		5.420944	1.345557	7.998179	0.004254	-0.003885	-0.002107	-0.644287	-0.164551	-0.308838	-0.140605	-0.299761	-0.029911	-0.943122
62473		5.428656	1.344086	7.985960	0.006803	-0.004058	-0.004592	-0.654297	-0.158936	-0.316895	-0.140551	-0.299763	-0.029962	-0.943128
62474		5.431213	1.355305	7.975775	0.003075	-0.002172	-0.003033	-0.657715	-0.165283	-0.314941	-0.140329	-0.299710	-0.030017	-0.943176
62475		5.424362	1.359490	7.986951	0.004594	-0.000601	-0.002711	-0.648682	-0.170410	-0.306641	-0.140219	-0.299666	-0.030051	-0.943205
62476		5.428707	1.341314	7.977700	0.003905	-0.002401	-0.004287	-0.648926	-0.164062	-0.311768	-0.140283	-0.299672	-0.030032	-0.943194
62477		5.428591	1.346471	8.000856	0.003905	-0.002401	-0.004286	-0.652832	-0.170410	-0.311279	-0.140210	-0.299645	-0.030058	-0.943213
62478		5.421196	1.344127	8.004815	0.005445	-0.003085	-0.002252	-0.645264	-0.169922	-0.299805	-0.140218	-0.299648	-0.030059	-0.943211
62479		5.424209	1.351414	7.971025	0.003576	-0.003172	-0.004754	-0.643311	-0.169922	-0.313965	-0.140306	-0.299688	-0.030026	-0.943186
62480		5.429166	1.343744	7.992236	0.003015	-0.002687	-0.004309	-0.650391	-0.167725	-0.304199	-0.140364	-0.299649	-0.030009	-0.943190
62481		5.419110	1.359992	7.965009	0.005156	-0.001086	-0.003155	-0.654053	-0.166748	-0.316895	-0.140357	-0.299653	-0.030014	-0.943190
62482		5.420647	1.339612	8.012529	0.004647	-0.002597	-0.000358	-0.649902	-0.169922	-0.310547	-0.140256	-0.299621	-0.030030	-0.943215
62483		5.407793	1.339148	7.987904	0.003673	-0.001144	-0.003373	-0.646973	-0.172852	-0.304932	-0.140287	-0.299595	-0.030017	-0.943219
62484		5.423288	1.351775	8.002110	0.005091	-0.002857	-0.003895	-0.651611	-0.165039	-0.307129	-0.140399	-0.299617	-0.029992	-0.943196
62485		5.415454	1.338848	7.975519	0.003968	-0.001886	-0.003007	-0.650879	-0.165527	-0.323486	-0.140333	-0.299613	-0.030002	-0.943207
62486		5.427334	1.367089	7.974928	0.004824	-0.003113	-0.003084	-0.651855	-0.168213	-0.308838	-0.140236	-0.299548	-0.030045	-0.943240
62487		5.428979	1.336198	7.991534	0.004223	-0.005397	-0.002204	-0.648682	-0.168701	-0.308105	-0.140217	-0.299583	-0.030034	-0.943232
62488		5.417491	1.342747	7.973480	0.005680	-0.004340	-0.003161	-0.646729	-0.171875	-0.318359	-0.140226	-0.299607	-0.030040	-0.943223
62489		5.425604	1.351940	7.991823	0.005948	-0.004084	-0.003971	-0.644531	-0.167236	-0.312012	-0.140287	-0.299579	-0.030050	-0.943223
62490		5.423905	1.343874	8.000931	0.005455	-0.000571	-0.003325	-0.644531	-0.163086	-0.313232	-0.140273	-0.299530	-0.030073	-0.943240
62491		5.403011	1.340027	7.980889	0.004859	-0.001599	-0.002982	-0.650879	-0.168457	-0.312256	-0.140175	-0.299480	-0.030111	-0.943269
62492		5.411847	1.351885	7.983011	0.004236	-0.001629	-0.003815	-0.648438	-0.165283	-0.303711	-0.140174	-0.299454	-0.030116	-0.943277
62493		5.421206	1.324902	7.995207	0.006302	-0.005565	-0.001787	-0.649414	-0.167969	-0.313965	-0.140108	-0.299509	-0.030135	-0.943269
62494		5.432765	1.346619	7.987211	0.005059	-0.004370	-0.003992	-0.645020	-0.172852	-0.310547	-0.140101	-0.299505	-0.030149	-0.943271
62495		5.413748	1.356124	7.981003	0.003112	-0.000658	-0.002928	-0.643799	-0.165039	-0.307861	-0.140205	-0.299468	-0.030107	-0.943268
62496		5.418685	1.344528	7.978969	0.004301	0.000142	-0.003076	-0.642334	-0.177979	-0.306885	-0.140163	-0.299424	-0.030122	-0.943288
62497		5.437001	1.334626	8.001010	0.003641	-0.002657	-0.003471	-0.648438	-0.170410	-0.306885	-0.140389	-0.299431	-0.030048	-0.943255
62498		5.420812	1.360558	7.992175	0.005186	-0.002082	-0.001975	-0.647217	-0.179932	-0.307617	-0.140422	-0.299436	-0.030035	-0.943249
62499		5.416373	1.335737	8.003927	0.004203	-0.003143	-0.003914	-0.650879	-0.171387	-0.309814	-0.140669	-0.299457	-0.029962	-0.943207
62500		5.424281	1.330120	7.968294	0.004265	-0.002626	-0.002637	-0.646484	-0.169434	-0.309326	-0.140717	-0.299458	-0.029940	-0.943200
62501		5.408358	1.366459	7.990155	0.002845	-0.000914	-0.002117	-0.651123	-0.164307	-0.306641	-0.140737	-0.299429	-0.029912	-0.943208
62502		5.412412	1.351708	8.004557	0.003405	-0.002655	-0.002021	-0.646240	-0.172363	-0.310547	-0.140654	-0.299435	-0.029912	-0.943218
62503		5.421996	1.359304	7.982899	0.003700	-0.003396	-0.001654	-0.651611	-0.165283	-0.311523	-0.140721	-0.299434	-0.029873	-0.943210
62504		5.417569	1.334186	7.994715	0.003377	-0.001658	-0.003198	-0.644775	-0.170166	-0.311035	-0.140654	-0.299408	-0.029883	-0.943228
62505		5.425664	1.339111	7.989814	0.004563	-0.002112	-0.002808	-0.648438	-0.169678	-0.302490	-0.140691	-0.299385	-0.029874	-0.943230
62506		5.413506	1.349639	7.995493	0.005920	-0.005596	-0.004064	-0.654541	-0.169434	-0.312744	-0.140750	-0.299451	-0.029866	-0.943200
62507		5.427765	1.348911	7.995408	0.003940	-0.002143	-0.003641	-0.647949	-0.170654	-0.306885	-0.140757	-0.299437	-0.029862	-0.943204
62508		5.405686	1.341917	7.992016	0.003973	-0.000629	-0.003542	-0.649902	-0.171631	-0.309814	-0.140819	-0.299421	-0.029841	-0.943200
62509		5.406591	1.350016	7.998707	0.004238	-0.001629	-0.003812	-0.652588	-0.166992	-0.312988	-0.140888	-0.299409	-0.029823	-0.943194
62510		5.419082	1.335683	7.984779	0.005687	-0.004337	-0.003153	-0.642578	-0.164307	-0.311523	-0.140840	-0.299416	-0.029848	-0.943199
62511		5.427222	1.344810	8.003107	0.005094	-0.004110	-0.003348	-0.649170	-0.166748	-0.314209	-0.140766	-0.299404	-0.029880	-0.943212
62512		5.427797	1.346320	8.002463	0.005097	-0.002855	-0.003887	-0.645508	-0.166016	-0.311279	-0.140726	-0.299380	-0.029906	-0.943225
62513		5.412172	1.329485	7.980442	0.003704	-0.002140	-0.002191	-0.651367	-0.172607	-0.308105	-0.140674	-0.299351	-0.029909	-0.943242
62514		5.416465	1.353992	7.984080	0.005062	-0.005624	-0.003445	-0.651855	-0.167236	-0.315918	-0.140759	-0.299400	-0.029884	-0.943215
62515		5.433990	1.330782	7.991611	0.004798	-0.004624	-0.003174	-0.652588	-0.165039	-0.312988	-0.140711	-0.299395	-0.029901	-0.943223
62516		5.428877	1.338165	7.985777	0.005424	-0.003337	-0.002881	-0.644531	-0.168701	-0.314453	-0.140623	-0.299387	-0.029934	-0.943237
62517		5.430159	1.346417	7.992180	0.004504	-0.002628	-0.004081	-0.653564	-0.175293	-0.313232	-0.140638	-0.299353	-0.029942	-0.943246
62518		5.422707	1.344064	7.996233	0.004566	-0.002111	-0.002805	-0.647705	-0.172852	-0.315918	-0.140746	-0.299343	-0.029908	-0.943234
62519		5.418558	1.354152	7.973960	0.004564	-0.003365	-0.002265	-0.655762	-0.161865	-0.311523	-0.140804	-0.299323	-0.029889	-0.943232
62520		5.431604	1.350648	7.990484	0.006818	-0.004052	-0.004575	-0.645508	-0.177979	-0.305176	-0.140670	-0.299335	-0.029959	-0.943246
62521		5.424825	1.344783	7.970686	0.006019	-0.003563	-0.002684	-0.649414	-0.164062	-0.308838	-0.140865	-0.299370	-0.029909	-0.943207
62522		5.424147	1.343419	7.986706	0.005129	-0.002596	-0.003247	-0.654297	-0.166748	-0.310547	-0.140783	-0.299365	-0.029939	-0.943220
62523		5.424474	1.344711	7.986267	0.004004	-0.001625	-0.002362	-0.646729	-0.170898	-0.312988	-0.140732	-0.299352	-0.029942	-0.943232
62524		5.430239	1.344158	8.014508	0.006584	-0.002793	-0.003666	-0.652588	-0.173584	-0.309570	-0.140772	-0.299337	-0.029958	-0.943230
62525		5.422203	1.370213	7.977415	0.004506	-0.002628	-0.004079	-0.645752	-0.162598	-0.313721	-0.140876	-0.299345	-0.029932	-0.943213
62526		5.412265	1.347594	7.960611	0.005756	-0.001308	-0.002954	-0.647705	-0.166992	-0.317871	-0.140749	-0.299296	-0.029987	-0.943246
62527		5.423759	1.341101	7.994043	0.003913	-0.002402	-0.004274	-0.646729	-0.167969	-0.315674	-0.140714	-0.299247	-0.030006	-0.943266
62528		5.411671	1.347543	7.976360	0.004537	-0.002369	-0.003440	-0.654541	-0.169678	-0.303955	-0.140695	-0.299209	-0.030019	-0.943280
62529		5.418566	1.349772	7.988032	0.004241	-0.001628	-0.003808	-0.651855	-0.171387	-0.308350	-0.140735	-0.299230	-0.030003	-0.943268
62530		5.431797	1.342095	7.981155	0.004537	-0.003623	-0.002899	-0.644287	-0.177490	-0.310059	-0.140787	-0.299252	-0.029980	-0.943254
62531		5.426115	1.353353	7.999033	0.005132	-0.002595	-0.003244	-0.642090	-0.164307	-0.314209	-0.140965	-0.299250	-0.029936	-0.943230
62532		5.417950	1.344503	7.996033	0.006556	-0.003051	-0.004301	-0.651611	-0.173828	-0.312744	-0.140886	-0.299217	-0.029994	-0.943250
62533		5.418467	1.346187	7.995398	0.005429	-0.003335	-0.002875	-0.647949	-0.169922	-0.308838	-0.140967	-0.299221	-0.029977	-0.943237
62534		5.418264	1.340769	7.987801	0.004538	-0.003623	-0.002897	-0.649658	-0.165039	-0.318115	-0.140996	-0.299232	-0.029963	-0.943230
62535		5.415806	1.364540	7.979325	0.004805	-0.003368	-0.003707	-0.652100	-0.167480	-0.300537	-0.140905	-0.299198	-0.030002	-0.943253
62536		5.425957	1.344357	7.998707	0.003648	-0.002657	-0.003461	-0.646973	-0.172852	-0.301270	-0.140920	-0.299237	-0.029981	-0.943239
62537		5.418496	1.341991	8.002796	0.004181	-0.002147	-0.005081	-0.642334	-0.168457	-0.310059	-0.141059	-0.299264	-0.029944	-0.943211
62538		5.420080	1.346169	7.985661	0.004600	-0.003103	-0.001622	-0.641357	-0.172119	-0.309326	-0.141046	-0.299253	-0.029939	-0.943217
62539		5.428488	1.351324	7.980456	0.005339	-0.004112	-0.004785	-0.645752	-0.162842	-0.314453	-0.141143	-0.299259	-0.029930	-0.943200
62540		5.427679	1.350022	7.996585	0.004570	-0.000854	-0.003343	-0.643555	-0.175781	-0.309082	-0.141020	-0.299201	-0.029975	-0.943236
62541		5.406505	1.349909	8.000148	0.005759	-0.002560	-0.002409	-0.647949	-0.173340	-0.317383	-0.141155	-0.299201	-0.029943	-0.943217
62542		5.421197	1.345180	7.976424	0.005104	-0.005361	-0.002794	-0.645508	-0.166260	-0.303223	-0.141212	-0.299201	-0.029930	-0.943208
62543		5.416993	1.359306	7.977446	0.005135	-0.003847	-0.002699	-0.654785	-0.164795	-0.307861	-0.141190	-0.299232	-0.029933	-0.943202
62544		5.421391	1.344992	7.991691	0.003679	-0.002397	-0.002822	-0.648438	-0.169434	-0.306885	-0.141120	-0.299238	-0.029938	-0.943210
62545		5.414520	1.349241	8.002916	0.004959	0.000439	-0.001605	-0.646729	-0.169189	-0.310791	-0.141127	-0.299211	-0.029932	-0.943218
62546		5.424766	1.359968	7.964773	0.005135	-0.002593	-0.003241	-0.644775	-0.166260	-0.311279	-0.141137	-0.299200	-0.029936	-0.943220
62547		5.419442	1.332633	7.993191	0.006591	-0.004043	-0.003117	-0.640869	-0.171143	-0.310303	-0.141085	-0.299199	-0.029973	-0.943227
62548		5.418337	1.359658	7.967819	0.006828	-0.005302	-0.004020	-0.650146	-0.165527	-0.312500	-0.141145	-0.299217	-0.029984	-0.943212
