// Start Time: Unknown
// Update Rate: 40.0Hz
// Filter Profile: human (46.1)
// Firmware Version: 4.6.0
PacketCounter	SampleTimeFine	Acc_X	Acc_Y	Acc_Z	Gyr_X	Gyr_Y	Gyr_Z	Mag_X	Mag_Y	Mag_Z	Quat_q0	Quat_q1	Quat_q2	Quat_q3
61648		9.324128	1.977669	-2.245013	0.013860	-0.001597	-0.040524	-0.584229	-0.583252	-0.056396	0.559119	0.479484	-0.620241	0.269782
61649		9.343719	1.996300	-2.202054	0.016147	0.001758	-0.037135	-0.580322	-0.576904	-0.062988	0.559161	0.479878	-0.619952	0.269658
61650		9.300770	2.041900	-2.309949	-0.012367	0.006012	-0.029939	-0.588379	-0.586182	-0.060791	0.559390	0.479996	-0.619771	0.269390
61651		9.309742	1.982601	-2.288642	-0.006161	0.004536	-0.024542	-0.583984	-0.582520	-0.066650	0.559543	0.480130	-0.619613	0.269195
61652		9.294866	2.005005	-2.286979	0.006313	0.004276	-0.023629	-0.575928	-0.587646	-0.064453	0.559614	0.480346	-0.619423	0.269100
61653		9.329170	2.065536	-2.233250	0.001671	0.008827	-0.021557	-0.587402	-0.581055	-0.069336	0.559738	0.480501	-0.619231	0.269009
61654		9.294409	2.075483	-2.202751	-0.020124	0.002761	-0.018947	-0.580811	-0.587646	-0.065430	0.559941	0.480508	-0.619165	0.268725
61655		9.319987	2.060132	-2.266703	-0.013479	-0.003012	-0.020331	-0.581299	-0.584229	-0.063477	0.560071	0.480594	-0.619103	0.268443
61656		9.344089	2.042616	-2.166094	-0.003769	0.004033	-0.020444	-0.571289	-0.575928	-0.062500	0.560198	0.480730	-0.618957	0.268270
61657		9.309044	1.974539	-2.193552	-0.026489	0.002299	-0.014510	-0.581787	-0.575439	-0.080078	0.560440	0.480662	-0.618927	0.267957
61658		9.317224	1.948590	-2.219931	-0.022957	-0.003095	-0.019009	-0.579102	-0.586670	-0.070068	0.560637	0.480661	-0.618895	0.267619
61659		9.359452	2.017991	-2.201890	0.000129	-0.001388	-0.022352	-0.572266	-0.588867	-0.083252	0.560713	0.480835	-0.618760	0.267459
61660		9.358885	1.994759	-2.186807	0.006086	0.001261	-0.024695	-0.575928	-0.581543	-0.067139	0.560790	0.481052	-0.618569	0.267351
61661		9.347969	2.015711	-2.207296	-0.006288	0.000632	-0.022486	-0.582520	-0.581543	-0.073730	0.560921	0.481158	-0.618443	0.267178
61662		9.318794	2.054548	-2.205850	-0.007347	-0.002720	-0.020335	-0.576416	-0.577881	-0.069336	0.561032	0.481237	-0.618357	0.267001
61663		9.316002	2.028985	-2.199790	0.005682	0.003317	-0.019511	-0.577637	-0.574219	-0.080322	0.561105	0.481388	-0.618187	0.266967
61664		9.305958	2.020059	-2.205228	0.008216	-0.000089	-0.020056	-0.580078	-0.580322	-0.068604	0.561153	0.481556	-0.618028	0.266930
61665		9.335798	2.068948	-2.242493	0.006503	-0.001124	-0.020623	-0.578613	-0.585938	-0.064941	0.561188	0.481726	-0.617886	0.266883
61666		9.342127	2.100152	-2.198631	0.004484	-0.000886	-0.015960	-0.580078	-0.586670	-0.074219	0.561211	0.481858	-0.617777	0.266846
61667		9.314621	2.079562	-2.167338	0.008324	-0.001090	-0.013840	-0.578125	-0.590088	-0.067871	0.561231	0.481988	-0.617661	0.266839
61668		9.313746	2.104727	-2.151589	0.000220	-0.003243	-0.013873	-0.584229	-0.575195	-0.068359	0.561277	0.482084	-0.617579	0.266756
61669		9.317725	2.111412	-2.133765	-0.014391	-0.006624	-0.011149	-0.577637	-0.585205	-0.070557	0.561379	0.482040	-0.617594	0.266586
61670		9.330995	2.054065	-2.167707	-0.020189	-0.003699	-0.012316	-0.582275	-0.581543	-0.062744	0.561568	0.481977	-0.617574	0.266350
61671		9.331874	2.010743	-2.231880	-0.012875	-0.007783	-0.013919	-0.572266	-0.584229	-0.066406	0.561653	0.481988	-0.617565	0.266170
61672		9.335007	2.002472	-2.262474	0.002981	-0.002546	-0.018713	-0.580078	-0.580322	-0.064209	0.561699	0.482160	-0.617425	0.266087
61673		9.335770	1.971116	-2.215386	0.009845	0.006216	-0.015469	-0.577881	-0.584717	-0.067871	0.561731	0.482292	-0.617258	0.266168
61674		9.316274	1.986984	-2.233083	0.010278	-0.000056	-0.011551	-0.583496	-0.584473	-0.073486	0.561712	0.482411	-0.617155	0.266232
61675		9.345298	2.019861	-2.216178	0.014606	0.000948	-0.017510	-0.582031	-0.579102	-0.069580	0.561716	0.482545	-0.617018	0.266296
61676		9.311350	2.074796	-2.217435	0.020420	0.002634	-0.015364	-0.576660	-0.578857	-0.062256	0.561655	0.482710	-0.616875	0.266458
61677		9.313631	2.105473	-2.152884	0.022422	-0.003315	-0.012565	-0.574219	-0.589111	-0.070312	0.561477	0.482962	-0.616766	0.266628
61678		9.297817	2.163507	-2.161031	0.013426	-0.003393	-0.010865	-0.584473	-0.580811	-0.076172	0.561429	0.483123	-0.616665	0.266671
61679		9.327787	2.144682	-2.146064	-0.001591	-0.004652	-0.006035	-0.583740	-0.578125	-0.074707	0.561488	0.483021	-0.616706	0.266637
61680		9.334344	2.090481	-2.200086	-0.010211	-0.004915	0.001350	-0.585693	-0.574951	-0.070312	0.561564	0.482811	-0.616819	0.266596
61681		9.300085	2.061832	-2.197318	-0.008796	-0.010046	0.000652	-0.584717	-0.578613	-0.072998	0.561548	0.482649	-0.616972	0.266570
61682		9.312672	2.118415	-2.182059	-0.006463	-0.008076	0.000180	-0.583008	-0.581299	-0.069336	0.561563	0.482490	-0.617096	0.266536
61683		9.327319	2.073716	-2.168426	-0.009712	-0.003971	-0.000549	-0.574707	-0.580566	-0.073730	0.561607	0.482357	-0.617178	0.266497
61684		9.316551	1.997389	-2.193314	-0.005794	-0.005668	0.000788	-0.584961	-0.584717	-0.071045	0.561657	0.482272	-0.617225	0.266439
61685		9.322746	2.019972	-2.190484	0.010247	-0.006646	-0.001825	-0.583008	-0.585449	-0.070068	0.561583	0.482266	-0.617264	0.266514
61686		9.361809	2.057604	-2.137459	0.013492	-0.001165	-0.008407	-0.585449	-0.573242	-0.070801	0.561547	0.482340	-0.617202	0.266597
61687		9.329072	2.038198	-2.156792	0.005293	-0.002578	-0.008474	-0.584717	-0.583008	-0.078369	0.561521	0.482300	-0.617218	0.266689
61688		9.302172	2.014234	-2.228763	-0.002315	-0.009540	-0.002931	-0.580322	-0.580322	-0.074219	0.561596	0.482113	-0.617335	0.266598
61689		9.321303	2.038367	-2.250914	0.004632	-0.009839	-0.003883	-0.580566	-0.580811	-0.071045	0.561568	0.482074	-0.617395	0.266588
61690		9.372044	2.015019	-2.138198	-0.005095	-0.001519	-0.003134	-0.582764	-0.579590	-0.070801	0.561617	0.481975	-0.617432	0.266579
61691		9.323212	1.966024	-2.197867	-0.027448	-0.003173	-0.000755	-0.581543	-0.583252	-0.071777	0.561771	0.481682	-0.617586	0.266429
61692		9.336366	1.912710	-2.263719	-0.008034	-0.008259	-0.001786	-0.579102	-0.587891	-0.073242	0.561794	0.481558	-0.617694	0.266354
61693		9.333086	1.956055	-2.242015	0.009593	-0.008170	-0.004709	-0.583740	-0.577393	-0.070068	0.561758	0.481590	-0.617709	0.266336
61694		9.343999	1.971809	-2.229131	0.012483	-0.002905	-0.007704	-0.582764	-0.578857	-0.074707	0.561650	0.481626	-0.617711	0.266494
61695		9.341649	1.987217	-2.191569	0.006915	-0.004622	-0.008116	-0.583008	-0.573730	-0.071045	0.561645	0.481559	-0.617751	0.266532
61696		9.325927	2.044063	-2.199962	0.012718	-0.008531	-0.001599	-0.583496	-0.580078	-0.070068	0.561472	0.481541	-0.617840	0.266724
61697		9.325146	2.077950	-2.177395	0.004483	-0.005833	-0.007684	-0.583252	-0.578125	-0.066406	0.561408	0.481527	-0.617888	0.266771
61698		9.323033	2.016371	-2.197337	-0.003778	-0.004883	-0.009232	-0.589111	-0.572998	-0.071289	0.561340	0.481530	-0.617934	0.266803
61699		9.322641	1.951920	-2.247766	0.000787	-0.004910	-0.008113	-0.578369	-0.583740	-0.076416	0.561292	0.481367	-0.618068	0.266890
61700		9.340888	2.005202	-2.284196	0.016822	-0.002148	-0.007497	-0.578613	-0.581299	-0.067627	0.561332	0.481364	-0.618026	0.266906
61701		9.357029	2.003616	-2.165947	0.016546	0.000863	-0.006802	-0.588867	-0.580811	-0.070312	0.561218	0.481517	-0.617936	0.267079
61702		9.347528	2.013433	-2.155595	0.009776	-0.001096	-0.006581	-0.583252	-0.583984	-0.075684	0.561157	0.481434	-0.618001	0.267208
61703		9.305554	2.002652	-2.164419	0.007414	-0.008394	-0.007905	-0.593018	-0.578125	-0.072510	0.561197	0.481328	-0.618079	0.267133
61704		9.316958	2.044633	-2.197791	0.002414	-0.006958	-0.007747	-0.578369	-0.578857	-0.065918	0.561160	0.481114	-0.618256	0.267187
61705		9.349969	1.960960	-2.222667	0.002221	-0.000856	-0.006855	-0.577393	-0.585205	-0.072021	0.561083	0.481213	-0.618207	0.267284
61706		9.318112	1.966629	-2.287383	-0.003209	-0.002732	-0.003305	-0.582520	-0.568848	-0.075684	0.561176	0.481134	-0.618225	0.267188
61707		9.352534	1.969552	-2.174623	0.017204	-0.001307	-0.007178	-0.583496	-0.576904	-0.079346	0.561135	0.481017	-0.618264	0.267394
61708		9.331229	1.997681	-2.154769	0.013347	-0.001986	-0.007023	-0.585693	-0.583740	-0.065430	0.561238	0.480791	-0.618335	0.267421
61709		9.346499	1.979456	-2.187288	0.004879	-0.004127	-0.009628	-0.585449	-0.573975	-0.072021	0.561118	0.480879	-0.618344	0.267492
61710		9.344203	1.962329	-2.174473	0.000122	-0.007315	-0.008715	-0.584473	-0.581055	-0.070801	0.561088	0.480741	-0.618462	0.267532
61711		9.337842	1.933560	-2.250895	0.012231	-0.002841	-0.009445	-0.580078	-0.580566	-0.069580	0.561043	0.480742	-0.618468	0.267609
61712		9.335448	1.960366	-2.205014	0.022606	-0.000150	-0.011559	-0.580811	-0.586670	-0.068604	0.560949	0.480908	-0.618356	0.267767
61713		9.339612	1.976547	-2.179929	0.018871	-0.005434	-0.011511	-0.582275	-0.583008	-0.066162	0.560855	0.481089	-0.618285	0.267803
61714		9.337626	2.018016	-2.189121	0.008429	-0.005756	-0.010888	-0.586914	-0.578613	-0.074463	0.560742	0.481218	-0.618266	0.267854
61715		9.330230	2.008552	-2.186968	0.011800	-0.005136	-0.011414	-0.582520	-0.583008	-0.071777	0.560764	0.481073	-0.618346	0.267882
61716		9.307707	2.010851	-2.224388	0.010652	-0.007608	-0.012384	-0.577881	-0.579834	-0.072021	0.560762	0.481077	-0.618365	0.267836
61717		9.346643	2.006034	-2.204766	0.015811	-0.002843	-0.012160	-0.586914	-0.577637	-0.073242	0.560768	0.481143	-0.618293	0.267871
61718		9.351740	2.005295	-2.156058	0.010239	-0.005453	-0.010288	-0.580078	-0.575928	-0.061768	0.560762	0.481005	-0.618380	0.267928
61719		9.325139	2.008932	-2.171868	0.004550	-0.007178	-0.011550	-0.590088	-0.570068	-0.066895	0.560531	0.481249	-0.618328	0.268094
61720		9.324444	1.966816	-2.206796	-0.001302	-0.011372	-0.009955	-0.587402	-0.579834	-0.069824	0.560358	0.481135	-0.618513	0.268233
61721		9.313502	1.972483	-2.238086	0.003482	-0.008433	-0.004694	-0.580322	-0.582764	-0.071289	0.560307	0.480989	-0.618662	0.268260
61722		9.373297	1.972864	-2.215101	0.010589	-0.006229	-0.008520	-0.581055	-0.577881	-0.083252	0.560323	0.480982	-0.618669	0.268222
61723		9.363381	1.983133	-2.206069	0.011556	-0.006086	-0.007788	-0.590332	-0.582764	-0.069824	0.560584	0.480606	-0.618794	0.268064
61724		9.321303	1.983014	-2.206996	0.000135	-0.008314	-0.003343	-0.581543	-0.576416	-0.072266	0.560554	0.480403	-0.618981	0.268056
61725		9.322067	2.002690	-2.223621	-0.010519	-0.013477	0.000779	-0.590332	-0.576904	-0.074219	0.560580	0.480156	-0.619190	0.267964
61726		9.331787	1.965565	-2.221465	-0.012002	-0.010712	0.002100	-0.590088	-0.581055	-0.071777	0.560647	0.479715	-0.619500	0.267897
61727		9.336580	1.924936	-2.237532	-0.002627	-0.008879	-0.001586	-0.580322	-0.574219	-0.072510	0.560656	0.479450	-0.619714	0.267857
61728		9.344218	1.922713	-2.282047	0.010781	-0.004020	-0.005200	-0.586426	-0.584473	-0.063477	0.560634	0.479406	-0.619722	0.267965
61729		9.361057	1.968694	-2.194311	0.009086	-0.006072	-0.000393	-0.590332	-0.574707	-0.070312	0.560434	0.479498	-0.619772	0.268102
61730		9.338429	1.965360	-2.169209	0.006762	-0.008048	0.000092	-0.587402	-0.576172	-0.077393	0.560309	0.479325	-0.619944	0.268273
61731		9.330426	1.949078	-2.207426	-0.003875	-0.010599	-0.002593	-0.583252	-0.584229	-0.065430	0.560438	0.478933	-0.620185	0.268147
61732		9.335349	1.934484	-2.269959	0.001160	-0.009530	-0.006483	-0.587891	-0.579590	-0.066406	0.560350	0.479012	-0.620228	0.268090
61733		9.333143	1.927545	-2.249595	0.015656	-0.005411	-0.006239	-0.586426	-0.572266	-0.068848	0.560175	0.479092	-0.620250	0.268263
61734		9.363002	1.963976	-2.194808	0.019591	-0.005335	-0.009456	-0.593262	-0.572998	-0.070068	0.559999	0.479169	-0.620242	0.268510
61735		9.352758	1.949597	-2.139143	0.008494	-0.001770	-0.012985	-0.582031	-0.572510	-0.077881	0.559950	0.479050	-0.620313	0.268661
61736		9.332148	1.893522	-2.247024	-0.001942	-0.006706	-0.013304	-0.596436	-0.573486	-0.071777	0.560157	0.478785	-0.620404	0.268493
61737		9.336379	1.925662	-2.276407	0.009421	-0.006811	-0.017136	-0.589111	-0.570557	-0.067383	0.560102	0.478647	-0.620523	0.268579
61738		9.355678	1.909757	-2.228457	0.016128	-0.002579	-0.015787	-0.581543	-0.568848	-0.069580	0.559935	0.478762	-0.620472	0.268838
61739		9.347039	1.929641	-2.241231	0.016614	-0.001632	-0.017695	-0.584473	-0.575439	-0.064941	0.559857	0.478906	-0.620352	0.269022
61740		9.376693	1.957403	-2.193739	0.015414	-0.001871	-0.017063	-0.593262	-0.581055	-0.072510	0.559714	0.479133	-0.620232	0.269192
61741		9.357942	1.944799	-2.196550	-0.000064	0.001261	-0.011552	-0.591553	-0.581543	-0.070068	0.559869	0.478847	-0.620350	0.269107
61742		9.346075	1.910182	-2.227394	0.001780	-0.001407	-0.013372	-0.588867	-0.578857	-0.069336	0.559945	0.478700	-0.620424	0.269039
61743		9.371183	1.911823	-2.213764	0.005426	0.000807	-0.013631	-0.588379	-0.575195	-0.066162	0.559986	0.478634	-0.620429	0.269058
61744		9.352811	1.924435	-2.262190	-0.002844	0.000819	-0.012881	-0.586426	-0.573975	-0.073242	0.559970	0.478613	-0.620426	0.269138
61745		9.321997	2.011810	-2.259588	0.013285	0.006433	-0.021379	-0.584717	-0.566650	-0.069824	0.560095	0.478563	-0.620328	0.269190
61746		9.298802	1.988340	-2.185338	0.006169	0.005212	-0.022904	-0.582275	-0.578613	-0.070557	0.560123	0.478613	-0.620196	0.269349
61747		9.320316	1.962857	-2.236891	0.004556	-0.002784	-0.022923	-0.587158	-0.581543	-0.070068	0.560214	0.478681	-0.620115	0.269225
61748		9.341640	1.912096	-2.242504	0.007089	0.003018	-0.021543	-0.579834	-0.574951	-0.069580	0.560319	0.478691	-0.620042	0.269159
61749		9.373025	1.926515	-2.232480	0.007930	0.001439	-0.017130	-0.590576	-0.581787	-0.065674	0.560352	0.478785	-0.619919	0.269204
61750		9.365949	1.917905	-2.228710	0.007214	-0.000477	-0.011584	-0.583008	-0.579834	-0.076660	0.560276	0.478818	-0.619924	0.269292
61751		9.344146	1.958015	-2.200639	0.005487	-0.004889	-0.006134	-0.583496	-0.580078	-0.068604	0.560428	0.478580	-0.620026	0.269166
61752		9.289736	2.010253	-2.166520	-0.000912	-0.005079	-0.010930	-0.588135	-0.575928	-0.079102	0.560442	0.478569	-0.620047	0.269105
61753		9.310277	1.974364	-2.196212	-0.003351	-0.001733	-0.009522	-0.582275	-0.578369	-0.071533	0.560687	0.478163	-0.620204	0.268956
61754		9.342785	1.919587	-2.236004	0.004624	-0.005784	-0.006821	-0.579834	-0.582520	-0.065674	0.560700	0.478105	-0.620246	0.268935
61755		9.382556	1.902591	-2.223818	0.009089	-0.000566	-0.001706	-0.587646	-0.577637	-0.068359	0.560617	0.478213	-0.620192	0.269039
61756		9.363780	1.844895	-2.063226	0.019402	0.005176	-0.001446	-0.584717	-0.582764	-0.065186	0.560513	0.478209	-0.620162	0.269333
61757		9.441635	1.852172	-1.947937	0.018684	-0.050042	-0.010600	-0.582764	-0.564697	-0.067627	0.560002	0.478568	-0.620414	0.269178
61758		9.356056	1.814430	-2.149686	0.046369	-0.065011	0.008637	-0.581299	-0.576904	-0.063232	0.559093	0.478962	-0.620786	0.269507
61759		9.387098	1.777861	-2.312740	0.034786	-0.051315	0.035239	-0.589600	-0.569336	-0.066895	0.558306	0.479118	-0.621224	0.269855
61760		9.269760	2.233896	-2.430056	0.082064	-0.040152	0.015488	-0.583252	-0.577637	-0.070312	0.557429	0.479474	-0.621437	0.270542
61761		9.237724	2.382637	-2.192351	0.073731	0.011405	-0.001638	-0.593262	-0.571289	-0.056396	0.557250	0.479692	-0.621181	0.271113
61762		9.182677	2.105660	-2.211640	0.059177	0.035158	-0.007651	-0.595703	-0.583740	-0.060303	0.556995	0.480020	-0.620755	0.272030
61763		9.355017	1.888944	-2.198705	0.019360	0.023129	-0.006983	-0.588867	-0.579346	-0.062012	0.557057	0.479972	-0.620608	0.272324
61764		9.449196	1.747144	-2.240564	0.005994	0.028548	-0.012100	-0.590332	-0.583008	-0.059326	0.557288	0.479884	-0.620384	0.272516
61765		9.370920	1.758310	-2.245280	0.018750	0.027856	-0.031118	-0.582275	-0.579834	-0.059326	0.557454	0.480102	-0.619995	0.272678
61766		9.425332	1.819946	-2.421674	0.036177	0.022017	-0.053028	-0.589111	-0.579346	-0.068359	0.557541	0.480722	-0.619379	0.272809
61767		9.380278	1.878430	-2.354876	0.056774	0.021124	-0.066992	-0.578369	-0.583252	-0.064209	0.557707	0.481269	-0.618764	0.272901
61768		9.358595	1.725145	-2.311416	0.040036	0.023591	-0.052425	-0.588867	-0.574951	-0.067139	0.557909	0.481796	-0.618146	0.272957
61769		9.316732	1.684919	-2.276981	0.029760	0.011783	-0.036677	-0.583496	-0.588623	-0.071045	0.557998	0.481950	-0.617883	0.273097
61770		9.412731	1.753863	-2.254706	0.052456	0.002456	-0.040926	-0.585693	-0.584473	-0.057373	0.558074	0.482301	-0.617556	0.273065
61771		9.373119	1.920154	-2.218623	0.045174	0.001433	-0.049501	-0.580078	-0.576172	-0.059326	0.557906	0.482955	-0.617145	0.273179
61772		9.367730	1.961440	-2.204947	0.012628	0.002669	-0.044456	-0.581299	-0.579102	-0.059570	0.557932	0.483337	-0.616832	0.273160
61773		9.426492	1.960514	-2.188467	0.005015	-0.002784	-0.041106	-0.581787	-0.583496	-0.059326	0.557971	0.483627	-0.616624	0.273036
61774		9.451505	2.001677	-2.243391	0.001553	0.008308	-0.045567	-0.583252	-0.576660	-0.056885	0.558151	0.483886	-0.616330	0.272872
61775		9.337748	1.828507	-2.208095	-0.005838	0.042300	-0.043549	-0.582275	-0.579834	-0.072754	0.558530	0.483989	-0.615844	0.273011
61776		9.312835	1.818265	-2.293341	-0.006067	0.015865	-0.039402	-0.579102	-0.588135	-0.063721	0.559013	0.483797	-0.615667	0.272762
61777		9.379021	2.031119	-2.314289	0.043979	-0.004385	-0.057618	-0.584229	-0.583496	-0.067627	0.558962	0.484436	-0.615250	0.272673
61778		9.336009	2.037822	-2.116229	0.047805	0.026019	-0.063556	-0.582764	-0.580078	-0.063232	0.559178	0.484869	-0.614662	0.272787
61779		9.277886	2.018682	-2.213746	0.013324	0.025910	-0.057716	-0.578125	-0.584229	-0.058594	0.559473	0.485124	-0.614189	0.272794
61780		9.309123	1.965268	-2.225997	0.043280	0.009952	-0.049083	-0.574707	-0.591797	-0.068848	0.559372	0.485740	-0.613703	0.272999
61781		9.295914	1.992650	-2.278825	0.036883	0.008935	-0.036150	-0.583252	-0.582031	-0.065430	0.559518	0.485999	-0.613373	0.272981
61782		9.249401	2.123115	-2.252848	0.047106	0.015887	-0.041352	-0.582520	-0.594238	-0.062744	0.559518	0.486320	-0.612990	0.273269
61783		9.293426	2.122313	-2.117189	0.040392	0.013647	-0.037981	-0.584229	-0.586426	-0.067139	0.559562	0.486632	-0.612653	0.273378
61784		9.325963	2.124951	-2.146069	0.008995	-0.003872	-0.030538	-0.586426	-0.593506	-0.060059	0.559665	0.486606	-0.612634	0.273257
61785		9.278154	2.138028	-2.219148	0.014756	0.000608	-0.035318	-0.567871	-0.583008	-0.071777	0.559691	0.486768	-0.612516	0.273178
61786		9.291484	2.173417	-2.280996	0.033066	0.010496	-0.052128	-0.572998	-0.595459	-0.057373	0.559941	0.487090	-0.612068	0.273097
61787		9.268407	2.134373	-2.221149	0.049173	0.021850	-0.058160	-0.575195	-0.599121	-0.056885	0.559996	0.487774	-0.611423	0.273209
61788		9.363309	2.078552	-2.104615	0.029766	0.015173	-0.049019	-0.573975	-0.594971	-0.061279	0.560099	0.488236	-0.610980	0.273164
61789		9.381393	2.088955	-2.139244	0.009988	0.008485	-0.042473	-0.578125	-0.588867	-0.060547	0.560299	0.488451	-0.610704	0.272987
61790		9.315261	2.110111	-2.196315	-0.004974	0.005107	-0.036044	-0.568604	-0.592041	-0.069824	0.560463	0.488516	-0.610557	0.272861
61791		9.309375	2.071895	-2.214249	0.004895	0.005325	-0.028625	-0.570312	-0.596436	-0.053467	0.560757	0.488480	-0.610409	0.272653
61792		9.346337	2.107499	-2.169328	0.009163	-0.004665	-0.027391	-0.575195	-0.588135	-0.058594	0.560670	0.488819	-0.610248	0.272586
61793		9.318194	2.183852	-2.127920	-0.003139	0.000390	-0.024802	-0.572754	-0.591553	-0.065186	0.560705	0.488898	-0.610161	0.272568
61794		9.296716	2.165139	-2.177746	-0.016638	0.005161	-0.021574	-0.575439	-0.593750	-0.061523	0.560993	0.488719	-0.610136	0.272351
61795		9.300382	2.157182	-2.206476	0.001776	-0.004939	-0.020568	-0.574707	-0.593994	-0.062988	0.561022	0.488749	-0.610128	0.272253
61796		9.312691	2.125859	-2.129593	0.014034	0.004645	-0.021018	-0.582764	-0.592041	-0.061768	0.561079	0.488812	-0.610013	0.272280
61797		9.296184	2.097242	-2.106657	-0.016851	0.001696	-0.014138	-0.577393	-0.593750	-0.053467	0.561219	0.488569	-0.610121	0.272186
61798		9.343120	2.188341	-2.180417	-0.027294	-0.008398	-0.010804	-0.575439	-0.591309	-0.056152	0.561216	0.488483	-0.610262	0.272032
61799		9.323261	2.179367	-2.151136	-0.018358	0.004160	-0.006639	-0.563965	-0.592041	-0.069824	0.561273	0.488358	-0.610303	0.272046
61800		9.294125	2.101016	-2.143328	-0.015728	0.005575	-0.008475	-0.573486	-0.587646	-0.075928	0.561592	0.488111	-0.610293	0.271853
61801		9.305213	2.091170	-2.183214	-0.014323	-0.000221	-0.010777	-0.573242	-0.587891	-0.060303	0.561905	0.487714	-0.610414	0.271648
61802		9.354306	2.128666	-2.130717	-0.007975	0.002765	-0.012846	-0.570557	-0.589111	-0.066650	0.561938	0.487694	-0.610378	0.271696
61803		9.346055	2.063440	-2.080055	-0.013664	0.007390	-0.004517	-0.569092	-0.587402	-0.069336	0.562134	0.487452	-0.610400	0.271676
61804		9.350956	2.064397	-2.162939	-0.025785	-0.007789	0.000406	-0.580811	-0.586914	-0.065186	0.562302	0.487111	-0.610598	0.271494
61805		9.375749	2.059480	-2.189370	-0.015004	-0.007006	-0.000752	-0.570557	-0.593262	-0.069336	0.562305	0.486835	-0.610814	0.271497
61806		9.314912	2.075563	-2.167215	-0.013803	-0.002011	-0.002721	-0.567627	-0.585693	-0.067383	0.562482	0.486574	-0.610929	0.271340
61807		9.276732	2.101348	-2.132252	-0.005327	-0.003888	-0.007284	-0.570312	-0.587158	-0.063721	0.562528	0.486505	-0.610945	0.271331
61808		9.297725	2.087520	-2.145261	0.002106	-0.003104	-0.007084	-0.572510	-0.601807	-0.068604	0.562474	0.486532	-0.610933	0.271423
61809		9.317670	2.096275	-2.142011	0.000797	0.002079	-0.007829	-0.572510	-0.590820	-0.062012	0.562637	0.486398	-0.610955	0.271274
61810		9.356891	2.117715	-2.166788	0.001622	0.000785	-0.009593	-0.573975	-0.595947	-0.068848	0.562613	0.486435	-0.610916	0.271348
61811		9.367645	2.111474	-2.106084	0.001632	-0.002448	-0.006636	-0.574463	-0.592285	-0.071289	0.562692	0.486307	-0.610979	0.271271
61812		9.335433	2.071061	-2.109448	-0.009619	-0.004193	-0.003551	-0.575684	-0.585205	-0.071289	0.562829	0.486039	-0.611123	0.271141
61813		9.282833	2.083872	-2.130563	-0.012274	-0.008560	-0.004975	-0.578369	-0.582764	-0.066406	0.562901	0.485791	-0.611290	0.271060
61814		9.317510	2.089843	-2.183188	-0.009771	-0.007129	-0.007677	-0.577637	-0.590576	-0.074463	0.562875	0.485657	-0.611406	0.271094
61815		9.328249	2.066711	-2.170233	-0.001615	0.001662	-0.009659	-0.568359	-0.589355	-0.069092	0.563054	0.485401	-0.611483	0.271008
61816		9.341971	2.094625	-2.170025	0.005307	-0.005299	-0.011758	-0.576660	-0.584717	-0.071777	0.563071	0.485430	-0.611458	0.270975
61817		9.325509	2.081149	-2.101718	0.008443	-0.003200	-0.009303	-0.577393	-0.598389	-0.065918	0.563066	0.485342	-0.611496	0.271057
61818		9.315694	2.080925	-2.100250	0.000627	-0.007039	-0.012257	-0.576172	-0.588135	-0.072998	0.563088	0.485299	-0.611574	0.270915
61819		9.329644	2.110802	-2.163889	-0.008482	-0.010550	-0.011519	-0.572998	-0.576904	-0.067871	0.563180	0.485108	-0.611718	0.270741
61820		9.321752	2.113628	-2.154222	-0.013399	-0.015496	-0.010799	-0.574951	-0.585938	-0.061523	0.563109	0.485065	-0.611820	0.270732
61821		9.331919	2.120940	-2.150469	-0.009412	-0.011737	-0.006852	-0.573975	-0.590088	-0.077393	0.562989	0.485078	-0.611910	0.270755
61822		9.354421	2.060686	-2.133885	-0.009880	-0.010345	-0.005589	-0.579834	-0.584473	-0.067383	0.563156	0.484767	-0.612110	0.270513
61823		9.359412	2.007470	-2.164936	-0.024195	-0.004469	0.002538	-0.581299	-0.592285	-0.067871	0.563219	0.484431	-0.612329	0.270487
61824		9.359506	1.977963	-2.157230	-0.027293	0.000219	0.004311	-0.577148	-0.589111	-0.069336	0.563382	0.484011	-0.612566	0.270366
61825		9.353417	2.026929	-2.166547	-0.015938	-0.007316	0.001622	-0.580811	-0.594482	-0.071045	0.563433	0.483745	-0.612766	0.270282
61826		9.332169	2.001629	-2.155978	-0.007928	-0.004695	-0.001532	-0.581299	-0.587646	-0.070312	0.563516	0.483477	-0.612952	0.270165
61827		9.345717	1.961699	-2.181790	-0.005525	-0.002656	-0.001179	-0.579346	-0.591309	-0.074219	0.563542	0.483251	-0.613096	0.270189
61828		9.353297	1.987299	-2.169224	0.007885	0.000280	-0.003363	-0.575928	-0.586426	-0.068604	0.563602	0.483062	-0.613182	0.270204
61829		9.358971	2.017187	-2.126121	0.014791	0.001277	-0.009749	-0.578857	-0.585205	-0.071289	0.563541	0.483124	-0.613116	0.270372
61830		9.320238	1.989135	-2.172070	0.010126	-0.001343	-0.007957	-0.574219	-0.586914	-0.068359	0.563509	0.483075	-0.613134	0.270487
61831		9.331630	2.043817	-2.188462	0.013006	-0.002309	-0.007393	-0.575928	-0.586670	-0.066406	0.563430	0.483133	-0.613101	0.270622
61832		9.335485	2.047108	-2.108547	0.012560	-0.001065	-0.003021	-0.576660	-0.588379	-0.074707	0.563316	0.483171	-0.613087	0.270824
61833		9.354262	2.059999	-2.138211	0.016603	-0.002335	-0.007020	-0.574219	-0.586670	-0.074707	0.563316	0.483104	-0.613113	0.270883
61834		9.335214	2.097150	-2.132486	0.018639	0.001228	-0.007644	-0.583496	-0.579346	-0.069336	0.563330	0.483070	-0.613081	0.270989
61835		9.344348	2.106882	-2.096353	0.006648	-0.002060	-0.008279	-0.578369	-0.577881	-0.075439	0.563246	0.483015	-0.613117	0.271180
61836		9.325958	2.073062	-2.084596	-0.008174	-0.007032	-0.002598	-0.580811	-0.586914	-0.070068	0.563291	0.482757	-0.613279	0.271177
61837		9.319403	2.027999	-2.177181	-0.004486	-0.008401	-0.006095	-0.578857	-0.583740	-0.076660	0.563286	0.482615	-0.613418	0.271129
61838		9.339066	2.036940	-2.175056	0.008551	-0.001571	-0.009927	-0.592773	-0.584473	-0.075195	0.563349	0.482474	-0.613467	0.271136
61839		9.361936	2.053720	-2.123371	0.012289	-0.000140	-0.007056	-0.578613	-0.590576	-0.071289	0.563341	0.482247	-0.613603	0.271250
61840		9.345448	2.062868	-2.101121	0.006803	-0.001480	-0.003490	-0.570068	-0.589844	-0.071045	0.563361	0.482124	-0.613674	0.271266
61841		9.317509	2.049643	-2.133592	-0.001810	-0.009627	-0.001049	-0.575439	-0.586670	-0.069336	0.563373	0.482028	-0.613779	0.271172
61842		9.282011	2.060627	-2.201196	0.001380	-0.007106	-0.007054	-0.581055	-0.587158	-0.070801	0.563347	0.481998	-0.613831	0.271164
61843		9.331092	2.049084	-2.191755	0.011665	-0.001677	-0.009924	-0.578613	-0.582275	-0.069336	0.563322	0.481969	-0.613846	0.271232
61844		9.351819	2.003330	-2.135638	0.013974	-0.001380	-0.005857	-0.573486	-0.581055	-0.068115	0.563224	0.481995	-0.613827	0.271433
61845		9.325524	2.033704	-2.157873	0.009917	-0.004675	-0.003637	-0.575439	-0.586426	-0.072754	0.563105	0.482055	-0.613808	0.271617
61846		9.338893	2.011035	-2.137134	0.007746	-0.006602	-0.005357	-0.573975	-0.590088	-0.071045	0.563092	0.481989	-0.613871	0.271617
61847		9.345893	2.037162	-2.126542	0.007142	-0.009025	-0.005926	-0.574219	-0.580566	-0.067627	0.563070	0.481960	-0.613938	0.271563
61848		9.347573	2.040252	-2.119617	0.012409	-0.006321	-0.006497	-0.575684	-0.579590	-0.067139	0.562928	0.482064	-0.613907	0.271742
61849		9.349373	2.092864	-2.134815	0.005776	-0.011357	-0.011706	-0.577148	-0.588135	-0.070557	0.562795	0.482172	-0.613911	0.271818
61850		9.326352	2.062119	-2.102876	0.003967	-0.006271	-0.012815	-0.578125	-0.579102	-0.070068	0.562815	0.482152	-0.613941	0.271745
61851		9.337634	2.010102	-2.146772	0.003056	-0.006730	-0.007327	-0.579102	-0.593506	-0.068848	0.562757	0.482111	-0.613993	0.271820
61852		9.357135	2.018459	-2.146001	0.001656	-0.014189	-0.003318	-0.577393	-0.587891	-0.071045	0.562703	0.482030	-0.614155	0.271709
61853		9.350018	2.037845	-2.152202	-0.003631	-0.016011	-0.005040	-0.587402	-0.584961	-0.067383	0.562676	0.481920	-0.614329	0.271566
61854		9.330846	2.064259	-2.156611	-0.006506	-0.014316	-0.004786	-0.575928	-0.588867	-0.069580	0.562593	0.481772	-0.614545	0.271515
61855		9.332208	2.068074	-2.150394	-0.003412	-0.013538	-0.007079	-0.581055	-0.587891	-0.071045	0.562582	0.481706	-0.614668	0.271375
61856		9.356834	2.021271	-2.117095	-0.008551	-0.010082	-0.005334	-0.584229	-0.587402	-0.073242	0.562627	0.481514	-0.614842	0.271228
61857		9.353962	1.942962	-2.161906	-0.015703	-0.011803	-0.001479	-0.579834	-0.582764	-0.069092	0.562709	0.481188	-0.615112	0.271025
61858		9.352861	1.956248	-2.219283	-0.005012	-0.015813	0.000892	-0.581299	-0.584961	-0.081543	0.562609	0.481064	-0.615308	0.271007
61859		9.348584	1.994448	-2.167988	0.002379	-0.009417	-0.002557	-0.584473	-0.581299	-0.079590	0.562706	0.480759	-0.615523	0.270859
61860		9.343551	2.027102	-2.156001	-0.002072	-0.011051	-0.004413	-0.582520	-0.585693	-0.073242	0.562766	0.480472	-0.615747	0.270735
61861		9.355886	1.999747	-2.175518	-0.001307	-0.008219	-0.011434	-0.589600	-0.591064	-0.072510	0.562815	0.480341	-0.615862	0.270604
61862		9.331507	1.907815	-2.200552	0.003256	-0.004981	-0.010190	-0.580078	-0.584717	-0.071777	0.562871	0.480149	-0.616014	0.270481
61863		9.369443	1.942119	-2.282707	0.014168	-0.009605	-0.010014	-0.583008	-0.586670	-0.067627	0.562789	0.480174	-0.616061	0.270501
61864		9.370718	1.991978	-2.172725	0.023969	-0.002775	-0.011646	-0.576904	-0.580566	-0.070801	0.562661	0.480292	-0.616016	0.270658
61865		9.348005	2.037573	-2.106388	0.006283	-0.004480	-0.007135	-0.571045	-0.582275	-0.073975	0.562625	0.480285	-0.616021	0.270735
61866		9.331129	2.049499	-2.148046	-0.004667	-0.013520	-0.012652	-0.583496	-0.582520	-0.072998	0.562671	0.480246	-0.616092	0.270547
61867		9.315591	2.009127	-2.198731	-0.004630	-0.009846	-0.008577	-0.585938	-0.585938	-0.073242	0.562694	0.480091	-0.616235	0.270450
61868		9.315254	2.000571	-2.208156	0.005350	-0.003484	-0.015513	-0.580566	-0.587646	-0.067383	0.562752	0.479994	-0.616295	0.270365
61869		9.374518	1.970547	-2.217118	0.010394	-0.000155	-0.013909	-0.580078	-0.585938	-0.065674	0.562746	0.480038	-0.616253	0.270395
61870		9.372003	1.957407	-2.172619	0.008828	-0.004055	-0.004449	-0.578857	-0.583496	-0.069092	0.562653	0.480057	-0.616273	0.270507
61871		9.338725	2.035081	-2.142141	0.009528	-0.004585	-0.006273	-0.588623	-0.588379	-0.072510	0.562589	0.480062	-0.616290	0.270594
61872		9.310550	2.040517	-2.126779	0.002158	-0.005129	-0.011789	-0.579346	-0.584229	-0.070068	0.562647	0.479894	-0.616420	0.270475
61873		9.342923	2.003992	-2.190335	-0.005028	-0.011268	-0.012810	-0.574707	-0.583008	-0.070068	0.562660	0.479844	-0.616508	0.270337
61874		9.356410	1.954983	-2.225452	0.009926	-0.005662	-0.013763	-0.581543	-0.588135	-0.071777	0.562629	0.479931	-0.616462	0.270352
61875		9.347909	1.998471	-2.214550	0.018790	-0.006036	-0.014142	-0.581299	-0.575928	-0.076660	0.562590	0.479966	-0.616475	0.270339
61876		9.357644	2.017033	-2.202483	0.021033	-0.002351	-0.016154	-0.573242	-0.594971	-0.061523	0.562544	0.480031	-0.616406	0.270477
61877		9.345164	2.013900	-2.147964	0.011945	-0.005907	-0.015366	-0.586670	-0.579590	-0.069580	0.562493	0.480200	-0.616348	0.270415
61878		9.328374	1.996741	-2.182345	0.008916	-0.006410	-0.018419	-0.578125	-0.583252	-0.077393	0.562428	0.480257	-0.616341	0.270465
61879		9.320143	2.011920	-2.226910	0.011975	-0.006780	-0.013072	-0.581787	-0.583984	-0.067139	0.562465	0.480199	-0.616384	0.270394
61880		9.361944	1.994892	-2.245266	0.014702	0.001541	-0.012948	-0.585693	-0.585693	-0.071289	0.562421	0.480268	-0.616311	0.270528
61881		9.349643	1.972366	-2.174836	0.013422	-0.002696	-0.011021	-0.577393	-0.586914	-0.069580	0.562403	0.480217	-0.616353	0.270563
61882		9.335453	2.003723	-2.159144	0.008513	-0.006050	-0.011747	-0.586670	-0.576172	-0.064453	0.562396	0.480224	-0.616372	0.270522
61883		9.342703	2.002505	-2.203112	0.005846	-0.001175	-0.012715	-0.587646	-0.579102	-0.073242	0.562284	0.480309	-0.616312	0.270739
61884		9.330580	2.000189	-2.210218	0.013514	-0.002554	-0.013266	-0.583740	-0.591309	-0.063965	0.562250	0.480273	-0.616331	0.270829
61885		9.345689	2.041495	-2.193904	0.021183	0.000619	-0.012045	-0.586670	-0.584717	-0.067871	0.562174	0.480362	-0.616283	0.270939
61886		9.348177	2.033146	-2.130948	0.006967	-0.002624	-0.009636	-0.578613	-0.580078	-0.069824	0.562147	0.480304	-0.616333	0.270986
61887		9.360306	2.017201	-2.141170	-0.004151	-0.003611	-0.007903	-0.578125	-0.579346	-0.068604	0.562178	0.480217	-0.616372	0.270985
61888		9.353670	1.989722	-2.185425	-0.002212	-0.007072	-0.007407	-0.586182	-0.590576	-0.068115	0.562149	0.480182	-0.616416	0.271007
61889		9.331221	2.006629	-2.174902	-0.000619	-0.009902	-0.005592	-0.583008	-0.573730	-0.075684	0.562143	0.480028	-0.616594	0.270890
61890		9.354123	2.025131	-2.186939	0.008285	-0.002339	-0.009418	-0.582275	-0.586182	-0.067383	0.562133	0.479955	-0.616612	0.270995
61891		9.335566	2.002905	-2.166732	0.010675	-0.000281	-0.009085	-0.584473	-0.580566	-0.072266	0.562114	0.479944	-0.616609	0.271063
61892		9.327863	2.015573	-2.147536	-0.001265	-0.004547	-0.007349	-0.587402	-0.580078	-0.063965	0.562143	0.479794	-0.616708	0.271041
61893		9.347832	1.976992	-2.185935	-0.000533	-0.005954	-0.006876	-0.592041	-0.580566	-0.068848	0.562049	0.479767	-0.616771	0.271140
61894		9.344180	1.921707	-2.213805	-0.000462	-0.003473	-0.009790	-0.583008	-0.574951	-0.059570	0.562041	0.479636	-0.616873	0.271159
61895		9.353590	1.989097	-2.223554	0.008626	-0.008239	-0.013327	-0.582031	-0.575195	-0.074219	0.561821	0.479863	-0.616796	0.271388
61896		9.355484	2.029857	-2.183713	0.018204	-0.002354	-0.011330	-0.581787	-0.580566	-0.067871	0.561766	0.479877	-0.616777	0.271521
61897		9.359785	2.017041	-2.151057	0.008893	0.002293	-0.006419	-0.583740	-0.578613	-0.075928	0.561745	0.479849	-0.616755	0.271663
61898		9.315369	1.993847	-2.145022	-0.002165	-0.011765	-0.006062	-0.584229	-0.579834	-0.063232	0.561762	0.479654	-0.616940	0.271551
61899		9.321799	2.003265	-2.182110	-0.015582	-0.010149	-0.005122	-0.584717	-0.580322	-0.062256	0.561727	0.479547	-0.617073	0.271510
61900		9.345887	1.981455	-2.257026	-0.010902	-0.006897	-0.003030	-0.582031	-0.584717	-0.066162	0.561674	0.479456	-0.617179	0.271542
61901		9.355962	1.980324	-2.228861	0.004120	-0.001086	-0.006269	-0.586182	-0.574463	-0.070068	0.561659	0.479420	-0.617194	0.271602
61902		9.363099	2.006109	-2.154483	0.009730	-0.002054	-0.008337	-0.586670	-0.577148	-0.069824	0.561598	0.479380	-0.617223	0.271733
61903		9.365659	1.960863	-2.123593	-0.000172	0.000164	-0.003982	-0.586670	-0.579590	-0.071533	0.561610	0.479220	-0.617304	0.271805
61904		9.348033	1.946125	-2.188818	-0.004777	-0.009393	-0.003248	-0.589355	-0.581543	-0.066895	0.561605	0.479025	-0.617487	0.271743
61905		9.344496	1.973761	-2.144524	0.002046	-0.007133	-0.002708	-0.591309	-0.577637	-0.076172	0.561529	0.478914	-0.617621	0.271791
61906		9.354499	1.991942	-2.194497	-0.003159	-0.005046	-0.005689	-0.589111	-0.580322	-0.064453	0.561596	0.478634	-0.617817	0.271702
61907		9.362690	1.977468	-2.183735	0.002810	-0.005175	-0.007450	-0.584961	-0.585693	-0.078857	0.561513	0.478610	-0.617876	0.271781
61908		9.335102	1.934666	-2.208199	0.002088	-0.002304	-0.006294	-0.580322	-0.587402	-0.067871	0.561651	0.478349	-0.618020	0.271629
61909		9.340177	1.947965	-2.214038	0.008671	-0.007633	-0.009410	-0.585693	-0.588135	-0.068115	0.561609	0.478377	-0.618048	0.271602
61910		9.366263	1.956886	-2.162171	0.012191	-0.001315	-0.011886	-0.582031	-0.577393	-0.077393	0.561606	0.478376	-0.618048	0.271609
61911		9.368150	1.960829	-2.153957	-0.000520	-0.004482	-0.005248	-0.578125	-0.579102	-0.076172	0.561680	0.478176	-0.618166	0.271540
61912		9.352127	1.959528	-2.202745	-0.006049	-0.009824	-0.000351	-0.583740	-0.575195	-0.071777	0.561729	0.477958	-0.618339	0.271429
61913		9.320911	1.991735	-2.204342	0.001767	-0.009293	-0.006890	-0.584961	-0.571045	-0.075928	0.561677	0.477897	-0.618428	0.271442
61914		9.361969	1.948626	-2.185262	0.003707	-0.002496	-0.010510	-0.589111	-0.572998	-0.070068	0.561700	0.477797	-0.618470	0.271472
61915		9.364564	1.941152	-2.184917	0.011428	-0.003264	-0.007149	-0.580322	-0.581055	-0.072754	0.561600	0.477784	-0.618499	0.271638
61916		9.345890	2.003208	-2.155033	0.007282	-0.005844	-0.004946	-0.585693	-0.582275	-0.070557	0.561588	0.477713	-0.618564	0.271639
61917		9.348492	1.995132	-2.155199	-0.001587	-0.006257	-0.005357	-0.579346	-0.580566	-0.076416	0.561603	0.477576	-0.618682	0.271582
61918		9.343304	1.944345	-2.215249	-0.006380	-0.007299	-0.005870	-0.583740	-0.582031	-0.071289	0.561705	0.477373	-0.618819	0.271414
61919		9.349735	1.915887	-2.222027	-0.000687	-0.009288	-0.002531	-0.585205	-0.569092	-0.072510	0.561690	0.477237	-0.618962	0.271358
61920		9.369803	1.960330	-2.188170	0.009800	-0.003796	-0.003752	-0.582031	-0.578613	-0.069580	0.561593	0.477206	-0.618992	0.271543
61921		9.362185	1.953431	-2.154427	0.007958	-0.003286	-0.006634	-0.578613	-0.576904	-0.070068	0.561552	0.477200	-0.619001	0.271621
61922		9.333851	1.940530	-2.186532	0.001383	-0.007778	-0.007869	-0.585205	-0.571045	-0.064941	0.561520	0.477197	-0.619031	0.271623
61923		9.337074	1.958556	-2.224948	-0.004510	-0.010152	-0.002315	-0.581055	-0.577637	-0.063232	0.561389	0.477176	-0.619116	0.271736
61924		9.345234	1.906278	-2.184964	-0.005379	-0.008732	-0.003657	-0.591309	-0.579834	-0.065674	0.561304	0.477181	-0.619166	0.271791
61925		9.359527	1.892894	-2.249521	0.001388	-0.007043	-0.007057	-0.585693	-0.581299	-0.064697	0.561232	0.477131	-0.619257	0.271819
61926		9.346243	1.948763	-2.209570	0.014639	-0.006994	-0.010380	-0.584961	-0.572510	-0.061768	0.561096	0.477253	-0.619238	0.271930
61927		9.354530	1.971180	-2.167293	0.006121	-0.007307	-0.011291	-0.586426	-0.577881	-0.067383	0.560944	0.477385	-0.619211	0.272073
61928		9.352134	1.996480	-2.153550	0.008107	-0.005198	-0.013573	-0.589111	-0.573486	-0.067871	0.560890	0.477433	-0.619208	0.272107
61929		9.343391	1.937620	-2.200077	-0.001471	-0.006561	-0.013775	-0.587646	-0.576172	-0.065918	0.560870	0.477392	-0.619271	0.272074
61930		9.321060	1.908058	-2.229584	-0.004165	-0.009607	-0.011294	-0.580078	-0.574463	-0.069092	0.560826	0.477363	-0.619354	0.272028
61931		9.342843	1.901941	-2.204231	0.000857	-0.006974	-0.010535	-0.584717	-0.580811	-0.072998	0.560803	0.477369	-0.619372	0.272025
61932		9.350703	1.925952	-2.224101	0.013101	-0.005475	-0.016077	-0.587891	-0.576904	-0.072266	0.560798	0.477406	-0.619363	0.271991
61933		9.367090	1.963421	-2.176522	0.014045	-0.002218	-0.015212	-0.590332	-0.573975	-0.068848	0.560786	0.477413	-0.619357	0.272015
61934		9.366249	1.947713	-2.162753	-0.001817	-0.005931	-0.012454	-0.587402	-0.574219	-0.069580	0.560783	0.477330	-0.619444	0.271971
61935		9.352056	1.950928	-2.202281	-0.005168	-0.008172	-0.013503	-0.588135	-0.580811	-0.063965	0.560796	0.477254	-0.619533	0.271874
61936		9.325598	1.905415	-2.257499	-0.002646	-0.005392	-0.011496	-0.581787	-0.579834	-0.071533	0.560773	0.477248	-0.619565	0.271858
61937		9.362812	1.902449	-2.246889	0.011448	-0.003657	-0.013350	-0.579590	-0.572266	-0.066162	0.560766	0.477291	-0.619534	0.271870
61938		9.345490	1.943052	-2.169732	0.008855	-0.002476	-0.017517	-0.581543	-0.578857	-0.063965	0.560717	0.477436	-0.619429	0.271954
61939		9.324106	1.939097	-2.174395	0.001271	-0.009640	-0.016547	-0.587158	-0.580811	-0.065430	0.560654	0.477561	-0.619401	0.271929
61940		9.345901	1.941797	-2.234749	0.007035	-0.007669	-0.014507	-0.590088	-0.585449	-0.065430	0.560583	0.477636	-0.619404	0.271934
61941		9.363667	1.901645	-2.219993	0.013869	0.000176	-0.016768	-0.584961	-0.581543	-0.066650	0.560554	0.477730	-0.619332	0.271995
61942		9.356549	1.941130	-2.176375	0.011256	-0.004197	-0.018157	-0.582275	-0.583496	-0.064453	0.560516	0.477849	-0.619267	0.272013
61943		9.338102	1.965526	-2.209656	0.009664	-0.005179	-0.020927	-0.583496	-0.576904	-0.070801	0.560475	0.478034	-0.619160	0.272015
61944		9.325551	1.964822	-2.216966	0.008319	-0.001661	-0.020190	-0.587891	-0.574463	-0.068359	0.560511	0.478083	-0.619104	0.271984
61945		9.346470	1.935105	-2.215169	0.006089	-0.001553	-0.017199	-0.584961	-0.579346	-0.063721	0.560519	0.478080	-0.619100	0.271981
61946		9.359188	1.909565	-2.233286	0.006477	-0.003786	-0.017034	-0.579102	-0.575684	-0.068115	0.560475	0.478183	-0.619047	0.272011
61947		9.337076	1.935469	-2.244397	0.007627	-0.000405	-0.017550	-0.585205	-0.566162	-0.067627	0.560489	0.478267	-0.618955	0.272044
61948		9.345911	2.003604	-2.191507	0.014938	-0.003995	-0.020071	-0.590332	-0.586670	-0.073242	0.560411	0.478359	-0.618926	0.272107
61949		9.345240	1.970483	-2.162236	0.011618	0.002226	-0.020643	-0.583008	-0.577881	-0.068359	0.560503	0.478352	-0.618875	0.272045
61950		9.326236	1.951249	-2.204053	-0.002260	-0.004990	-0.017368	-0.584717	-0.575684	-0.080322	0.560547	0.478347	-0.618880	0.271954
61951		9.353316	1.940639	-2.229859	0.003712	-0.003607	-0.017525	-0.578613	-0.580566	-0.071045	0.560674	0.478204	-0.618950	0.271784
61952		9.339673	1.943466	-2.206018	0.008113	0.000434	-0.016380	-0.588379	-0.576416	-0.070801	0.560727	0.478251	-0.618865	0.271784
61953		9.333804	1.979049	-2.192677	0.010378	-0.002730	-0.019513	-0.588379	-0.580322	-0.078613	0.560733	0.478268	-0.618859	0.271759
61954		9.343452	1.981100	-2.164780	0.006648	-0.002021	-0.019910	-0.590576	-0.581543	-0.067627	0.560854	0.478161	-0.618901	0.271600
61955		9.338871	1.976109	-2.214400	-0.002116	-0.003543	-0.014873	-0.588867	-0.576416	-0.063721	0.560892	0.478091	-0.618956	0.271519
61956		9.360634	1.953344	-2.235182	-0.000361	-0.001542	-0.015787	-0.587891	-0.574463	-0.067139	0.560885	0.478099	-0.618950	0.271534
61957		9.349009	1.914552	-2.211591	0.002321	-0.002567	-0.013868	-0.586182	-0.580322	-0.068848	0.560875	0.478073	-0.618974	0.271546
61958		9.350367	1.938324	-2.218615	0.001447	-0.005978	-0.011610	-0.585449	-0.572266	-0.077637	0.560872	0.478030	-0.619029	0.271503
61959		9.344993	1.980299	-2.228733	0.005080	-0.004177	-0.015012	-0.585693	-0.584229	-0.071289	0.560935	0.477910	-0.619107	0.271405
61960		9.336011	2.005975	-2.202047	0.009333	-0.001570	-0.016368	-0.589600	-0.576416	-0.066406	0.560971	0.477918	-0.619085	0.271368
61961		9.317346	2.003824	-2.196956	0.004243	-0.005102	-0.015680	-0.583496	-0.580811	-0.071289	0.560931	0.477933	-0.619109	0.271368
61962		9.323870	1.977196	-2.203380	-0.000785	-0.007339	-0.010244	-0.583252	-0.576904	-0.072266	0.560953	0.477855	-0.619187	0.271282
61963		9.330955	1.931040	-2.194610	-0.002172	-0.005591	-0.005767	-0.589355	-0.572510	-0.066406	0.560978	0.477715	-0.619293	0.271234
61964		9.401679	1.872431	-2.199263	0.014709	0.004095	0.001792	-0.585938	-0.573975	-0.069092	0.560874	0.477643	-0.619320	0.271515
61965		9.383982	1.857337	-2.170111	0.029304	0.005571	0.008759	-0.587402	-0.585449	-0.071533	0.560707	0.477600	-0.619323	0.271928
61966		9.344723	1.878820	-2.230110	0.006823	-0.007657	0.042426	-0.591309	-0.575439	-0.071777	0.560520	0.477144	-0.619710	0.272232
61967		9.308338	1.938837	-2.339130	-0.026383	-0.049588	0.091332	-0.591309	-0.583008	-0.067139	0.560009	0.476189	-0.620828	0.272408
61968		9.309338	2.003368	-2.185273	-0.044423	-0.064977	0.131181	-0.587158	-0.578857	-0.068848	0.559338	0.474923	-0.622300	0.272639
61969		9.331337	1.777485	-2.069356	-0.078990	-0.060812	0.170666	-0.593994	-0.572998	-0.066162	0.558784	0.473108	-0.624064	0.272898
61970		9.393918	1.697232	-1.992885	-0.135277	-0.251695	0.176911	-0.586426	-0.565918	-0.066895	0.557002	0.471511	-0.627390	0.271676
61971		9.538379	1.526485	-2.457525	-0.129781	-0.275177	0.215393	-0.595947	-0.564941	-0.059326	0.554880	0.469766	-0.631020	0.270634
61972		9.307577	1.396226	-2.304864	-0.102541	-0.173320	0.259327	-0.597412	-0.562256	-0.052490	0.553193	0.467540	-0.634099	0.270743
61973		9.372109	1.184715	-2.977982	0.040144	-0.173054	0.311302	-0.605957	-0.555664	-0.056152	0.550439	0.465978	-0.636930	0.272401
61974		9.555171	0.355350	-2.810669	0.156282	-0.182895	0.396545	-0.611328	-0.545410	-0.052246	0.546682	0.464431	-0.639988	0.275422
61975		9.639256	-0.203826	-2.604061	0.187540	-0.202636	0.489401	-0.624268	-0.537109	-0.044922	0.542241	0.462383	-0.643601	0.279205
61976		9.349098	-0.574059	-2.913874	0.205671	-0.237655	0.643744	-0.628906	-0.529541	-0.044922	0.536819	0.459276	-0.648273	0.283961
61977		9.035573	-1.529305	-2.982128	0.314450	-0.182953	0.773714	-0.633789	-0.514160	-0.032227	0.530765	0.455573	-0.652864	0.290706
61978		8.374779	-2.897958	-3.450725	0.464143	-0.128236	0.936209	-0.646484	-0.490479	-0.017090	0.523571	0.451377	-0.657323	0.300098
61979		8.117099	-2.494755	-2.520447	0.563334	0.490915	1.052193	-0.658203	-0.483887	-0.040771	0.520259	0.444491	-0.657883	0.314559
61980		7.677726	-2.348494	-1.941561	0.066082	0.633801	1.181130	-0.669678	-0.470215	-0.040039	0.520478	0.432409	-0.660045	0.326291
61981		7.721580	-3.327763	-1.707000	-0.281272	0.429443	1.338267	-0.686035	-0.441162	-0.044678	0.519986	0.417659	-0.665513	0.335064
61982		7.651941	-3.601656	-1.437340	0.128098	0.387109	1.544709	-0.695068	-0.415283	-0.049805	0.515874	0.403901	-0.670399	0.348286
61983		7.324420	1.654278	-1.357493	0.690456	0.268344	1.420183	-0.713379	-0.386230	-0.050781	0.508247	0.395233	-0.672658	0.364701
61984		7.890423	4.430958	-2.111246	-0.079428	-0.163202	1.047394	-0.701904	-0.366455	-0.040039	0.502376	0.386542	-0.679199	0.369990
61985		9.953064	-2.241156	-5.538279	-0.214634	-0.273199	0.833116	-0.717773	-0.356445	-0.032959	0.497038	0.379518	-0.685816	0.372257
61986		11.623151	-1.657277	-2.715992	0.847858	-0.122592	0.706166	-0.714111	-0.341553	-0.029541	0.488444	0.379411	-0.685889	0.383440
61987		13.705252	3.890433	-0.853355	1.032556	0.006572	0.239191	-0.720947	-0.338379	-0.017090	0.482320	0.383627	-0.681960	0.393864
61988		17.958200	6.999628	-1.140274	-0.015970	0.047847	-0.249686	-0.717041	-0.339355	-0.026367	0.483959	0.385360	-0.680594	0.392521
61989		22.974240	4.474381	-3.107958	-0.671193	0.016816	-0.567603	-0.720703	-0.345215	-0.024902	0.490088	0.385866	-0.681069	0.383491
61990		23.373106	5.756373	-3.350522	-0.349299	0.200025	-1.387400	-0.707031	-0.379639	-0.041992	0.500033	0.394346	-0.674808	0.372951
61991		21.538094	0.587104	-4.429104	-0.479589	0.052905	-1.569373	-0.697510	-0.408203	-0.032959	0.510066	0.404111	-0.668887	0.359328
61992		16.425262	-2.558409	-3.199864	-0.256605	0.141661	-1.494791	-0.682129	-0.434570	-0.041504	0.519164	0.414119	-0.661550	0.348318
61993		8.026505	-1.526622	-1.411727	0.171237	0.103004	-1.286031	-0.668701	-0.458008	-0.041260	0.524665	0.425215	-0.653464	0.341911
61994		2.462413	-0.665280	-1.004128	-0.036647	-0.117263	-1.004857	-0.667236	-0.474854	-0.023682	0.528161	0.433505	-0.649066	0.334415
61995		-0.704895	-3.062938	-1.815808	-1.268241	-0.242598	-0.565416	-0.652100	-0.488770	-0.028564	0.535340	0.430513	-0.652903	0.319041
61996		0.231499	-6.956671	-1.956412	-0.504498	-0.280264	-0.300509	-0.659912	-0.488770	-0.019775	0.536949	0.430544	-0.655240	0.311414
61997		0.994864	-3.904208	-1.440975	0.832747	-0.192755	-0.174313	-0.658691	-0.504883	-0.016602	0.531541	0.438128	-0.652390	0.316062
61998		0.297606	0.458998	-0.694695	0.984980	0.237232	-0.231283	-0.651855	-0.501953	-0.015625	0.528956	0.445428	-0.645671	0.323896
61999		0.014817	0.208954	0.973092	0.335534	0.428424	-0.131750	-0.655273	-0.503174	-0.013428	0.531071	0.446807	-0.640803	0.328173
62000		0.491686	-1.143048	1.467093	-0.347472	0.232992	0.170632	-0.645508	-0.485107	-0.027100	0.534173	0.442015	-0.641695	0.327885
62001		0.194874	-2.152329	0.751513	-0.628820	0.040782	0.479981	-0.656494	-0.495605	-0.040771	0.535984	0.433625	-0.646681	0.326335
62002		0.059568	-2.670689	-0.188375	-0.340812	0.135761	0.597896	-0.655762	-0.473877	-0.048828	0.536471	0.425786	-0.650431	0.328397
62003		4.490163	-8.028131	-4.095537	-0.848981	-0.133739	1.140864	-0.671387	-0.454102	-0.060059	0.535132	0.411147	-0.660829	0.328477
62004		17.787005	-6.211089	-5.641556	0.541207	0.137180	1.612047	-0.686523	-0.422363	-0.058838	0.526736	0.400638	-0.665872	0.344461
62005		28.585628	6.503984	-6.960145	0.690015	-0.123110	1.510354	-0.688477	-0.398926	-0.060059	0.515625	0.392894	-0.671176	0.359566
62006		34.293196	12.561269	-3.132561	-0.156331	0.010849	0.907354	-0.705322	-0.385254	-0.057129	0.512363	0.384042	-0.676267	0.364224
62007		32.346953	14.783344	-4.799124	-1.272409	-0.015407	-0.273762	-0.706543	-0.385254	-0.064941	0.519519	0.378069	-0.680811	0.351653
62008		26.172017	0.455800	-7.478254	-0.303881	0.194706	-1.579451	-0.685791	-0.409668	-0.070068	0.529459	0.388439	-0.673359	0.339672
62009		15.589190	-2.625355	-3.201268	0.771534	0.159906	-1.772804	-0.671875	-0.447510	-0.061035	0.534445	0.407505	-0.660312	0.335107
62010		6.423671	0.482082	-2.094470	0.443030	0.112760	-1.431518	-0.664551	-0.481445	-0.054688	0.539033	0.421572	-0.650393	0.329712
62011		-1.712817	-5.987199	-0.497018	-0.601629	-0.041353	-0.745610	-0.663086	-0.485107	-0.056152	0.544911	0.423557	-0.649282	0.319538
62012		0.647869	-13.444983	-2.755322	-0.314152	-0.521764	-0.264969	-0.660645	-0.487793	-0.043457	0.543382	0.425468	-0.652777	0.312403
62013		1.140304	-3.569221	-2.198894	1.414499	-0.005915	-0.542182	-0.662354	-0.502441	-0.023682	0.537827	0.439278	-0.644407	0.320184
62014		-0.440931	2.249817	1.483432	1.394446	0.396237	-0.603452	-0.648193	-0.518555	-0.015137	0.535670	0.451676	-0.632832	0.329500
62015		0.200443	1.615259	0.787013	0.695681	0.122318	-0.312147	-0.654053	-0.519043	-0.003174	0.533973	0.458119	-0.627448	0.333629
62016		0.371720	-0.504113	1.283815	0.142588	0.100922	-0.066597	-0.640625	-0.520752	-0.010010	0.534227	0.459013	-0.625886	0.334926
62017		0.216960	-1.609263	1.630022	-0.185331	0.092052	0.156223	-0.637451	-0.519287	-0.020996	0.535357	0.456008	-0.627022	0.335101
62018		0.185990	-0.943591	1.348055	-0.129132	0.074894	0.343019	-0.649658	-0.511475	-0.027100	0.535240	0.451983	-0.629081	0.336877
62019		0.126461	-0.349606	-0.424406	0.086428	0.281238	0.456895	-0.650391	-0.504150	-0.041504	0.535029	0.447622	-0.629465	0.342275
62020		0.859092	0.416586	1.623613	-0.011469	0.446982	0.592487	-0.649414	-0.493164	-0.048828	0.536053	0.440799	-0.629874	0.348716
62021		7.742001	2.325035	2.375483	-1.355998	-0.262051	0.944461	-0.659912	-0.463379	-0.067139	0.537226	0.425174	-0.642658	0.342938
62022		21.363271	-2.350156	-10.439231	-0.599129	-0.105626	0.837897	-0.666504	-0.449463	-0.079102	0.535927	0.414690	-0.650367	0.343274
62023		30.019433	-2.877146	-11.597769	0.270993	-0.199583	0.675079	-0.680908	-0.437988	-0.079346	0.529982	0.411700	-0.654058	0.349043
62024		38.965408	4.438274	-5.885064	0.735375	0.017556	0.136402	-0.675049	-0.437012	-0.070801	0.525724	0.415198	-0.651466	0.356113
62025		35.174923	14.980977	-0.983495	-1.063298	-0.009156	-0.116944	-0.678223	-0.434570	-0.076660	0.531644	0.409008	-0.655653	0.346679
62026		27.776508	2.561908	-5.583084	-1.144906	0.232349	-1.158779	-0.661133	-0.450928	-0.089111	0.544320	0.409647	-0.653071	0.330762
62027		14.519209	-4.851303	-2.846569	0.122449	0.263640	-1.558677	-0.649902	-0.483887	-0.092773	0.552197	0.421876	-0.642734	0.322478
62028		2.780472	-3.868940	-4.608637	0.127259	-0.150115	-1.152089	-0.648926	-0.496582	-0.076172	0.554917	0.432416	-0.637182	0.314774
62029		0.826584	-9.055371	-3.513336	-0.059786	-0.077465	-0.063838	-0.638916	-0.503662	-0.063721	0.554875	0.432642	-0.637719	0.313448
62030		2.029846	-8.463523	0.327682	1.657430	0.143286	0.544394	-0.650879	-0.500488	-0.037109	0.544781	0.438966	-0.633146	0.331132
62031		1.373203	6.999212	2.102426	1.102019	0.062331	0.036221	-0.656738	-0.507324	-0.021240	0.539005	0.445723	-0.628424	0.340424
62032		-0.237893	8.048956	3.013551	-0.102647	-0.092308	0.087123	-0.668701	-0.502930	-0.016602	0.538465	0.444584	-0.630076	0.339713
62033		0.040105	0.458797	0.457020	-0.831335	-0.351147	0.207334	-0.665527	-0.495117	-0.019531	0.539402	0.438664	-0.637161	0.332635
62034		0.198761	-2.345505	-0.228578	-0.873859	-0.168870	0.089506	-0.666992	-0.492676	-0.023926	0.542447	0.432580	-0.642454	0.325390
62035		-0.091893	-1.840671	-0.633375	-0.501872	-0.132941	0.078703	-0.675781	-0.493652	-0.034424	0.543767	0.428922	-0.645874	0.321232
62036		-0.343076	-1.902312	-1.145921	-0.159160	-0.092743	0.175148	-0.672607	-0.494385	-0.031982	0.543171	0.426641	-0.648144	0.320705
62037		0.183921	-2.213983	-1.377584	-0.007553	0.044003	0.280814	-0.671143	-0.482910	-0.052979	0.542443	0.423978	-0.649437	0.322848
62038		0.330305	-3.510126	-0.304644	0.162071	0.246088	0.543718	-0.667725	-0.469238	-0.063232	0.541374	0.419498	-0.650044	0.329210
62039		3.010684	-4.008160	0.158349	-0.083289	0.339829	0.933967	-0.678223	-0.456787	-0.078125	0.540685	0.409755	-0.652996	0.336684
62040		13.553308	-3.460443	-5.474606	-0.276954	-0.038569	1.254161	-0.675049	-0.422363	-0.076416	0.536437	0.397599	-0.660812	0.342750
62041		14.893562	14.725798	-0.814709	0.047193	-0.092462	0.731447	-0.682861	-0.412354	-0.089844	0.532274	0.392091	-0.664896	0.347653
62042		22.202631	-0.302438	-8.321571	-1.248577	-0.328937	0.757955	-0.695312	-0.398438	-0.098389	0.532273	0.378685	-0.676165	0.340711
62043		32.248462	-32.497684	-11.793734	1.062102	-0.154539	1.139997	-0.708496	-0.377686	-0.079102	0.520986	0.376534	-0.678007	0.356514
62044		17.121132	28.455474	4.304770	3.043367	0.502546	0.174761	-0.701904	-0.380127	-0.064453	0.509740	0.392176	-0.661557	0.385623
62045		12.842867	20.267384	-2.335910	-1.729107	-0.392801	-0.352406	-0.706299	-0.386475	-0.075439	0.516535	0.385705	-0.670563	0.367109
62046		13.003554	-12.018655	-7.828240	-1.536192	-0.238129	-0.607780	-0.706787	-0.386475	-0.086670	0.524633	0.381723	-0.676160	0.349078
62047		9.846139	-4.085048	-1.587126	1.696457	0.095806	-1.197382	-0.691650	-0.413330	-0.070068	0.522403	0.402243	-0.662288	0.355907
62048		8.692878	7.616167	1.373260	0.987618	-0.005389	-1.311907	-0.674805	-0.438477	-0.063965	0.523123	0.419322	-0.651294	0.355426
62049		8.475354	0.476959	1.291136	-0.610453	0.066734	-0.908567	-0.671631	-0.454102	-0.075439	0.530864	0.422229	-0.648836	0.344845
62050		7.606787	-4.593388	-1.692065	-0.749022	-0.049082	-0.479017	-0.664795	-0.451172	-0.081543	0.536462	0.421170	-0.649900	0.335342
62051		7.593121	-6.122358	-4.039741	-0.518855	-0.108075	-0.183695	-0.668701	-0.452393	-0.085938	0.539080	0.419466	-0.651893	0.329357
62052		8.792778	-6.189908	-3.496717	0.338155	-0.049825	-0.001310	-0.658691	-0.458008	-0.080322	0.536906	0.421794	-0.650905	0.331881
62053		9.780375	-2.451779	-2.686090	1.051926	0.001554	0.153559	-0.675049	-0.455811	-0.072754	0.530691	0.427398	-0.647364	0.341494
62054		9.740950	2.071446	-1.281125	0.959310	-0.088869	0.109757	-0.670410	-0.459961	-0.053955	0.524339	0.433058	-0.644479	0.349537
62055		9.986453	2.698638	-1.084550	0.409857	-0.163181	-0.154240	-0.673828	-0.457275	-0.054199	0.521470	0.437532	-0.642998	0.350982
62056		9.727335	2.343933	-1.052456	-0.162769	0.003753	-0.348087	-0.669434	-0.466309	-0.052734	0.523913	0.439088	-0.641858	0.347471
62057		8.981735	1.043806	0.534141	-0.188637	-0.187465	-0.503197	-0.666260	-0.471436	-0.052490	0.525619	0.442536	-0.641208	0.341671
62058		9.561849	2.017533	-0.409715	-0.311588	-0.301217	-0.488715	-0.662842	-0.481934	-0.056152	0.527002	0.445523	-0.641866	0.334344
62059		8.990576	2.182324	-1.244656	-0.470067	-0.154704	-0.513647	-0.652100	-0.490723	-0.056152	0.530513	0.447026	-0.642027	0.326382
62060		9.997102	-0.162959	-0.805372	-0.794209	-0.114040	-0.512993	-0.646484	-0.496582	-0.059326	0.536100	0.446160	-0.643176	0.316010
62061		9.387038	-2.622288	-2.684704	-0.629529	-0.258200	-0.476743	-0.644287	-0.502930	-0.065918	0.539401	0.446621	-0.644760	0.306367
62062		8.832556	-1.950437	-4.841192	-0.183938	-0.263439	-0.467808	-0.631592	-0.512451	-0.066650	0.540094	0.450000	-0.644669	0.300332
62063		8.827398	0.019120	-3.860808	0.027784	-0.096818	-0.491487	-0.630371	-0.520996	-0.065186	0.541005	0.454353	-0.642502	0.296763
62064		9.448440	0.587856	-2.120356	0.061615	-0.012433	-0.587811	-0.621094	-0.527832	-0.062744	0.542733	0.459371	-0.639069	0.293274
62065		9.749293	1.374031	-2.010552	-0.001023	0.072976	-0.732813	-0.612305	-0.538818	-0.064209	0.545997	0.464779	-0.634411	0.288773
62066		9.395424	1.515812	-2.472945	-0.263992	0.179225	-0.833578	-0.607910	-0.547607	-0.070312	0.551941	0.468760	-0.629326	0.282089
62067		9.611426	1.633570	-1.540478	-0.317478	0.213519	-0.559380	-0.597168	-0.570068	-0.086914	0.557447	0.470046	-0.625743	0.277048
62068		10.124182	1.887789	-2.400838	-0.495004	-0.337656	-0.392274	-0.593262	-0.566406	-0.081787	0.559070	0.470667	-0.627538	0.268532
62069		9.165633	1.152339	-4.034238	-0.137375	-0.201992	-0.287797	-0.592529	-0.575195	-0.081055	0.559270	0.472486	-0.627776	0.264331
62070		8.937311	0.742993	-4.471386	0.123798	-0.005978	-0.272320	-0.588623	-0.569824	-0.086182	0.559405	0.475353	-0.625866	0.263435
62071		9.392639	0.518096	-2.541688	0.259361	0.114279	-0.225329	-0.581787	-0.580078	-0.069336	0.559511	0.478389	-0.622947	0.264630
62072		9.737218	1.212447	-1.455081	0.197553	0.093679	-0.161701	-0.583740	-0.593018	-0.080322	0.559601	0.480567	-0.620745	0.265664
62073		9.459296	2.384006	-1.817617	0.024999	-0.023816	-0.110001	-0.580078	-0.589111	-0.073242	0.559648	0.481522	-0.620238	0.265021
62074		9.030301	2.899513	-2.640324	-0.125434	-0.048017	-0.050379	-0.579834	-0.583740	-0.078613	0.560210	0.481044	-0.620756	0.263484
62075		8.971786	2.767423	-2.837146	-0.159292	-0.050971	-0.019686	-0.579102	-0.586914	-0.072998	0.560852	0.480093	-0.621593	0.261875
62076		9.185006	2.200428	-2.476431	-0.009685	0.008411	-0.053441	-0.579590	-0.589355	-0.074463	0.561163	0.480262	-0.621320	0.261545
62077		9.423969	1.820799	-1.924521	0.106306	0.083624	-0.082586	-0.572510	-0.584473	-0.078857	0.561457	0.481223	-0.619965	0.262361
62078		9.397302	2.028090	-2.262358	0.066064	0.050696	-0.088821	-0.567139	-0.587158	-0.078369	0.561759	0.482054	-0.618934	0.262623
62079		9.231926	2.401504	-2.542709	0.027936	0.012716	-0.073786	-0.569580	-0.587646	-0.074219	0.561948	0.482628	-0.618382	0.262467
62080		9.234225	2.416682	-2.260530	-0.004976	0.006989	-0.028609	-0.578613	-0.588135	-0.075195	0.562139	0.482641	-0.618252	0.262340
62081		9.233333	2.155841	-2.229267	-0.039914	-0.021439	0.012653	-0.579590	-0.589355	-0.082031	0.562186	0.482178	-0.618690	0.262058
62082		9.305606	2.086313	-2.401323	-0.040924	-0.030104	0.001220	-0.576172	-0.585938	-0.078613	0.562212	0.481820	-0.619125	0.261632
62083		9.290539	2.200741	-2.417454	-0.009422	0.018235	-0.028662	-0.576172	-0.583496	-0.077881	0.562519	0.481759	-0.618935	0.261533
62084		9.263819	2.453945	-2.296997	0.043628	0.017240	-0.056621	-0.582031	-0.579834	-0.073486	0.562588	0.482291	-0.618412	0.261641
62085		9.268837	2.344850	-2.189687	0.050098	0.028612	-0.061128	-0.577637	-0.590088	-0.072021	0.562717	0.482864	-0.617765	0.261837
62086		9.317108	2.129246	-2.249951	-0.021354	0.024038	-0.034625	-0.567871	-0.592041	-0.072266	0.563155	0.482754	-0.617534	0.261645
62087		9.308899	2.101985	-2.506601	-0.027009	0.000188	-0.015025	-0.569580	-0.585938	-0.078613	0.563380	0.482537	-0.617599	0.261406
62088		9.269904	2.197748	-2.426216	0.033571	0.014522	-0.013116	-0.573486	-0.589844	-0.083984	0.563347	0.482673	-0.617388	0.261723
62089		9.309343	2.291528	-2.019824	0.025699	0.024446	-0.008048	-0.575195	-0.588135	-0.075928	0.563427	0.482675	-0.617168	0.262068
62090		9.333245	2.243867	-1.914809	-0.015738	0.006904	-0.003218	-0.571289	-0.596191	-0.077148	0.563597	0.482413	-0.617231	0.262032
62091		9.307850	2.309037	-2.123266	-0.071187	-0.015956	0.002583	-0.581055	-0.601318	-0.083252	0.563909	0.481800	-0.617661	0.261476
62092		9.226930	2.293597	-2.355009	-0.099475	-0.000496	0.007099	-0.574463	-0.585449	-0.081543	0.564498	0.480893	-0.618107	0.260819
62093		9.301241	2.207998	-2.302077	-0.060435	0.015140	-0.001142	-0.568604	-0.587891	-0.077881	0.564997	0.480269	-0.618273	0.260498
62094		9.398813	2.031018	-2.072067	-0.029961	0.028914	-0.014972	-0.575928	-0.592041	-0.077881	0.565460	0.479936	-0.618146	0.260408
62095		9.446621	1.975789	-2.028838	-0.013856	0.030171	-0.016270	-0.580078	-0.587646	-0.084473	0.565839	0.479722	-0.617951	0.260443
62096		9.308974	2.063141	-2.279566	-0.044459	0.014050	-0.012056	-0.574707	-0.579834	-0.090576	0.566267	0.479295	-0.618008	0.260162
62097		9.241732	2.134059	-2.358881	-0.012802	0.009224	-0.021811	-0.578613	-0.589111	-0.083252	0.566507	0.479170	-0.617946	0.260016
62098		9.279868	2.203812	-2.184050	0.021683	0.028479	-0.022913	-0.572754	-0.588623	-0.086182	0.566682	0.479256	-0.617615	0.260262
62099		9.318429	2.155367	-2.069577	0.026982	0.033030	-0.023323	-0.574707	-0.591309	-0.093506	0.566867	0.479367	-0.617230	0.260569
62100		9.292278	2.185805	-2.168381	0.033669	0.030661	-0.029473	-0.569580	-0.578613	-0.082031	0.567022	0.479568	-0.616810	0.260857
62101		9.273572	2.295986	-2.134378	0.026791	0.030939	-0.036061	-0.575195	-0.583252	-0.084961	0.567227	0.479782	-0.616366	0.261065
62102		9.323431	2.312216	-2.072788	0.040263	0.023506	-0.033751	-0.573975	-0.583252	-0.089600	0.567289	0.480092	-0.615951	0.261343
62103		9.353597	2.286130	-2.078736	0.006122	0.021097	-0.020224	-0.572998	-0.592041	-0.088379	0.567499	0.480054	-0.615751	0.261428
62104		9.313892	2.151466	-2.087005	-0.015984	0.024767	-0.013673	-0.571533	-0.587646	-0.082520	0.567848	0.479811	-0.615621	0.261422
62105		9.273347	2.162498	-2.125117	0.020404	0.023402	-0.020408	-0.575684	-0.585938	-0.091064	0.567981	0.479894	-0.615335	0.261654
62106		9.251649	2.192339	-2.092011	0.034451	0.021185	-0.013355	-0.580566	-0.584229	-0.088623	0.567999	0.480003	-0.615082	0.262006
62107		9.353952	2.244325	-2.119521	0.024342	0.015483	-0.004937	-0.571533	-0.599365	-0.085205	0.568002	0.479993	-0.614959	0.262310
62108		9.349105	2.296316	-2.046264	-0.004072	0.013457	0.002723	-0.573486	-0.590332	-0.085449	0.568134	0.479766	-0.614949	0.262461
62109		9.291055	2.254189	-2.006292	-0.016476	0.005311	0.004597	-0.579102	-0.587891	-0.090820	0.568270	0.479451	-0.615063	0.262475
62110		9.304799	2.223599	-2.030703	-0.016406	0.002483	0.001315	-0.583008	-0.577393	-0.086426	0.568401	0.479149	-0.615197	0.262431
62111		9.313713	2.181004	-2.051075	-0.013339	0.001642	0.002732	-0.569336	-0.584229	-0.090576	0.568490	0.478855	-0.615348	0.262419
62112		9.348590	2.122771	-2.168444	-0.009354	0.000097	0.006325	-0.572754	-0.583252	-0.086914	0.568546	0.478583	-0.615492	0.262457
62113		9.346413	2.204394	-2.117538	-0.003479	-0.002233	0.006585	-0.582520	-0.586182	-0.084961	0.568538	0.478365	-0.615634	0.262537
62114		9.310852	2.172091	-2.005813	-0.017617	-0.001952	0.014060	-0.575195	-0.585938	-0.090820	0.568587	0.477987	-0.615870	0.262568
62115		9.310556	2.102364	-2.019130	-0.034589	-0.016212	0.019064	-0.574463	-0.588867	-0.089844	0.568623	0.477490	-0.616291	0.262406
62116		9.305746	2.116157	-2.108700	-0.041579	-0.025143	0.020185	-0.583008	-0.578857	-0.089111	0.568627	0.476976	-0.616792	0.262153
62117		9.339875	2.181061	-2.128793	-0.022213	-0.018320	0.009357	-0.579834	-0.582031	-0.087891	0.568597	0.476637	-0.617146	0.262002
62118		9.338085	2.124258	-2.073116	-0.004968	-0.003709	0.000703	-0.576172	-0.582520	-0.093262	0.568604	0.476455	-0.617272	0.262021
62119		9.354899	2.124053	-2.058422	-0.001209	-0.013368	-0.001966	-0.580811	-0.586182	-0.093262	0.568535	0.476342	-0.617442	0.261978
62120		9.351600	2.122217	-2.071075	-0.016412	-0.020692	0.000230	-0.582275	-0.588379	-0.092285	0.568492	0.476128	-0.617726	0.261790
62121		9.327081	1.976551	-2.112172	-0.033520	-0.020471	0.008622	-0.583984	-0.587402	-0.096680	0.568522	0.475733	-0.618109	0.261537
62122		9.373053	1.951896	-2.195226	-0.014405	-0.026288	0.009009	-0.578125	-0.582520	-0.088379	0.568400	0.475473	-0.618486	0.261384
62123		9.363403	2.093167	-2.164843	0.014692	-0.027093	-0.000717	-0.573975	-0.582764	-0.092285	0.568115	0.475527	-0.618694	0.261413
62124		9.354107	2.160367	-2.061131	0.023363	-0.010312	-0.006956	-0.573486	-0.578613	-0.093018	0.567940	0.475628	-0.618718	0.261552
62125		9.310915	2.158009	-2.032387	0.012615	-0.015629	-0.005193	-0.589844	-0.581299	-0.090088	0.567784	0.475647	-0.618836	0.261580
62126		9.308328	2.126880	-2.164164	0.009163	-0.021579	-0.000452	-0.583740	-0.582764	-0.082520	0.567573	0.475613	-0.619055	0.261580
62127		9.316422	2.151485	-2.178469	0.008671	-0.018927	-0.006030	-0.585938	-0.588379	-0.092773	0.567392	0.475650	-0.619189	0.261589
62128		9.332788	2.091421	-2.139102	0.012702	-0.010789	-0.007071	-0.583984	-0.585693	-0.078857	0.567277	0.475665	-0.619264	0.261632
62129		9.336555	2.050544	-2.143336	0.019938	-0.014631	-0.002855	-0.577637	-0.586670	-0.092773	0.567045	0.475761	-0.619335	0.261794
62130		9.303277	2.099640	-2.153646	0.014727	-0.022417	-0.000324	-0.580566	-0.576172	-0.093506	0.566812	0.475786	-0.619512	0.261835
62131		9.311132	2.184352	-2.195387	0.019850	-0.017408	-0.007026	-0.580322	-0.585449	-0.084961	0.566608	0.475850	-0.619631	0.261876
62132		9.275043	2.097111	-2.176211	0.024207	-0.005413	-0.006752	-0.588623	-0.579346	-0.085449	0.566453	0.475957	-0.619608	0.262072
62133		9.317415	2.053094	-2.169144	0.026308	-0.017540	-0.003089	-0.578125	-0.582520	-0.097412	0.566176	0.476059	-0.619722	0.262217
62134		9.361788	2.124692	-2.185487	0.027617	-0.014179	-0.001867	-0.582275	-0.582764	-0.089844	0.565950	0.476126	-0.619815	0.262363
62135		9.340553	2.104841	-2.115728	0.019497	-0.007756	-0.002643	-0.576904	-0.579590	-0.093750	0.565806	0.476143	-0.619873	0.262506
62136		9.305131	2.098856	-2.129058	0.012493	-0.013948	-0.006702	-0.574951	-0.574463	-0.091064	0.565681	0.476148	-0.619980	0.262512
62137		9.313382	2.059717	-2.208710	0.010486	-0.019872	-0.007090	-0.576904	-0.581543	-0.086426	0.565515	0.476167	-0.620133	0.262473
62138		9.304229	2.025293	-2.211715	0.025913	-0.011463	-0.012208	-0.578613	-0.584717	-0.083984	0.565331	0.476337	-0.620120	0.262594
62139		9.312013	2.011740	-2.265818	0.038481	-0.004775	-0.014907	-0.581055	-0.577148	-0.086426	0.565126	0.476606	-0.619994	0.262844
62140		9.345007	2.090676	-2.216859	0.039535	-0.010816	-0.013071	-0.578857	-0.578125	-0.088623	0.564866	0.476854	-0.619951	0.263054
62141		9.329381	2.080390	-2.182492	0.033449	-0.007946	-0.011092	-0.587402	-0.583252	-0.084961	0.564668	0.477028	-0.619920	0.263237
62142		9.305374	2.055416	-2.214487	0.026695	-0.009072	-0.009910	-0.581543	-0.574951	-0.083496	0.564485	0.477157	-0.619926	0.263382
62143		9.272895	2.072802	-2.225325	0.019941	-0.014530	-0.002869	-0.580322	-0.578613	-0.082031	0.564273	0.477203	-0.620035	0.263495
62144		9.321964	2.103653	-2.241536	0.022740	-0.012983	-0.003036	-0.592041	-0.581299	-0.081787	0.564057	0.477280	-0.620107	0.263648
62145		9.340369	2.149608	-2.147313	0.031309	0.000569	-0.008138	-0.576660	-0.586182	-0.085693	0.563906	0.477393	-0.620049	0.263903
62146		9.318177	2.113103	-2.185580	0.012730	-0.009833	-0.008527	-0.575684	-0.587158	-0.079102	0.563811	0.477434	-0.620084	0.263949
62147		9.304732	2.008655	-2.270475	-0.004434	-0.014792	-0.004366	-0.584229	-0.579102	-0.082031	0.563748	0.477376	-0.620209	0.263898
62148		9.301599	1.987943	-2.330283	0.005773	-0.014746	0.000736	-0.588867	-0.577637	-0.079834	0.563608	0.477298	-0.620383	0.263927
62149		9.325443	1.966620	-2.261177	0.027294	-0.008851	-0.000195	-0.593018	-0.575439	-0.082031	0.563379	0.477357	-0.620449	0.264154
62150		9.323608	1.987714	-2.186849	0.017970	-0.011072	0.006012	-0.585938	-0.578125	-0.079346	0.563173	0.477283	-0.620624	0.264319
62151		9.326029	2.062178	-2.192908	-0.000042	-0.020886	0.009971	-0.583740	-0.580322	-0.083252	0.562982	0.477120	-0.620912	0.264340
62152		9.301637	2.112868	-2.206205	0.001330	-0.018047	0.008089	-0.585205	-0.576416	-0.079834	0.562828	0.476962	-0.621165	0.264359
62153		9.296131	2.059133	-2.246224	0.013535	-0.010770	0.006673	-0.583740	-0.583496	-0.080811	0.562649	0.476884	-0.621319	0.264519
62154		9.314839	2.045335	-2.240591	0.018032	-0.008568	0.003915	-0.582275	-0.581055	-0.079346	0.562478	0.476867	-0.621405	0.264712
62155		9.339909	2.078044	-2.229365	0.003694	-0.013979	0.013982	-0.587646	-0.570557	-0.088867	0.562312	0.476694	-0.621633	0.264838
62156		9.331229	2.089471	-2.182460	-0.013369	-0.019139	0.021320	-0.582764	-0.575928	-0.079102	0.562211	0.476269	-0.622078	0.264775
62157		9.318941	2.037223	-2.179614	-0.027100	-0.022455	0.026575	-0.582520	-0.567383	-0.079102	0.562118	0.475803	-0.622552	0.264697
62158		9.321977	1.991249	-2.245935	-0.034337	-0.023673	0.027417	-0.579590	-0.584473	-0.089600	0.562052	0.475266	-0.623082	0.264553
62159		9.330497	1.990964	-2.252643	-0.025746	-0.018301	0.017817	-0.585693	-0.571533	-0.084473	0.562057	0.474840	-0.623465	0.264406
62160		9.330699	2.063832	-2.266471	0.006479	-0.011271	-0.001584	-0.586914	-0.570312	-0.083496	0.561959	0.474755	-0.623610	0.264425
62161		9.329478	2.008966	-2.210189	0.013969	-0.000068	-0.010753	-0.582520	-0.572998	-0.079590	0.561930	0.474758	-0.623599	0.264507
62162		9.326910	1.947473	-2.192700	0.010077	-0.003779	-0.006130	-0.583496	-0.578125	-0.074707	0.561870	0.474751	-0.623618	0.264603
62163		9.315159	1.958332	-2.299365	-0.002212	-0.009088	0.000023	-0.583740	-0.565918	-0.082031	0.561805	0.474667	-0.623720	0.264650
62164		9.308949	1.950878	-2.266202	0.004547	-0.008663	-0.002009	-0.580078	-0.582520	-0.079590	0.561733	0.474567	-0.623851	0.264675
62165		9.346215	1.980886	-2.256061	0.012615	-0.007902	-0.003843	-0.588623	-0.572510	-0.082520	0.561626	0.474606	-0.623865	0.264798
62166		9.363238	1.962020	-2.288989	0.013281	-0.003213	-0.002232	-0.588623	-0.579346	-0.080566	0.561547	0.474552	-0.623925	0.264920
62167		9.319519	2.024344	-2.254473	-0.001195	-0.008695	-0.001526	-0.584717	-0.566895	-0.081299	0.561506	0.474442	-0.624044	0.264924
62168		9.292133	2.001383	-2.262789	-0.005365	-0.006450	-0.005138	-0.589355	-0.579834	-0.082031	0.561519	0.474293	-0.624170	0.264865
62169		9.315922	1.970979	-2.261433	0.005044	-0.002655	-0.008139	-0.587158	-0.575439	-0.083008	0.561515	0.474251	-0.624191	0.264900
62170		9.326794	1.971792	-2.233876	0.020060	-0.001304	-0.013405	-0.590088	-0.570801	-0.078125	0.561453	0.474339	-0.624133	0.265012
62171		9.346962	1.925557	-2.257773	0.026763	0.006261	-0.018026	-0.579590	-0.568115	-0.074219	0.561403	0.474492	-0.623978	0.265209
62172		9.341659	1.950097	-2.305315	0.022988	0.001635	-0.011072	-0.593750	-0.580566	-0.080078	0.561306	0.474625	-0.623868	0.265432
62173		9.347918	2.009653	-2.231140	0.024647	-0.005203	-0.006537	-0.587402	-0.576172	-0.081299	0.561151	0.474717	-0.623858	0.265621
62174		9.317660	2.000041	-2.147644	0.005016	-0.000531	-0.005683	-0.587402	-0.571289	-0.080566	0.561156	0.474643	-0.623884	0.265682
62175		9.311438	1.957377	-2.206903	-0.005005	-0.001142	-0.012961	-0.591553	-0.580566	-0.082031	0.561235	0.474546	-0.623919	0.265606
62176		9.330105	1.932854	-2.299436	0.005050	-0.003484	-0.017462	-0.583496	-0.571533	-0.079102	0.561257	0.474575	-0.623895	0.265566
62177		9.327677	1.947719	-2.292880	0.018341	-0.000638	-0.017693	-0.589600	-0.580566	-0.086914	0.561212	0.474701	-0.623799	0.265659
62178		9.343979	1.948321	-2.223444	0.008004	0.004063	-0.014760	-0.591797	-0.577393	-0.082764	0.561288	0.474675	-0.623743	0.265675
62179		9.352392	1.966722	-2.156450	0.000770	-0.000203	-0.014901	-0.590088	-0.576904	-0.079834	0.561354	0.474624	-0.623744	0.265627
62180		9.321749	1.950988	-2.195535	-0.007380	-0.005200	-0.018846	-0.588379	-0.575928	-0.080566	0.561430	0.474587	-0.623765	0.265481
62181		9.321182	1.966834	-2.326458	-0.005790	-0.007215	-0.017082	-0.580811	-0.569580	-0.086182	0.561479	0.474552	-0.623806	0.265344
62182		9.329061	1.985956	-2.260985	0.019363	-0.000917	-0.020074	-0.591064	-0.575684	-0.078857	0.561464	0.474659	-0.623723	0.265380
62183		9.334062	2.000135	-2.150465	0.020252	0.004123	-0.022139	-0.592529	-0.576904	-0.084717	0.561453	0.474810	-0.623573	0.265485
62184		9.346504	2.013426	-2.136240	-0.009985	-0.006591	-0.020063	-0.588379	-0.568848	-0.084961	0.561557	0.474725	-0.623639	0.265263
62185		9.328378	1.977216	-2.278900	-0.032505	-0.015934	-0.018495	-0.585938	-0.573486	-0.086182	0.561717	0.474485	-0.623869	0.264812
62186		9.319236	1.928549	-2.325620	-0.014600	-0.007156	-0.018806	-0.584229	-0.572021	-0.078857	0.561847	0.474361	-0.623955	0.264556
62187		9.325522	1.913960	-2.269897	0.019670	0.002863	-0.027291	-0.591064	-0.572266	-0.076904	0.561845	0.474569	-0.623769	0.264624
62188		9.377011	1.947153	-2.250567	0.026674	0.005286	-0.033641	-0.579346	-0.575195	-0.087646	0.561827	0.474858	-0.623524	0.264721
62189		9.352812	2.059686	-2.202412	0.009989	-0.002821	-0.027773	-0.591309	-0.574707	-0.081299	0.561889	0.474972	-0.623426	0.264616
62190		9.308276	2.027641	-2.180039	-0.011265	-0.003021	-0.020718	-0.585938	-0.575928	-0.085449	0.562011	0.474890	-0.623460	0.264425
62191		9.287447	1.958665	-2.248491	-0.022138	-0.012295	-0.019246	-0.591064	-0.577637	-0.090088	0.562145	0.474740	-0.623599	0.264082
62192		9.279035	1.912192	-2.348423	-0.003362	-0.004467	-0.023632	-0.583496	-0.580811	-0.079102	0.562262	0.474684	-0.623630	0.263861
62193		9.327487	1.921520	-2.332387	0.030668	0.004577	-0.029284	-0.587891	-0.577637	-0.091309	0.562219	0.475003	-0.623358	0.264021
62194		9.393848	1.988425	-2.212485	0.035671	0.000308	-0.026021	-0.584717	-0.570312	-0.084229	0.562157	0.475219	-0.623212	0.264107
62195		9.353383	2.011228	-2.124219	0.015941	-0.000829	-0.021796	-0.583496	-0.576172	-0.067139	0.562152	0.475313	-0.623142	0.264115
62196		9.302266	2.020978	-2.218477	-0.003698	-0.006913	-0.023299	-0.576904	-0.582031	-0.083496	0.562139	0.475464	-0.623056	0.264075
62197		9.276553	2.081487	-2.282679	0.007186	-0.008930	-0.027978	-0.584229	-0.574463	-0.087402	0.562156	0.475633	-0.622964	0.263951
62198		9.304079	2.068251	-2.286394	0.021864	0.003251	-0.032667	-0.580811	-0.572021	-0.083740	0.562205	0.475820	-0.622788	0.263926
62199		9.347712	2.085553	-2.218155	0.030916	0.005219	-0.035267	-0.588867	-0.577148	-0.076660	0.562205	0.476115	-0.622531	0.263997
62200		9.346523	2.104500	-2.148434	0.013859	0.001917	-0.033916	-0.586182	-0.579590	-0.084717	0.562237	0.476335	-0.622343	0.263976
62201		9.350013	2.049536	-2.142008	-0.023820	-0.005538	-0.023791	-0.585205	-0.580322	-0.083496	0.562450	0.476181	-0.622418	0.263625
62202		9.318884	1.955834	-2.262483	-0.027386	-0.008648	-0.016564	-0.583496	-0.572510	-0.078857	0.562628	0.475975	-0.622555	0.263294
62203		9.319113	1.909748	-2.311756	0.007420	-0.003117	-0.021959	-0.586182	-0.586670	-0.079590	0.562627	0.476064	-0.622498	0.263269
62204		9.318208	2.023726	-2.313752	0.023551	0.001806	-0.026948	-0.584717	-0.579590	-0.077148	0.562599	0.476314	-0.622291	0.263366
62205		9.338993	2.072470	-2.186040	0.023306	0.001368	-0.031803	-0.579834	-0.573975	-0.081055	0.562567	0.476603	-0.622067	0.263439
62206		9.341637	2.069882	-2.185068	0.004891	0.000485	-0.027365	-0.586426	-0.577881	-0.081787	0.562646	0.476692	-0.621963	0.263356
62207		9.324239	2.024343	-2.250265	-0.000900	-0.005316	-0.023502	-0.584473	-0.579834	-0.080811	0.562701	0.476711	-0.621960	0.263211
62208		9.353923	1.999441	-2.260582	0.013756	0.003921	-0.029210	-0.587646	-0.578613	-0.083496	0.562757	0.476869	-0.621789	0.263209
62209		9.303615	2.015647	-2.260708	0.031758	0.005136	-0.038573	-0.585205	-0.584229	-0.090088	0.562757	0.477181	-0.621530	0.263256
62210		9.297030	2.077336	-2.245760	0.029203	-0.003076	-0.031804	-0.582031	-0.579590	-0.081543	0.562730	0.477412	-0.621388	0.263229
62211		9.314734	2.132147	-2.204589	0.011707	-0.003281	-0.023546	-0.585449	-0.584717	-0.073486	0.562731	0.477526	-0.621312	0.263198
62212		9.327533	2.120902	-2.215238	0.001606	-0.004378	-0.026273	-0.580078	-0.582275	-0.087158	0.562749	0.477670	-0.621212	0.263137
62213		9.324912	2.092612	-2.226155	0.005810	-0.000246	-0.033743	-0.579346	-0.576904	-0.067139	0.562878	0.477773	-0.621091	0.262957
62214		9.334048	2.064546	-2.207313	0.010041	0.007178	-0.033964	-0.584229	-0.581543	-0.078857	0.562920	0.478054	-0.620803	0.263038
62215		9.326195	2.038020	-2.257671	0.014655	0.005532	-0.035421	-0.581055	-0.582031	-0.070068	0.562994	0.478267	-0.620580	0.263019
62216		9.317272	2.037179	-2.284402	0.016142	0.004470	-0.035990	-0.582275	-0.584229	-0.079102	0.563005	0.478591	-0.620291	0.263088
62217		9.307069	2.080009	-2.240450	0.025360	0.004265	-0.029369	-0.578125	-0.577393	-0.083252	0.562989	0.478847	-0.620065	0.263190
62218		9.284986	2.078002	-2.159154	0.008030	0.000054	-0.019756	-0.582764	-0.581299	-0.085693	0.563038	0.478864	-0.620025	0.263149
62219		9.273333	2.098728	-2.225726	-0.002745	-0.007761	-0.018872	-0.577881	-0.584961	-0.072266	0.563099	0.478800	-0.620097	0.262963
62220		9.264539	2.116234	-2.260626	0.014377	-0.001389	-0.026917	-0.580811	-0.582275	-0.085449	0.563061	0.479059	-0.619901	0.263036
62221		9.293425	2.158470	-2.259989	0.033210	0.005074	-0.029855	-0.578369	-0.582031	-0.079102	0.563043	0.479303	-0.619688	0.263134
62222		9.363925	2.151703	-2.149544	0.023449	0.004862	-0.023748	-0.577393	-0.579834	-0.076416	0.563028	0.479494	-0.619501	0.263257
62223		9.358875	2.080746	-2.125175	-0.002720	0.000322	-0.013550	-0.580322	-0.583008	-0.080322	0.563086	0.479453	-0.619485	0.263244
62224		9.284540	2.044263	-2.209928	-0.005939	-0.009192	-0.012779	-0.584229	-0.586426	-0.066162	0.563108	0.479382	-0.619573	0.263120
62225		9.260755	2.104178	-2.265544	0.006557	-0.007557	-0.016808	-0.580811	-0.571289	-0.084961	0.562995	0.479559	-0.619498	0.263215
62226		9.289799	2.123751	-2.259429	0.022756	-0.001093	-0.019324	-0.581787	-0.584229	-0.074219	0.562956	0.479602	-0.619493	0.263232
62227		9.285144	2.149764	-2.245900	0.027000	0.000146	-0.019266	-0.586426	-0.591309	-0.072266	0.562838	0.479837	-0.619333	0.263431
62228		9.315203	2.195964	-2.152960	0.020277	-0.001132	-0.018020	-0.580078	-0.585693	-0.084961	0.562734	0.480052	-0.619186	0.263607
62229		9.314279	2.178171	-2.147629	0.003036	-0.003422	-0.013586	-0.581787	-0.587402	-0.073730	0.562782	0.479994	-0.619218	0.263536
62230		9.305943	2.097667	-2.226256	-0.013494	-0.008441	-0.011184	-0.578125	-0.587646	-0.083984	0.562815	0.479925	-0.619284	0.263436
62231		9.270779	2.074020	-2.284460	-0.006914	-0.011922	-0.011382	-0.578613	-0.584229	-0.081055	0.562844	0.479841	-0.619391	0.263276
62232		9.301514	2.123085	-2.299276	0.008256	-0.006759	-0.010881	-0.583008	-0.585693	-0.076660	0.562803	0.479848	-0.619420	0.263283
62233		9.299082	2.149529	-2.223251	0.012673	-0.000548	-0.014160	-0.577637	-0.586670	-0.081055	0.562764	0.479920	-0.619359	0.263378
62234		9.311068	2.160038	-2.156425	-0.001838	-0.007933	-0.013595	-0.579346	-0.582275	-0.083740	0.562784	0.479899	-0.619394	0.263290
62235		9.335882	2.133544	-2.208771	-0.009765	-0.009118	-0.008555	-0.577393	-0.584961	-0.074951	0.562841	0.479727	-0.619546	0.263124
62236		9.310334	2.085235	-2.240180	-0.008341	-0.004877	-0.007954	-0.581055	-0.586670	-0.080078	0.562869	0.479658	-0.619584	0.263101
62237		9.296892	2.092357	-2.239471	-0.006374	-0.008331	-0.006053	-0.582764	-0.581543	-0.078369	0.562878	0.479547	-0.619690	0.263036
62238		9.311346	2.091720	-2.233729	-0.004442	-0.006281	-0.005267	-0.580566	-0.583984	-0.078613	0.562876	0.479415	-0.619808	0.263001
62239		9.323464	2.087875	-2.236898	-0.009387	-0.008000	-0.001998	-0.576172	-0.584961	-0.081055	0.562883	0.479254	-0.619946	0.262952
62240		9.313684	2.092077	-2.257821	-0.008051	-0.007433	-0.004087	-0.579590	-0.586426	-0.081055	0.562911	0.479125	-0.620046	0.262894
62241		9.301218	2.071620	-2.227447	-0.004735	-0.003716	-0.009135	-0.578125	-0.581543	-0.078613	0.562961	0.479042	-0.620085	0.262849
62242		9.328937	2.047320	-2.269576	-0.000681	-0.001049	-0.008320	-0.580566	-0.582764	-0.075684	0.562990	0.478972	-0.620104	0.262867
62243		9.339748	1.992814	-2.245109	0.009473	-0.001969	-0.008068	-0.583252	-0.582275	-0.081055	0.562930	0.479001	-0.620083	0.262991
62244		9.327216	2.036173	-2.287758	0.010815	-0.003002	-0.009514	-0.574463	-0.580078	-0.087402	0.562890	0.478988	-0.620107	0.263047
62245		9.305222	2.114581	-2.233410	0.008883	-0.005049	-0.010301	-0.586670	-0.577393	-0.076660	0.562895	0.478940	-0.620152	0.263016
62246		9.294337	2.158174	-2.160325	0.006598	-0.002435	-0.012498	-0.580811	-0.580078	-0.082275	0.562865	0.478912	-0.620190	0.263041
62247		9.279789	2.116510	-2.185558	-0.008650	-0.003216	-0.010357	-0.587402	-0.585938	-0.072266	0.562953	0.478754	-0.620282	0.262923
62248		9.293003	2.034387	-2.268614	-0.009789	-0.002709	-0.011134	-0.584473	-0.581543	-0.080078	0.562984	0.478701	-0.620301	0.262910
62249		9.319040	2.001144	-2.296613	0.007690	0.000067	-0.010730	-0.573975	-0.577393	-0.077881	0.562981	0.478669	-0.620306	0.262961
62250		9.333026	2.040517	-2.249898	0.011771	-0.003665	-0.007340	-0.574951	-0.584473	-0.083984	0.562910	0.478697	-0.620301	0.263074
62251		9.319070	2.086692	-2.209073	0.005225	-0.005699	-0.006020	-0.574219	-0.582520	-0.083252	0.562895	0.478659	-0.620334	0.263096
62252		9.314240	2.076172	-2.205547	0.007906	-0.003659	-0.011666	-0.579102	-0.581299	-0.072510	0.562895	0.478675	-0.620315	0.263113
62253		9.285439	2.085830	-2.212342	0.014832	-0.004476	-0.014505	-0.582031	-0.582764	-0.079102	0.562785	0.478838	-0.620229	0.263255
62254		9.306713	2.081751	-2.249740	0.025596	-0.000486	-0.014959	-0.572021	-0.582275	-0.077881	0.562682	0.478995	-0.620126	0.263430
62255		9.310966	2.145566	-2.229685	0.021668	-0.000884	-0.014718	-0.584961	-0.580811	-0.076904	0.562602	0.479180	-0.619982	0.263604
62256		9.324194	2.150667	-2.193645	0.010722	-0.005043	-0.012861	-0.578369	-0.581787	-0.081055	0.562535	0.479216	-0.619996	0.263651
62257		9.306106	2.110874	-2.198112	-0.000433	-0.004578	-0.011537	-0.577881	-0.584229	-0.079590	0.562565	0.479162	-0.620032	0.263600
62258		9.309691	2.050639	-2.254289	-0.002562	-0.003601	-0.012209	-0.585693	-0.586426	-0.084717	0.562607	0.479132	-0.620032	0.263564
62259		9.303342	2.033319	-2.289837	0.015790	-0.002626	-0.014445	-0.578857	-0.586426	-0.078613	0.562577	0.479174	-0.620011	0.263601
62260		9.314441	2.070960	-2.252833	0.024975	-0.001229	-0.017032	-0.583740	-0.582275	-0.086670	0.562480	0.479389	-0.619858	0.263776
62261		9.310667	2.089673	-2.216400	0.021481	-0.001022	-0.013328	-0.575684	-0.583496	-0.079834	0.562444	0.479410	-0.619850	0.263834
62262		9.311582	2.100874	-2.231581	0.005896	-0.002898	-0.009179	-0.581787	-0.579102	-0.079346	0.562438	0.479411	-0.619835	0.263881
62263		9.305970	2.096942	-2.250827	0.007563	-0.004683	-0.009683	-0.574951	-0.583008	-0.077393	0.562403	0.479373	-0.619889	0.263897
62264		9.292860	2.082827	-2.243496	0.009145	-0.001168	-0.009028	-0.575928	-0.587402	-0.081299	0.562375	0.479415	-0.619835	0.264006
62265		9.312921	2.102507	-2.202840	0.009338	-0.002594	-0.009785	-0.576660	-0.580566	-0.079834	0.562360	0.479460	-0.619782	0.264080
62266		9.319108	2.098480	-2.193223	0.005875	-0.002194	-0.008362	-0.582520	-0.581055	-0.080566	0.562358	0.479425	-0.619794	0.264120
62267		9.319537	2.094939	-2.224818	0.001640	-0.005952	-0.006294	-0.575928	-0.587158	-0.080566	0.562345	0.479324	-0.619893	0.264102
62268		9.312414	2.081239	-2.230096	0.001295	-0.004495	-0.006419	-0.586670	-0.587158	-0.079346	0.562347	0.479301	-0.619894	0.264134
62269		9.291685	2.079238	-2.256288	-0.004084	-0.005255	-0.007242	-0.584473	-0.588135	-0.077393	0.562360	0.479208	-0.619967	0.264106
62270		9.305343	2.085230	-2.273424	0.009500	-0.004215	-0.008260	-0.579346	-0.579590	-0.079102	0.562292	0.479255	-0.619946	0.264213
62271		9.306867	2.052811	-2.221793	0.011725	0.000286	-0.007836	-0.579346	-0.579346	-0.083008	0.562266	0.479240	-0.619938	0.264317
62272		9.366807	2.067054	-2.200465	0.003944	-0.001747	-0.011260	-0.581055	-0.581787	-0.081543	0.562307	0.479164	-0.619974	0.264283
62273		9.322626	2.099477	-2.220154	0.002815	-0.002846	-0.011387	-0.583252	-0.584473	-0.077637	0.562334	0.479111	-0.620001	0.264258
62274		9.269206	2.078579	-2.263011	0.002668	-0.005316	-0.010153	-0.573242	-0.586914	-0.079834	0.562309	0.479105	-0.620020	0.264276
62275		9.298990	2.076336	-2.249543	-0.006277	-0.002191	-0.005456	-0.575684	-0.575195	-0.080566	0.562368	0.479043	-0.620010	0.264288
62276		9.298235	2.043161	-2.259787	0.001492	-0.002517	-0.010760	-0.591064	-0.585938	-0.080566	0.562405	0.478961	-0.620056	0.264249
62277		9.320759	2.068105	-2.263332	0.020655	0.002180	-0.016771	-0.577637	-0.582275	-0.083740	0.562361	0.479056	-0.619971	0.264369
62278		9.320593	2.083338	-2.193758	0.015156	0.003111	-0.010566	-0.586670	-0.586670	-0.083496	0.562374	0.479068	-0.619907	0.264470
62279		9.327074	2.079055	-2.183292	-0.003522	-0.001477	-0.004196	-0.585938	-0.586182	-0.085938	0.562428	0.478906	-0.619992	0.264450
62280		9.284291	2.049537	-2.236356	-0.001623	-0.003581	-0.009210	-0.580322	-0.580322	-0.082520	0.562488	0.478782	-0.620066	0.264372
62281		9.286266	2.091339	-2.272050	0.013974	-0.002351	-0.014199	-0.584473	-0.582764	-0.078369	0.562466	0.478819	-0.620042	0.264408
62282		9.319878	2.100514	-2.209938	0.022863	0.005804	-0.014891	-0.582031	-0.584961	-0.078857	0.562424	0.478936	-0.619907	0.264602
62283		9.307267	2.064501	-2.141517	0.009784	-0.000148	-0.009272	-0.578369	-0.585938	-0.078369	0.562402	0.478959	-0.619865	0.264707
62284		9.326111	2.112899	-2.184180	-0.001106	-0.006667	-0.007551	-0.581543	-0.568848	-0.075684	0.562389	0.478946	-0.619882	0.264718
62285		9.288019	2.054008	-2.229342	-0.005611	-0.001914	-0.006503	-0.588867	-0.580566	-0.081787	0.562424	0.478749	-0.620023	0.264669
62286		9.316370	2.008879	-2.264547	-0.001305	-0.001838	-0.010385	-0.584961	-0.579102	-0.082031	0.562472	0.478614	-0.620109	0.264609
62287		9.316226	2.025404	-2.248955	0.009509	-0.003283	-0.009735	-0.579590	-0.582275	-0.069580	0.562448	0.478564	-0.620162	0.264628
62288		9.331716	2.054048	-2.210437	0.020008	-0.002165	-0.012969	-0.583252	-0.583008	-0.083252	0.562299	0.478792	-0.620015	0.264876
62289		9.307905	2.068778	-2.198976	0.011632	-0.001741	-0.011186	-0.584961	-0.583984	-0.080566	0.562289	0.478788	-0.620010	0.264917
62290		9.311662	2.097546	-2.188687	0.000692	-0.004373	-0.009944	-0.585938	-0.584961	-0.071777	0.562299	0.478732	-0.620053	0.264895
62291		9.295196	2.052016	-2.222795	-0.006873	-0.004594	-0.006857	-0.592041	-0.584961	-0.082764	0.562282	0.478694	-0.620081	0.264936
62292		9.315174	2.037991	-2.245737	-0.001440	-0.007710	-0.005557	-0.586914	-0.576904	-0.084229	0.562270	0.478553	-0.620224	0.264880
62293		9.309613	2.032435	-2.211226	0.006165	0.000280	-0.008733	-0.586670	-0.583740	-0.072998	0.562306	0.478410	-0.620309	0.264863
62294		9.312939	2.045581	-2.163139	-0.003424	-0.002476	-0.010406	-0.576416	-0.587646	-0.083740	0.562303	0.478399	-0.620304	0.264903
62295		9.300965	2.027987	-2.239677	-0.011053	-0.010668	-0.004943	-0.581543	-0.581299	-0.077393	0.562343	0.478296	-0.620391	0.264797
62296		9.317820	2.032002	-2.279069	-0.004328	-0.010002	-0.007047	-0.580078	-0.577393	-0.074707	0.562311	0.478242	-0.620477	0.264762
62297		9.308156	2.049833	-2.230264	0.009004	-0.001781	-0.010752	-0.582764	-0.575928	-0.083740	0.562261	0.478287	-0.620444	0.264866
62298		9.314841	2.025277	-2.213974	0.011779	-0.001751	-0.010314	-0.586914	-0.586670	-0.079102	0.562253	0.478227	-0.620490	0.264882
62299		9.327815	2.052453	-2.238218	0.009281	-0.007797	-0.011843	-0.583740	-0.573975	-0.075928	0.562175	0.478301	-0.620483	0.264931
62300		9.332325	2.074772	-2.205699	0.004610	-0.004828	-0.008734	-0.579590	-0.592773	-0.078613	0.562129	0.478245	-0.620557	0.264955
62301		9.303652	2.083309	-2.212169	0.007035	-0.003344	-0.008423	-0.582764	-0.582031	-0.082275	0.562088	0.478361	-0.620447	0.265091
62302		9.295073	2.096996	-2.247269	0.000396	-0.007706	-0.008120	-0.582275	-0.571289	-0.078857	0.562081	0.478295	-0.620523	0.265047
62303		9.291335	2.080478	-2.220457	-0.004072	-0.004364	-0.008705	-0.584961	-0.579834	-0.078613	0.562117	0.478129	-0.620656	0.264961
62304		9.319620	1.999127	-2.212523	-0.004382	-0.005206	-0.008998	-0.584229	-0.573242	-0.088867	0.562135	0.478036	-0.620731	0.264914
62305		9.333650	2.020982	-2.266910	0.007714	-0.005546	-0.007355	-0.583008	-0.576172	-0.077148	0.562149	0.477858	-0.620893	0.264825
62306		9.347155	2.060907	-2.221327	0.009854	-0.004700	-0.009627	-0.583496	-0.574707	-0.083984	0.562081	0.477868	-0.620918	0.264893
62307		9.322888	2.094895	-2.162983	0.004235	-0.002670	-0.008046	-0.580566	-0.580078	-0.081543	0.562106	0.477732	-0.621016	0.264854
62308		9.303454	2.066004	-2.159631	-0.001848	-0.008110	-0.011309	-0.576660	-0.583252	-0.081787	0.562119	0.477685	-0.621075	0.264774
62309		9.339276	2.047124	-2.260027	-0.010842	-0.010299	-0.008627	-0.579346	-0.575195	-0.078857	0.562163	0.477606	-0.621149	0.264650
62310		9.337373	2.020609	-2.294529	-0.008595	-0.008987	-0.006911	-0.575195	-0.577637	-0.084229	0.562178	0.477479	-0.621273	0.264556
62311		9.319837	2.014212	-2.235824	0.005158	-0.006787	-0.010842	-0.580811	-0.573242	-0.085938	0.562181	0.477459	-0.621303	0.264514
62312		9.335672	2.022666	-2.191070	-0.000903	-0.007172	-0.009782	-0.587646	-0.588867	-0.080078	0.562222	0.477305	-0.621442	0.264379
62313		9.313202	1.978176	-2.266349	-0.006983	-0.004157	-0.012312	-0.576660	-0.578125	-0.077637	0.562277	0.477270	-0.621443	0.264323
62314		9.341111	2.004820	-2.283098	0.004718	-0.006486	-0.015780	-0.584961	-0.579834	-0.086182	0.562251	0.477356	-0.621400	0.264324
62315		9.321395	2.047032	-2.260404	0.014742	-0.001294	-0.013598	-0.583008	-0.583252	-0.077393	0.562250	0.477354	-0.621395	0.264342
62316		9.331482	2.054862	-2.202584	0.008220	-0.003399	-0.012241	-0.595703	-0.571045	-0.084473	0.562206	0.477434	-0.621338	0.264425
62317		9.332118	2.065705	-2.164325	-0.003523	-0.005429	-0.012277	-0.588623	-0.569092	-0.087646	0.562258	0.477196	-0.621550	0.264244
62318		9.348252	2.056709	-2.219444	-0.008700	-0.008548	-0.012370	-0.575684	-0.574707	-0.081055	0.562346	0.476926	-0.621792	0.263976
62319		9.342848	2.033538	-2.231995	-0.008570	-0.006075	-0.013611	-0.581787	-0.569092	-0.085693	0.562420	0.476848	-0.621841	0.263844
62320		9.319922	1.974408	-2.269842	-0.010379	-0.004971	-0.014806	-0.584229	-0.586670	-0.084229	0.562543	0.476640	-0.621988	0.263611
62321		9.302894	2.001132	-2.284770	0.000993	-0.007429	-0.017755	-0.575928	-0.581055	-0.082764	0.562577	0.476668	-0.621982	0.263505
62322		9.337719	1.986601	-2.247523	0.023653	0.000004	-0.023404	-0.580322	-0.575684	-0.078369	0.562548	0.476897	-0.621794	0.263594
62323		9.350928	1.994463	-2.210606	0.018686	0.004124	-0.025812	-0.583252	-0.582520	-0.085693	0.562550	0.477087	-0.621608	0.263681
62324		9.324289	1.973634	-2.217394	0.014100	-0.005272	-0.022941	-0.579346	-0.581787	-0.079590	0.562551	0.477193	-0.621552	0.263620
62325		9.314205	2.061614	-2.287176	0.021786	-0.004327	-0.024353	-0.578857	-0.573730	-0.083984	0.562477	0.477445	-0.621396	0.263691
62326		9.293868	2.139210	-2.201561	0.028511	0.002337	-0.023627	-0.580322	-0.581299	-0.085205	0.562446	0.477609	-0.621261	0.263777
62327		9.331653	2.092642	-2.163959	0.012118	0.002514	-0.021354	-0.583496	-0.572754	-0.082764	0.562517	0.477662	-0.621166	0.263754
62328		9.343447	2.057808	-2.229994	-0.000777	-0.008833	-0.016823	-0.582764	-0.581543	-0.083496	0.562537	0.477587	-0.621272	0.263598
62329		9.333438	2.093958	-2.272219	0.006507	-0.005943	-0.015253	-0.581299	-0.564453	-0.082275	0.562540	0.477588	-0.621293	0.263541
62330		9.299094	2.116188	-2.196254	0.000021	-0.002823	-0.011853	-0.586670	-0.579346	-0.082275	0.562578	0.477433	-0.621414	0.263455
62331		9.293804	2.077409	-2.170672	-0.017272	-0.004088	-0.014215	-0.596924	-0.585938	-0.086670	0.562718	0.477237	-0.621529	0.263238
62332		9.299977	2.007880	-2.286991	-0.010453	-0.007954	-0.016673	-0.577148	-0.578857	-0.085693	0.562820	0.477056	-0.621685	0.262980
62333		9.339929	2.016180	-2.322145	0.013977	-0.001744	-0.018864	-0.583252	-0.580322	-0.077881	0.562841	0.477116	-0.621629	0.262960
62334		9.336229	2.035125	-2.231497	0.025933	0.005083	-0.019042	-0.583008	-0.584717	-0.079834	0.562778	0.477315	-0.621444	0.263171
62335		9.329494	2.087502	-2.193633	0.013313	-0.001130	-0.019287	-0.589600	-0.573730	-0.077148	0.562763	0.477441	-0.621339	0.263222
62336		9.346127	2.092694	-2.178522	0.002219	-0.003131	-0.018069	-0.584717	-0.582275	-0.079834	0.562757	0.477435	-0.621361	0.263194
62337		9.317395	2.018501	-2.273320	-0.002444	-0.002924	-0.010524	-0.581787	-0.575684	-0.086670	0.562789	0.477366	-0.621396	0.263167
62338		9.305919	2.079732	-2.290992	0.019683	-0.001649	-0.017127	-0.579346	-0.575928	-0.083740	0.562771	0.477398	-0.621383	0.263177
62339		9.307955	2.149033	-2.187120	0.013360	0.002540	-0.016609	-0.579834	-0.587158	-0.083740	0.562803	0.477416	-0.621327	0.263208
62340		9.325296	2.102878	-2.143179	-0.010860	0.000808	-0.012311	-0.577637	-0.579346	-0.082520	0.562963	0.477282	-0.621339	0.263084
62341		9.321283	2.025757	-2.264122	-0.013951	-0.006239	-0.013591	-0.571533	-0.583984	-0.073975	0.563072	0.477156	-0.621415	0.262899
62342		9.325431	2.001510	-2.309885	0.000715	-0.002086	-0.017504	-0.578369	-0.586670	-0.077637	0.563084	0.477309	-0.621263	0.262954
62343		9.365235	2.028465	-2.243808	0.013677	0.003615	-0.018615	-0.582520	-0.592041	-0.084473	0.563087	0.477478	-0.621075	0.263084
62344		9.332024	2.030332	-2.159223	0.013716	0.008174	-0.017407	-0.582520	-0.578125	-0.080811	0.563170	0.477548	-0.620910	0.263169
62345		9.333171	2.023513	-2.219967	0.007791	-0.002790	-0.019509	-0.586914	-0.579346	-0.079102	0.563174	0.477600	-0.620875	0.263149
62346		9.354518	2.036675	-2.293139	0.015571	0.006613	-0.019330	-0.586914	-0.580322	-0.083984	0.563187	0.477681	-0.620753	0.263263
62347		9.322085	2.018725	-2.254826	0.024280	0.011709	-0.019652	-0.579346	-0.579834	-0.081543	0.563225	0.477754	-0.620598	0.263414
62348		9.278321	2.044408	-2.250519	0.031240	0.002392	-0.020960	-0.585938	-0.575439	-0.079346	0.563144	0.477978	-0.620424	0.263592
62349		9.263221	2.122827	-2.231048	0.041262	0.001952	-0.023950	-0.581543	-0.583008	-0.075928	0.562984	0.478266	-0.620245	0.263832
62350		9.287288	2.136256	-2.189276	0.037330	0.006528	-0.019371	-0.582520	-0.581543	-0.073730	0.562856	0.478567	-0.619990	0.264156
62351		9.323269	2.150863	-2.171889	0.027395	0.003998	-0.017369	-0.581543	-0.580811	-0.079834	0.562746	0.478799	-0.619799	0.264420
62352		9.345110	2.176887	-2.175588	0.015178	0.002628	-0.019212	-0.579834	-0.583496	-0.079590	0.562752	0.478888	-0.619695	0.264488
62353		9.307758	2.088587	-2.197807	0.016374	0.006920	-0.019536	-0.581299	-0.581543	-0.082031	0.562787	0.478998	-0.619532	0.264599
62354		9.304026	2.044847	-2.255078	0.016912	0.003642	-0.015564	-0.583740	-0.587646	-0.079102	0.562795	0.479044	-0.619452	0.264685
62355		9.315700	2.078034	-2.247328	0.013242	0.005390	-0.013371	-0.585938	-0.577148	-0.072266	0.562810	0.479096	-0.619342	0.264814
62356		9.306452	2.110982	-2.180637	0.018646	0.004657	-0.011916	-0.572510	-0.585449	-0.078857	0.562727	0.479189	-0.619247	0.265047
62357		9.330845	2.124254	-2.137630	0.003540	0.001621	-0.014409	-0.581299	-0.578125	-0.078125	0.562785	0.479237	-0.619141	0.265085
62358		9.330527	2.062550	-2.179361	-0.008178	-0.002575	-0.009157	-0.587158	-0.583252	-0.078369	0.562846	0.479099	-0.619220	0.265021
62359		9.302393	2.036252	-2.247865	0.011100	-0.000940	-0.010803	-0.587646	-0.571045	-0.075439	0.562805	0.479108	-0.619212	0.265110
62360		9.307889	2.053735	-2.244525	0.025369	0.005660	-0.016357	-0.583252	-0.577393	-0.081543	0.562726	0.479195	-0.619131	0.265308
62361		9.333105	2.046165	-2.195438	0.015255	-0.002549	-0.012644	-0.581543	-0.583984	-0.086670	0.562682	0.479197	-0.619150	0.265354
62362		9.346576	2.052292	-2.212727	0.014040	-0.001790	-0.008010	-0.579346	-0.579590	-0.080322	0.562676	0.479139	-0.619187	0.265385
62363		9.325017	2.068736	-2.192775	0.024256	-0.003823	-0.009454	-0.574707	-0.579834	-0.081787	0.562554	0.479230	-0.619160	0.265542
62364		9.289478	2.110621	-2.178247	0.022766	-0.002591	-0.011186	-0.582764	-0.578857	-0.078613	0.562473	0.479323	-0.619107	0.265669
62365		9.286185	2.094028	-2.205202	0.020157	-0.003591	-0.009252	-0.581543	-0.582520	-0.083740	0.562363	0.479379	-0.619105	0.265806
62366		9.337447	2.105216	-2.182705	0.019245	-0.008346	-0.002556	-0.586670	-0.578125	-0.080322	0.562242	0.479354	-0.619194	0.265899
62367		9.338367	2.128570	-2.183252	0.019620	-0.004327	-0.002717	-0.581543	-0.586914	-0.078613	0.562120	0.479314	-0.619275	0.266042
62368		9.312982	2.087390	-2.153081	0.008822	-0.003789	-0.004144	-0.586670	-0.580078	-0.085938	0.562071	0.479293	-0.619295	0.266137
62369		9.288492	2.071366	-2.228187	0.002309	-0.010556	-0.003932	-0.583252	-0.580566	-0.073730	0.562052	0.479104	-0.619503	0.266032
62370		9.298384	2.093985	-2.262869	0.013568	-0.009160	-0.005118	-0.581787	-0.582275	-0.069336	0.561895	0.479165	-0.619537	0.266175
62371		9.288399	2.111312	-2.268801	0.011208	-0.006820	-0.005041	-0.582275	-0.575928	-0.072754	0.561742	0.479266	-0.619513	0.266370
62372		9.297509	2.124706	-2.181533	0.012822	-0.004259	-0.010656	-0.576416	-0.579590	-0.070312	0.561643	0.479336	-0.619497	0.266493
62373		9.306789	2.074739	-2.188606	-0.002034	-0.005114	-0.011200	-0.586182	-0.584473	-0.073486	0.561618	0.479381	-0.619466	0.266536
62374		9.352360	2.022689	-2.247510	-0.009839	-0.009037	-0.003896	-0.577881	-0.573242	-0.080811	0.561601	0.479272	-0.619579	0.266504
62375		9.379619	1.973009	-2.238908	-0.003522	-0.008107	-0.000104	-0.577393	-0.577881	-0.077393	0.561599	0.479064	-0.619766	0.266447
62376		9.356769	1.949854	-2.236921	-0.000504	-0.005788	0.002241	-0.584229	-0.579102	-0.078613	0.561565	0.478926	-0.619880	0.266502
62377		9.331287	2.002287	-2.186809	-0.003613	-0.012582	0.006422	-0.588623	-0.581543	-0.072754	0.561485	0.478720	-0.620112	0.266502
62378		9.328586	2.027854	-2.219729	-0.013847	-0.015120	0.006691	-0.580566	-0.582275	-0.079102	0.561400	0.478514	-0.620356	0.266482
62379		9.305558	2.019223	-2.256031	-0.003824	-0.010056	0.003387	-0.587158	-0.573242	-0.080078	0.561358	0.478360	-0.620511	0.266487
62380		9.296442	1.985448	-2.287043	0.009737	-0.008499	-0.000039	-0.583008	-0.581543	-0.074219	0.561260	0.478228	-0.620681	0.266534
62381		9.369738	2.009103	-2.200183	0.015635	-0.003631	0.001466	-0.583984	-0.574219	-0.082520	0.561121	0.478248	-0.620689	0.266769
62382		9.343989	2.001380	-2.161096	0.005258	-0.009251	0.009900	-0.583740	-0.573486	-0.084961	0.561033	0.478004	-0.620934	0.266824
62383		9.324118	2.008503	-2.172060	-0.011092	-0.011087	0.015205	-0.582031	-0.576416	-0.074707	0.561029	0.477583	-0.621294	0.266748
62384		9.299539	2.069198	-2.243522	-0.027882	-0.018779	0.015035	-0.584717	-0.579346	-0.079834	0.560992	0.477224	-0.621651	0.266637
62385		9.315813	2.105820	-2.274093	-0.029119	-0.012896	0.005368	-0.588135	-0.575928	-0.079834	0.561075	0.476862	-0.621944	0.266427
62386		9.356253	2.066793	-2.250331	-0.011510	-0.001408	-0.008276	-0.583496	-0.579102	-0.075928	0.561181	0.476664	-0.622046	0.266319
62387		9.395891	1.910208	-2.193957	-0.011985	0.003922	-0.008921	-0.583496	-0.576172	-0.074219	0.561309	0.476540	-0.622034	0.266301
62388		9.356840	1.831920	-2.261317	-0.020840	-0.003607	0.000416	-0.577148	-0.576660	-0.074951	0.561384	0.476313	-0.622160	0.266253
62389		9.312229	1.875719	-2.264820	-0.015782	-0.009029	0.001194	-0.589600	-0.573975	-0.080322	0.561393	0.476164	-0.622279	0.266224
62390		9.338716	1.985693	-2.247640	-0.008073	-0.008482	-0.003371	-0.586670	-0.582275	-0.070068	0.561402	0.475969	-0.622457	0.266136
62391		9.311307	1.923073	-2.272696	0.001556	-0.005431	-0.011779	-0.584717	-0.576416	-0.081543	0.561335	0.476083	-0.622387	0.266238
62392		9.319607	1.938794	-2.292583	0.021140	-0.007951	-0.017506	-0.589844	-0.584229	-0.078369	0.561233	0.476229	-0.622346	0.266286
62393		9.321034	2.024203	-2.227340	0.027458	0.005886	-0.019557	-0.583496	-0.574951	-0.083496	0.561182	0.476450	-0.622131	0.266503
62394		9.332113	1.998697	-2.178177	0.021232	0.000885	-0.020538	-0.581299	-0.581299	-0.081787	0.561177	0.476558	-0.622033	0.266550
62395		9.336483	1.988764	-2.208198	0.004120	-0.006964	-0.020175	-0.589844	-0.577393	-0.086670	0.561200	0.476638	-0.621987	0.266463
62396		9.348943	1.982955	-2.242159	0.002771	-0.005973	-0.018719	-0.588379	-0.580322	-0.083252	0.561261	0.476574	-0.622051	0.266300
62397		9.331597	2.023351	-2.241557	0.009095	-0.005045	-0.014937	-0.581543	-0.580078	-0.080078	0.561257	0.476583	-0.622062	0.266267
62398		9.332128	2.065079	-2.224818	0.008224	-0.002823	-0.016908	-0.583008	-0.574463	-0.074707	0.561266	0.476658	-0.621995	0.266271
62399		9.329967	2.030101	-2.190213	-0.005339	-0.003286	-0.017246	-0.589600	-0.577881	-0.074463	0.561316	0.476657	-0.621978	0.266206
62400		9.331851	1.972669	-2.223378	-0.011182	-0.005404	-0.014596	-0.585205	-0.570068	-0.083740	0.561368	0.476596	-0.622021	0.266106
62401		9.347809	1.949025	-2.294070	-0.003367	-0.004585	-0.012869	-0.586426	-0.583252	-0.079102	0.561441	0.476444	-0.622134	0.265961
62402		9.328616	1.985798	-2.248077	0.015014	0.000471	-0.020341	-0.584229	-0.573730	-0.084473	0.561432	0.476594	-0.621996	0.266033
62403		9.305750	2.010999	-2.196664	0.013728	0.000283	-0.022821	-0.585449	-0.581299	-0.071533	0.561478	0.476644	-0.621936	0.265986
62404		9.336140	2.036764	-2.234922	0.004133	-0.002384	-0.018997	-0.590332	-0.574463	-0.088379	0.561458	0.476787	-0.621820	0.266044
62405		9.349201	2.015821	-2.230223	0.006629	0.001617	-0.019975	-0.580811	-0.575928	-0.075928	0.561568	0.476693	-0.621846	0.265918
62406		9.299076	1.997182	-2.208089	0.009618	0.005955	-0.022900	-0.583008	-0.581299	-0.090576	0.561627	0.476817	-0.621671	0.265982
62407		9.333146	2.005909	-2.229735	0.004656	-0.002732	-0.021766	-0.582764	-0.577393	-0.076660	0.561740	0.476789	-0.621663	0.265811
62408		9.355591	2.057449	-2.232012	0.001144	-0.001046	-0.018673	-0.589111	-0.576416	-0.082031	0.561782	0.476834	-0.621599	0.265790
62409		9.302268	2.040379	-2.188620	0.001596	0.004111	-0.014011	-0.585449	-0.579102	-0.083008	0.561877	0.476736	-0.621600	0.265764
62410		9.313592	2.075074	-2.179984	-0.015272	0.004990	-0.015787	-0.589111	-0.574463	-0.081299	0.562094	0.476553	-0.621613	0.265603
62411		9.296898	2.051921	-2.271184	-0.035335	-0.002716	-0.011298	-0.580322	-0.582031	-0.079102	0.562336	0.476202	-0.621801	0.265280
62412		9.286562	1.965290	-2.417201	-0.019755	-0.002448	-0.018089	-0.579834	-0.571045	-0.079346	0.562501	0.476124	-0.621791	0.265095
62413		9.316525	1.937429	-2.381816	0.024354	0.005350	-0.022611	-0.591553	-0.578857	-0.078369	0.562477	0.476307	-0.621611	0.265240
62414		9.347647	1.951778	-2.244332	0.052696	0.013845	-0.022723	-0.583252	-0.581055	-0.085693	0.562334	0.476661	-0.621285	0.265668
62415		9.334831	2.017524	-2.177042	0.043519	0.013792	-0.020702	-0.586670	-0.577393	-0.081543	0.562299	0.476897	-0.621007	0.265966
62416		9.349681	2.092684	-2.142897	0.021198	0.000633	-0.015978	-0.580811	-0.576416	-0.073730	0.562250	0.476989	-0.620935	0.266075
62417		9.320469	2.130227	-2.170343	0.011277	-0.002443	-0.009312	-0.591064	-0.577637	-0.077881	0.562166	0.477073	-0.620880	0.266230
62418		9.305840	2.097767	-2.186918	0.013196	0.003730	-0.010500	-0.586914	-0.579346	-0.080566	0.562144	0.477074	-0.620842	0.266366
62419		9.324336	2.036341	-2.212101	0.006040	0.001859	-0.007199	-0.583496	-0.578613	-0.082275	0.562160	0.477004	-0.620848	0.266440
62420		9.330253	2.023214	-2.187004	0.002416	0.001961	-0.004322	-0.584717	-0.579346	-0.087891	0.562204	0.476880	-0.620882	0.266490
62421		9.335910	2.054257	-2.167721	0.002630	-0.004212	-0.003952	-0.578857	-0.576660	-0.087158	0.562234	0.476716	-0.621000	0.266446
62422		9.322427	2.029966	-2.199043	-0.002928	-0.004619	-0.002491	-0.587402	-0.569092	-0.080078	0.562288	0.476523	-0.621129	0.266376
62423		9.321892	2.030937	-2.200413	-0.009449	-0.009828	-0.002922	-0.590820	-0.571777	-0.082031	0.562283	0.476311	-0.621338	0.266280
62424		9.318538	2.088771	-2.200202	-0.006975	-0.009248	-0.008881	-0.582520	-0.573242	-0.071533	0.562298	0.476141	-0.621512	0.266145
62425		9.352551	2.071278	-2.117733	-0.008022	-0.002453	-0.010557	-0.577148	-0.580811	-0.078857	0.562311	0.476122	-0.621504	0.266172
62426		9.394490	1.940119	-2.166121	-0.019809	0.002087	-0.009173	-0.584229	-0.572754	-0.081787	0.562482	0.475973	-0.621502	0.266081
62427		9.346695	1.878477	-2.237005	-0.031883	-0.009614	-0.000939	-0.578857	-0.572510	-0.081543	0.562617	0.475611	-0.621766	0.265826
62428		9.351240	1.955201	-2.277265	-0.016564	-0.012172	-0.002753	-0.582275	-0.570801	-0.084717	0.562647	0.475412	-0.621954	0.265678
62429		9.328621	1.977888	-2.226291	-0.007578	-0.001835	-0.007085	-0.583984	-0.580566	-0.082031	0.562736	0.475219	-0.622060	0.265587
62430		9.344701	1.958168	-2.212872	-0.000910	-0.004843	-0.009629	-0.588623	-0.575439	-0.083008	0.562750	0.475183	-0.622082	0.265570
62431		9.356978	1.956081	-2.215500	-0.000047	-0.001396	-0.010253	-0.582275	-0.579834	-0.081299	0.562789	0.475088	-0.622129	0.265546
62432		9.317523	1.956946	-2.226267	0.012331	0.000522	-0.012184	-0.584961	-0.578125	-0.082275	0.562770	0.475162	-0.622043	0.265657
62433		9.348126	2.010483	-2.232877	0.023809	-0.003731	-0.017653	-0.584961	-0.573730	-0.077881	0.562672	0.475341	-0.621945	0.265774
62434		9.341575	2.027123	-2.205381	0.013924	0.002000	-0.014029	-0.585938	-0.576172	-0.083252	0.562636	0.475423	-0.621857	0.265909
62435		9.303034	2.051944	-2.214575	0.006593	-0.003708	-0.011981	-0.591553	-0.575928	-0.082764	0.562630	0.475405	-0.621876	0.265910
62436		9.305856	2.081413	-2.204155	0.001620	0.002332	-0.011060	-0.583008	-0.580078	-0.082764	0.562689	0.475305	-0.621899	0.265911
62437		9.341281	2.013838	-2.198655	-0.005964	0.003481	-0.008556	-0.579834	-0.576660	-0.084961	0.562800	0.475191	-0.621889	0.265903
62438		9.333540	1.977375	-2.257102	0.000254	-0.000333	-0.012274	-0.581055	-0.579102	-0.086182	0.562872	0.475137	-0.621880	0.265868
62439		9.338757	2.010269	-2.237610	0.010687	0.000882	-0.013321	-0.586670	-0.577148	-0.081299	0.562902	0.475157	-0.621821	0.265907
62440		9.354229	2.040304	-2.144833	0.011016	0.004464	-0.008875	-0.586670	-0.573730	-0.079346	0.562904	0.475150	-0.621766	0.266042
62441		9.327098	1.997047	-2.174636	-0.000692	0.001714	-0.004213	-0.582031	-0.576904	-0.079346	0.562927	0.475035	-0.621801	0.266117
62442		9.341635	2.012152	-2.205405	-0.002851	-0.005783	-0.006436	-0.584717	-0.575439	-0.091797	0.562914	0.474990	-0.621841	0.266132
62443		9.346964	2.028887	-2.202630	0.007726	-0.000048	-0.005409	-0.583252	-0.579102	-0.091797	0.562960	0.474840	-0.621917	0.266125
62444		9.334180	2.034071	-2.147590	0.009509	0.000707	-0.007185	-0.588379	-0.575439	-0.077881	0.563009	0.474741	-0.621944	0.266135
62445		9.353865	2.026034	-2.139463	-0.002906	-0.004187	-0.007104	-0.589111	-0.573975	-0.081543	0.562994	0.474680	-0.621992	0.266163
62446		9.321669	1.977053	-2.187663	-0.016937	-0.001252	-0.005110	-0.589600	-0.578125	-0.083740	0.563103	0.474446	-0.622113	0.266067
62447		9.358645	1.971808	-2.216641	-0.005198	-0.004160	-0.007171	-0.579834	-0.567383	-0.090820	0.563139	0.474322	-0.622194	0.266021
62448		9.345572	1.948429	-2.194136	0.013484	0.000094	-0.011420	-0.591553	-0.577637	-0.089844	0.563165	0.474258	-0.622219	0.266022
62449		9.353215	1.954147	-2.198399	0.014127	0.000195	-0.010180	-0.589844	-0.576904	-0.077881	0.563169	0.474203	-0.622241	0.266059
62450		9.361787	1.998275	-2.185061	0.003999	-0.004944	-0.007727	-0.587891	-0.579346	-0.090088	0.563105	0.474211	-0.622258	0.266142
62451		9.340068	2.000209	-2.180716	0.002969	-0.003819	-0.006798	-0.587646	-0.578613	-0.072266	0.563139	0.474087	-0.622341	0.266097
62452		9.341893	1.975254	-2.205197	0.005451	-0.004560	-0.006665	-0.578613	-0.577637	-0.088379	0.563031	0.474176	-0.622296	0.266271
62453		9.315350	1.985624	-2.202555	0.011762	-0.002032	-0.011287	-0.587158	-0.574219	-0.085205	0.563037	0.474195	-0.622263	0.266304
62454		9.325299	2.009339	-2.182177	0.011890	-0.001369	-0.009583	-0.588867	-0.568848	-0.087402	0.563013	0.474179	-0.622269	0.266369
62455		9.344842	2.001275	-2.174845	0.013005	-0.004994	-0.008356	-0.589111	-0.568115	-0.090088	0.562962	0.474115	-0.622354	0.266391
62456		9.326360	2.015290	-2.176493	0.005057	-0.006970	-0.007169	-0.594727	-0.572998	-0.069824	0.562957	0.473960	-0.622509	0.266316
62457		9.339614	2.021156	-2.194356	0.001246	-0.006170	-0.004352	-0.584473	-0.568848	-0.078125	0.562830	0.473982	-0.622540	0.266474
62458		9.324756	1.978697	-2.144073	-0.002177	-0.006592	-0.003704	-0.587646	-0.572266	-0.085938	0.562784	0.473902	-0.622625	0.266512
62459		9.328427	1.971324	-2.197675	-0.003676	-0.010355	-0.002008	-0.589355	-0.572754	-0.080811	0.562764	0.473731	-0.622804	0.266442
62460		9.364601	2.023930	-2.218146	-0.001678	-0.011220	-0.002231	-0.580566	-0.570068	-0.085693	0.562689	0.473632	-0.622947	0.266440
62461		9.349186	2.055442	-2.141224	0.005066	-0.003114	-0.006806	-0.580811	-0.570068	-0.084473	0.562693	0.473560	-0.622992	0.266456
62462		9.337070	2.011511	-2.165328	-0.011983	-0.006394	-0.007504	-0.584961	-0.573486	-0.078125	0.562766	0.473399	-0.623103	0.266329
62463		9.320008	1.961645	-2.207342	-0.020385	-0.009406	-0.005179	-0.584229	-0.570801	-0.082764	0.562811	0.473243	-0.623230	0.266213
62464		9.334639	1.889026	-2.281786	-0.014630	-0.005837	-0.006218	-0.590332	-0.572998	-0.076416	0.562883	0.473066	-0.623348	0.266099
62465		9.358526	1.932552	-2.261060	0.003685	-0.001019	-0.009140	-0.587891	-0.575928	-0.079346	0.562845	0.473082	-0.623323	0.266208
62466		9.395799	1.917425	-2.169224	0.006750	-0.000281	-0.006131	-0.583252	-0.566162	-0.082031	0.562807	0.473089	-0.623294	0.266345
62467		9.355525	1.908020	-2.166059	-0.008695	-0.007059	-0.005249	-0.587158	-0.575928	-0.082031	0.562828	0.472937	-0.623421	0.266274
62468		9.327778	1.948271	-2.238042	-0.011825	-0.006636	-0.004314	-0.585938	-0.573242	-0.083008	0.562861	0.472799	-0.623520	0.266215
62469		9.327770	1.920518	-2.217656	0.012206	-0.000970	-0.012439	-0.587646	-0.573486	-0.080811	0.562831	0.472857	-0.623466	0.266306
62470		9.324681	1.904570	-2.243728	0.023825	-0.000871	-0.013549	-0.593262	-0.581055	-0.080811	0.562721	0.473020	-0.623358	0.266500
62471		9.369417	1.991776	-2.181465	0.023592	-0.003307	-0.013170	-0.589355	-0.575684	-0.085938	0.562587	0.473208	-0.623253	0.266695
62472		9.345790	1.990765	-2.132630	0.009267	-0.001262	-0.011439	-0.586914	-0.569580	-0.086426	0.562587	0.473202	-0.623240	0.266734
62473		9.341030	1.980818	-2.182292	0.005315	-0.008828	-0.011057	-0.595947	-0.565918	-0.089111	0.562558	0.473157	-0.623326	0.266676
62474		9.336051	1.970900	-2.232797	0.007121	-0.008971	-0.011351	-0.597900	-0.568848	-0.090088	0.562531	0.473038	-0.623484	0.266574
62475		9.347122	1.989140	-2.190726	0.006443	-0.008597	-0.009465	-0.589355	-0.575928	-0.080566	0.562507	0.472900	-0.623650	0.266481
62476		9.329931	1.997995	-2.169413	0.009449	-0.005821	-0.011744	-0.587158	-0.566650	-0.085693	0.562440	0.472969	-0.623630	0.266547
62477		9.341871	1.996107	-2.173572	0.012834	-0.008330	-0.014254	-0.594482	-0.574951	-0.085693	0.562377	0.472992	-0.623678	0.266528
62478		9.333604	1.989120	-2.202076	0.007871	-0.003014	-0.014146	-0.583984	-0.572510	-0.076660	0.562380	0.472975	-0.623694	0.266512
62479		9.331663	1.929691	-2.169636	-0.005979	-0.008562	-0.012782	-0.581543	-0.575684	-0.086914	0.562366	0.472996	-0.623708	0.266473
62480		9.371227	1.923119	-2.222044	-0.012242	-0.011798	-0.008961	-0.590576	-0.574219	-0.080322	0.562419	0.472873	-0.623830	0.266294
62481		9.337233	1.924378	-2.246013	-0.003166	-0.001871	-0.007840	-0.592285	-0.572510	-0.090820	0.562442	0.472797	-0.623861	0.266308
62482		9.363919	1.888084	-2.176530	0.009090	-0.009123	-0.010767	-0.589600	-0.573486	-0.088135	0.562411	0.472731	-0.623969	0.266237
62483		9.358323	1.907904	-2.247489	0.000607	-0.001746	-0.012158	-0.589600	-0.576904	-0.077637	0.562478	0.472635	-0.624011	0.266167
62484		9.368079	1.879068	-2.207509	-0.001201	-0.005670	-0.009923	-0.592529	-0.567627	-0.082275	0.562449	0.472651	-0.624012	0.266198
62485		9.308393	1.897856	-2.294625	-0.002425	0.000013	-0.008692	-0.591309	-0.569092	-0.097656	0.562496	0.472520	-0.624074	0.266185
62486		9.394622	1.975961	-2.227961	0.018387	0.003477	-0.012344	-0.593506	-0.569336	-0.082520	0.562557	0.472410	-0.624108	0.266172
62487		9.369983	1.926996	-2.180978	0.031551	0.009638	-0.014140	-0.588379	-0.573242	-0.081787	0.562494	0.472539	-0.623949	0.266449
62488		9.290028	1.975213	-2.176346	0.014127	-0.000182	-0.013365	-0.586426	-0.577881	-0.090088	0.562457	0.472615	-0.623879	0.266557
62489		9.294603	2.062002	-2.177843	0.004964	-0.007617	-0.016639	-0.585205	-0.573242	-0.085449	0.562483	0.472618	-0.623901	0.266447
62490		9.322014	2.015830	-2.222522	0.008187	-0.002609	-0.017003	-0.583984	-0.563721	-0.086182	0.562500	0.472660	-0.623859	0.266431
62491		9.347968	1.936993	-2.254211	0.023798	0.000119	-0.022844	-0.587646	-0.572021	-0.086426	0.562468	0.472804	-0.623755	0.266488
62492		9.373383	2.016045	-2.192707	0.020628	0.005505	-0.025344	-0.588135	-0.568359	-0.078125	0.562508	0.472943	-0.623591	0.266540
62493		9.372391	2.025954	-2.108837	0.009635	0.001638	-0.015587	-0.588135	-0.568359	-0.085938	0.562495	0.473011	-0.623510	0.266635
62494		9.345133	1.969039	-2.155469	-0.001320	-0.006334	-0.011627	-0.586670	-0.576416	-0.083008	0.562522	0.472913	-0.623601	0.266539
62495		9.339280	1.950837	-2.191183	-0.007927	-0.012256	-0.013732	-0.583984	-0.568115	-0.081055	0.562534	0.472877	-0.623682	0.266390
62496		9.337342	1.939603	-2.262801	0.001676	-0.007169	-0.016590	-0.585205	-0.577148	-0.081543	0.562524	0.472911	-0.623687	0.266338
62497		9.364219	1.997451	-2.195423	0.023697	-0.001616	-0.020768	-0.588623	-0.574463	-0.080322	0.562447	0.473142	-0.623526	0.266468
62498		9.359637	2.033562	-2.143158	0.017560	0.000286	-0.021799	-0.587891	-0.582520	-0.081787	0.562415	0.473315	-0.623387	0.266556
62499		9.354699	1.987065	-2.156474	-0.002458	-0.005905	-0.020156	-0.588623	-0.576416	-0.086426	0.562459	0.473377	-0.623340	0.266461
62500		9.339212	1.933317	-2.175327	-0.013929	-0.009491	-0.015361	-0.586182	-0.572021	-0.084229	0.562554	0.473255	-0.623446	0.266230
62501		9.384376	1.928587	-2.239809	-0.009932	-0.007560	-0.013144	-0.589844	-0.569336	-0.079590	0.562619	0.473150	-0.623533	0.266075
62502		9.376085	1.928100	-2.183883	0.003188	-0.004508	-0.014505	-0.587158	-0.575439	-0.085693	0.562602	0.473160	-0.623542	0.266071
62503		9.347444	1.945342	-2.204460	0.006480	-0.004931	-0.014563	-0.587891	-0.570557	-0.085938	0.562603	0.473173	-0.623544	0.266042
62504		9.321881	1.974889	-2.230643	0.003096	-0.006069	-0.014722	-0.585449	-0.571777	-0.083496	0.562616	0.473138	-0.623591	0.265965
62505		9.333248	1.964598	-2.219553	-0.002066	-0.004361	-0.010417	-0.588379	-0.573730	-0.076904	0.562645	0.473067	-0.623638	0.265920
62506		9.360831	1.962476	-2.215587	0.003311	-0.003622	-0.015113	-0.595459	-0.572998	-0.085938	0.562621	0.473134	-0.623593	0.265957
62507		9.331356	1.970902	-2.221916	0.011573	-0.005250	-0.017236	-0.586670	-0.578613	-0.080566	0.562593	0.473159	-0.623611	0.265930
62508		9.343275	1.984907	-2.208962	0.011451	0.000877	-0.016731	-0.588135	-0.578613	-0.086182	0.562587	0.473271	-0.623494	0.266019
62509		9.363257	2.017655	-2.183278	0.012204	-0.001297	-0.015637	-0.591309	-0.573486	-0.084961	0.562588	0.473326	-0.623438	0.266049
62510		9.331674	2.007682	-2.213928	-0.011481	-0.005907	-0.011743	-0.583252	-0.568848	-0.086182	0.562671	0.473173	-0.623546	0.265891
62511		9.351313	1.987197	-2.221918	-0.011555	-0.004310	-0.012418	-0.587891	-0.573242	-0.086670	0.562781	0.473019	-0.623634	0.265727
62512		9.333445	1.920202	-2.233963	-0.001330	0.001137	-0.016362	-0.583740	-0.569580	-0.087402	0.562884	0.472951	-0.623627	0.265649
62513		9.353560	1.938721	-2.223805	0.006973	-0.001389	-0.016994	-0.591064	-0.581055	-0.083496	0.562926	0.472947	-0.623609	0.265608
62514		9.352571	1.956715	-2.208527	0.011042	-0.001047	-0.014104	-0.592529	-0.570801	-0.090576	0.562910	0.473010	-0.623547	0.265673
62515		9.353883	1.992585	-2.168312	0.008070	-0.000466	-0.014582	-0.590820	-0.569092	-0.086670	0.562958	0.472933	-0.623584	0.265623
62516		9.312312	2.013987	-2.185865	-0.007407	-0.001964	-0.013942	-0.582764	-0.572998	-0.090576	0.563059	0.472787	-0.623661	0.265488
62517		9.341324	1.968423	-2.175542	-0.012595	-0.002984	-0.013801	-0.592041	-0.578857	-0.085938	0.563213	0.472614	-0.623740	0.265284
62518		9.349268	1.917007	-2.243373	0.000385	-0.000543	-0.016881	-0.587402	-0.574463	-0.088867	0.563285	0.472586	-0.623722	0.265223
62519		9.357620	1.957861	-2.259926	0.015171	0.001777	-0.020260	-0.591553	-0.568848	-0.083008	0.563318	0.472654	-0.623635	0.265237
62520		9.376434	1.964339	-2.137032	0.014635	0.005953	-0.017121	-0.585449	-0.582031	-0.082520	0.563333	0.472704	-0.623538	0.265345
62521		9.342566	1.965594	-2.159647	0.000796	-0.002422	-0.012117	-0.586182	-0.570557	-0.083252	0.563357	0.472716	-0.623502	0.265354
62522		9.344114	2.019451	-2.202049	-0.000112	-0.007213	-0.014003	-0.591553	-0.571777	-0.083740	0.563353	0.472704	-0.623541	0.265296
62523		9.321805	1.984163	-2.215086	0.008380	-0.000050	-0.017443	-0.586914	-0.578369	-0.084717	0.563365	0.472734	-0.623499	0.265312
62524		9.315914	1.995594	-2.217695	0.021034	-0.001133	-0.017217	-0.592773	-0.577637	-0.083252	0.563306	0.472886	-0.623389	0.265425
62525		9.350440	2.018606	-2.171252	0.015734	0.000119	-0.016931	-0.583008	-0.566162	-0.085693	0.563275	0.472982	-0.623308	0.265512
62526		9.338566	2.005541	-2.162386	0.004046	0.001466	-0.016454	-0.587891	-0.572021	-0.093506	0.563339	0.472955	-0.623281	0.265488
62527		9.343135	1.971120	-2.193243	0.005356	-0.005101	-0.016182	-0.587891	-0.574219	-0.088623	0.563389	0.472882	-0.623345	0.265360
62528		9.347762	1.975126	-2.207275	0.016529	-0.002726	-0.016659	-0.594238	-0.572998	-0.079590	0.563364	0.472942	-0.623312	0.265383
62529		9.357348	1.985446	-2.203106	0.014052	0.000912	-0.014932	-0.592041	-0.578369	-0.083496	0.563316	0.473023	-0.623241	0.265508
62530		9.340044	2.009716	-2.164407	0.009430	-0.001586	-0.013757	-0.587646	-0.579346	-0.082764	0.563302	0.473055	-0.623210	0.265553
62531		9.341783	2.001170	-2.172607	0.003713	-0.005007	-0.014996	-0.581787	-0.569580	-0.089355	0.563299	0.473093	-0.623191	0.265538
62532		9.339946	2.003808	-2.227465	-0.000815	-0.006170	-0.011291	-0.591309	-0.577393	-0.089600	0.563340	0.472996	-0.623272	0.265435
62533		9.335437	1.985334	-2.208864	0.003640	-0.003634	-0.013359	-0.584229	-0.576904	-0.080811	0.563379	0.472928	-0.623318	0.265363
62534		9.336386	1.982546	-2.186606	0.009427	-0.001574	-0.013763	-0.590820	-0.569092	-0.093506	0.563353	0.473010	-0.623245	0.265444
62535		9.348982	2.004978	-2.188005	0.008704	-0.003464	-0.012902	-0.590820	-0.574463	-0.074707	0.563382	0.472909	-0.623328	0.265369
62536		9.335182	2.011280	-2.187140	0.002974	-0.003501	-0.009149	-0.585205	-0.578857	-0.077393	0.563319	0.472950	-0.623307	0.265478
62537		9.336450	1.993232	-2.180995	-0.001982	-0.005721	-0.012067	-0.578369	-0.572266	-0.086670	0.563303	0.472990	-0.623285	0.265493
62538		9.341384	1.981959	-2.211101	-0.000377	-0.008278	-0.011973	-0.580566	-0.576660	-0.083740	0.563314	0.472958	-0.623334	0.265412
62539		9.338412	1.966351	-2.237177	0.005171	-0.001659	-0.012094	-0.587891	-0.570557	-0.088135	0.563327	0.472981	-0.623290	0.265445
62540		9.348991	1.937862	-2.197011	0.007544	-0.003233	-0.011365	-0.585449	-0.578857	-0.083252	0.563329	0.472930	-0.623333	0.265433
62541		9.366942	1.975691	-2.195223	0.003848	-0.004563	-0.010977	-0.585205	-0.577881	-0.090820	0.563318	0.472940	-0.623328	0.265449
62542		9.339775	2.000788	-2.176627	0.007590	-0.004139	-0.009869	-0.585693	-0.569336	-0.079590	0.563329	0.472891	-0.623364	0.265428
62543		9.314006	2.028946	-2.202726	-0.000330	-0.006028	-0.010942	-0.591797	-0.568848	-0.084473	0.563304	0.472879	-0.623395	0.265429
62544		9.331159	2.019531	-2.204484	-0.004472	-0.008178	-0.011725	-0.588867	-0.570557	-0.082764	0.563315	0.472779	-0.623506	0.265323
62545		9.334503	1.942544	-2.208739	-0.003060	-0.003933	-0.010314	-0.586914	-0.574219	-0.085693	0.563338	0.472699	-0.623562	0.265286
62546		9.345391	1.931519	-2.250576	0.005496	-0.001709	-0.010320	-0.585449	-0.572266	-0.085693	0.563348	0.472664	-0.623570	0.265307
62547		9.359313	1.977600	-2.196850	0.010480	-0.003094	-0.010078	-0.577393	-0.574219	-0.082520	0.563316	0.472666	-0.623575	0.265360
62548		9.375647	1.988366	-2.151747	0.004008	-0.001428	-0.010558	-0.589355	-0.568604	-0.087891	0.563326	0.472687	-0.623528	0.265412
62549		9.325916	1.965116	-2.184041	0.003214	-0.008039	-0.009441	-0.586426	-0.577637	-0.089600	0.563306	0.472601	-0.623637	0.265352
62550		9.346159	1.967413	-2.191384	0.005935	-0.003815	-0.011003	-0.585693	-0.580811	-0.090088	0.563324	0.472559	-0.623664	0.265326
62551		9.328231	1.975741	-2.222224	0.012715	0.001004	-0.011997	-0.586670	-0.574463	-0.082764	0.563348	0.472564	-0.623618	0.265373
62552		9.344804	2.010420	-2.175542	0.017135	-0.002072	-0.012322	-0.594482	-0.566162	-0.081787	0.563275	0.472660	-0.623557	0.265499
62553		9.343749	2.027340	-2.160973	0.007105	-0.004255	-0.010230	-0.586182	-0.572998	-0.079834	0.563224	0.472629	-0.623610	0.265540
62554		9.343065	1.990882	-2.179628	0.004600	-0.003337	-0.012670	-0.584717	-0.573730	-0.090332	0.563201	0.472667	-0.623583	0.265584
62555		9.342018	1.969816	-2.182208	0.007845	-0.002812	-0.014237	-0.576660	-0.570801	-0.083984	0.563231	0.472644	-0.623590	0.265545
62556		9.352674	1.959011	-2.224778	0.010791	-0.005835	-0.012478	-0.590332	-0.580566	-0.080811	0.563181	0.472718	-0.623560	0.265590
62557		9.346263	1.960153	-2.213866	0.014256	-0.003321	-0.009804	-0.595703	-0.575928	-0.086182	0.563099	0.472802	-0.623514	0.265723
62558		9.352866	1.995904	-2.187416	0.012205	-0.004741	-0.010604	-0.587158	-0.574463	-0.086426	0.563046	0.472796	-0.623549	0.265762
62559		9.354401	2.001414	-2.180274	0.007178	-0.005611	-0.011875	-0.582275	-0.575928	-0.085205	0.563028	0.472788	-0.623576	0.265751
62560		9.343502	1.981350	-2.202684	-0.000531	-0.005310	-0.011014	-0.592529	-0.570312	-0.082520	0.563053	0.472752	-0.623601	0.265706
