// Start Time: Unknown
// Update Rate: 40.0Hz
// Filter Profile: human (46.1)
// Firmware Version: 4.3.4
PacketCounter	SampleTimeFine	Acc_X	Acc_Y	Acc_Z	Gyr_X	Gyr_Y	Gyr_Z	Mag_X	Mag_Y	Mag_Z	Quat_q0	Quat_q1	Quat_q2	Quat_q3
23208		9.588607	-0.023214	0.998010	0.001098	0.007797	-0.002602	-0.720947	0.547119	0.213135	0.378549	-0.576901	-0.339812	-0.639073
23209		9.595160	-0.009424	1.015607	0.001550	0.004185	-0.003152	-0.718994	0.551514	0.208740	0.378553	-0.576847	-0.339827	-0.639111
23210		9.608816	-0.014313	0.997744	0.006649	0.002734	-0.003738	-0.718994	0.553467	0.212891	0.378590	-0.576776	-0.339892	-0.639119
23211		9.628587	-0.036980	1.015211	0.003959	0.002270	-0.003833	-0.712402	0.547119	0.217529	0.378635	-0.576700	-0.339937	-0.639137
23212		9.615768	-0.040428	1.013419	0.003416	0.006223	-0.004931	-0.716553	0.542969	0.213379	0.378647	-0.576613	-0.339970	-0.639191
23213		9.597008	-0.003906	1.041103	0.001968	0.005100	-0.004296	-0.716797	0.547119	0.215332	0.378651	-0.576544	-0.339990	-0.639240
23214		9.595193	-0.013776	1.034187	0.003135	0.003842	-0.005707	-0.718750	0.547119	0.215332	0.378647	-0.576470	-0.340034	-0.639285
23215		9.608869	-0.018318	1.016255	0.002408	0.002430	-0.004349	-0.714600	0.549316	0.215332	0.378644	-0.576413	-0.340069	-0.639320
23216		9.608697	-0.048649	1.001151	-0.000187	0.003326	-0.004881	-0.714600	0.547119	0.215332	0.378622	-0.576359	-0.340082	-0.639375
23217		9.602024	-0.029093	1.001729	0.003843	0.004494	-0.004486	-0.725098	0.544922	0.213135	0.378641	-0.576281	-0.340114	-0.639416
23218		9.593622	-0.020704	0.994630	0.004138	0.005932	-0.004203	-0.720703	0.540771	0.217773	0.378670	-0.576192	-0.340141	-0.639466
23219		9.607257	-0.034698	1.026464	0.002683	0.007453	-0.005155	-0.714355	0.542969	0.217773	0.378684	-0.576098	-0.340156	-0.639533
23220		9.623149	-0.006499	1.047056	0.002683	0.007453	-0.005154	-0.710205	0.545166	0.217773	0.378704	-0.576008	-0.340165	-0.639598
23221		9.594287	-0.005317	1.042636	0.000631	0.004395	-0.004590	-0.714355	0.545166	0.208984	0.378703	-0.575951	-0.340166	-0.639650
23222		9.604601	-0.032469	1.008925	-0.003000	0.003381	-0.003552	-0.712402	0.547119	0.213135	0.378689	-0.575908	-0.340134	-0.639713
23223		9.597382	-0.003176	0.995671	0.000646	0.003454	-0.005085	-0.714355	0.545166	0.211182	0.378690	-0.575853	-0.340140	-0.639760
23224		9.592313	-0.013546	1.037386	0.002059	0.004758	-0.002644	-0.716553	0.540771	0.213379	0.378722	-0.575789	-0.340139	-0.639799
23225		9.607068	-0.038017	1.047191	0.002418	0.004131	-0.006426	-0.716797	0.549316	0.213135	0.378711	-0.575708	-0.340173	-0.639860
23226		9.599813	-0.039823	1.017991	-0.000787	0.001389	-0.004947	-0.714600	0.547119	0.213135	0.378704	-0.575674	-0.340172	-0.639895
23227		9.598734	0.003318	1.055640	0.000874	0.001648	-0.005358	-0.710205	0.547363	0.217529	0.378706	-0.575635	-0.340184	-0.639923
23228		9.615809	-0.010403	1.037312	-0.000559	-0.000417	-0.005222	-0.720703	0.542969	0.215576	0.378680	-0.575636	-0.340189	-0.639935
23229		9.594228	-0.027914	0.996900	0.002124	0.002693	-0.006707	-0.714355	0.540771	0.211182	0.378660	-0.575562	-0.340225	-0.639993
23230		9.588077	-0.017982	1.011106	0.002293	0.004654	-0.004998	-0.718994	0.549316	0.210938	0.378671	-0.575482	-0.340239	-0.640052
23231		9.585777	0.004233	1.055122	0.003139	0.003842	-0.005699	-0.720947	0.545166	0.215576	0.378714	-0.575400	-0.340265	-0.640086
23232		9.609404	-0.027663	1.037874	0.001801	0.003137	-0.005996	-0.718750	0.542969	0.208984	0.378703	-0.575336	-0.340293	-0.640136
23233		9.598287	-0.010526	0.994998	0.002183	0.004235	-0.004067	-0.716797	0.549316	0.219727	0.378734	-0.575243	-0.340305	-0.640194
23234		9.624682	-0.010553	0.980204	0.005198	0.004258	-0.004675	-0.716553	0.547119	0.213135	0.378767	-0.575207	-0.340333	-0.640192
23235		9.611315	-0.044670	0.997864	0.002728	0.004626	-0.006634	-0.714844	0.553467	0.215088	0.378784	-0.575142	-0.340362	-0.640225
23236		9.590724	-0.050535	1.002025	0.002454	0.009257	-0.004872	-0.718750	0.547119	0.217529	0.378868	-0.575080	-0.340338	-0.640244
23237		9.606488	0.009230	1.038641	0.001963	0.007740	-0.005870	-0.714355	0.542969	0.217773	0.378874	-0.575031	-0.340339	-0.640284
23238		9.612406	0.002145	1.026875	0.002604	0.005149	-0.005207	-0.716553	0.545166	0.211182	0.378850	-0.575012	-0.340354	-0.640307
23239		9.613961	-0.026242	1.068670	0.003996	0.000388	-0.004811	-0.716553	0.547119	0.213135	0.378872	-0.574976	-0.340403	-0.640301
23240		9.613987	-0.015918	1.019963	-0.004432	0.001310	-0.003417	-0.716553	0.545166	0.217773	0.378854	-0.574993	-0.340360	-0.640318
23241		9.600726	-0.041238	0.988281	0.001155	0.004026	-0.004575	-0.716553	0.547119	0.213135	0.378830	-0.574994	-0.340360	-0.640332
23242		9.611603	-0.015183	1.000230	-0.000641	0.006930	-0.004324	-0.716553	0.545166	0.213379	0.378858	-0.574952	-0.340327	-0.640371
23243		9.608655	-0.014599	1.015386	0.004361	0.006770	-0.006047	-0.716797	0.547119	0.215332	0.378887	-0.574881	-0.340354	-0.640402
23244		9.609066	-0.022943	1.030345	0.004496	0.003605	-0.005888	-0.714600	0.545166	0.219971	0.378906	-0.574861	-0.340388	-0.640392
23245		9.611745	-0.020765	1.017817	0.004480	0.004546	-0.005392	-0.716553	0.542969	0.215576	0.378880	-0.574889	-0.340408	-0.640371
23246		9.603872	-0.022113	1.024483	0.002897	0.006587	-0.004920	-0.723145	0.544922	0.217773	0.378866	-0.574854	-0.340420	-0.640404
23247		9.617483	0.004895	1.023118	0.002391	0.006011	-0.005423	-0.718994	0.549316	0.217529	0.378818	-0.574824	-0.340446	-0.640445
23248		9.585471	-0.047572	0.986984	0.002503	0.006429	-0.006351	-0.720947	0.549316	0.217529	0.378822	-0.574818	-0.340441	-0.640452
23249		9.623168	-0.009927	1.061870	0.004038	0.007214	-0.005334	-0.716797	0.547119	0.217529	0.378842	-0.574798	-0.340443	-0.640456
23250		9.613220	-0.044076	1.031172	-0.003297	0.004573	-0.005417	-0.716553	0.547119	0.213135	0.378790	-0.574847	-0.340393	-0.640469
23251		9.595950	0.013068	1.017252	0.000471	0.002428	-0.006287	-0.714355	0.545166	0.206787	0.378796	-0.574843	-0.340391	-0.640471
23252		9.607431	-0.002093	1.027001	0.002770	0.007111	-0.003492	-0.714355	0.542969	0.208984	0.378915	-0.574730	-0.340376	-0.640510
23253		9.628959	-0.035665	0.989084	0.002882	0.007528	-0.004420	-0.714600	0.547119	0.210938	0.378981	-0.574630	-0.340380	-0.640559
23254		9.591592	-0.005466	1.041040	-0.002610	0.006169	-0.003701	-0.720947	0.542969	0.219971	0.379033	-0.574614	-0.340315	-0.640577
23255		9.583719	-0.007229	1.047603	0.002187	0.004234	-0.004057	-0.714600	0.547119	0.215332	0.378929	-0.574658	-0.340340	-0.640586
23256		9.595787	-0.032432	1.070587	0.003154	0.001200	-0.004103	-0.718750	0.547119	0.213135	0.378949	-0.574711	-0.340337	-0.640528
23257		9.617897	-0.003694	1.027560	-0.001738	0.001775	-0.003314	-0.712402	0.547119	0.210938	0.378950	-0.574729	-0.340308	-0.640526
23258		9.594265	-0.032633	1.014240	0.000044	-0.000186	-0.003068	-0.720947	0.549316	0.213135	0.379016	-0.574763	-0.340275	-0.640474
23259		9.605186	-0.006719	1.025046	0.000250	0.001591	-0.004428	-0.716553	0.545166	0.213379	0.379038	-0.574762	-0.340270	-0.640464
23260		9.587528	-0.012331	1.014450	0.001587	0.002298	-0.004128	-0.723145	0.547119	0.215332	0.379042	-0.574767	-0.340276	-0.640455
23261		9.590803	-0.020530	1.015284	0.002092	0.002874	-0.003623	-0.714355	0.545166	0.213379	0.379025	-0.574759	-0.340298	-0.640460
23262		9.583001	-0.022136	1.021224	0.004603	0.002325	-0.004729	-0.714355	0.545166	0.211182	0.379057	-0.574764	-0.340320	-0.640425
23263		9.600527	-0.014202	1.033040	0.003344	0.003919	-0.004966	-0.714355	0.542969	0.208984	0.379112	-0.574728	-0.340330	-0.640419
23264		9.624853	-0.015303	0.996609	0.000440	0.004309	-0.005292	-0.716797	0.549316	0.213135	0.379145	-0.574661	-0.340335	-0.640457
23265		9.610997	-0.039851	1.000798	0.005477	0.006641	-0.003876	-0.720947	0.545166	0.215576	0.379253	-0.574632	-0.340325	-0.640425
23266		9.592024	-0.034812	1.012698	0.003748	0.005775	-0.005609	-0.716553	0.547119	0.213135	0.379217	-0.574607	-0.340362	-0.640449
23267		9.597337	-0.000170	1.002701	0.005036	0.004936	-0.007941	-0.718750	0.547119	0.213135	0.379251	-0.574576	-0.340396	-0.640439
23268		9.605472	-0.005750	1.012433	0.007354	0.006041	-0.004059	-0.714355	0.545166	0.213379	0.379323	-0.574528	-0.340428	-0.640422
23269		9.616956	-0.020859	1.022372	0.005514	0.004757	-0.004864	-0.716553	0.542969	0.213379	0.379363	-0.574526	-0.340446	-0.640391
23270		9.620711	-0.038667	1.037529	0.002805	0.005225	-0.004476	-0.720947	0.549316	0.215332	0.379343	-0.574511	-0.340464	-0.640406
23271		9.601214	-0.023915	1.035476	0.001451	0.005460	-0.004282	-0.716553	0.547119	0.213135	0.379353	-0.574529	-0.340444	-0.640395
23272		9.581732	-0.009220	1.033254	0.002712	0.003866	-0.004043	-0.718750	0.545166	0.213379	0.379391	-0.574542	-0.340434	-0.640366
23273		9.603823	-0.021003	1.023987	0.003870	0.003552	-0.004952	-0.718750	0.545166	0.206787	0.379386	-0.574528	-0.340468	-0.640364
23274		9.603729	-0.019923	1.024889	0.002908	0.003946	-0.003326	-0.718750	0.547119	0.210938	0.379476	-0.574419	-0.340491	-0.640396
23275		9.609269	-0.017676	0.998923	0.001862	0.004677	-0.003344	-0.716553	0.547119	0.213135	0.379530	-0.574387	-0.340481	-0.640398
23276		9.597350	-0.009581	1.040061	0.005635	0.002535	-0.004207	-0.712402	0.545166	0.211182	0.379578	-0.574403	-0.340503	-0.640344
23277		9.614532	-0.023650	1.022626	0.000704	0.004990	-0.002435	-0.720947	0.547119	0.210938	0.379637	-0.574420	-0.340456	-0.640317
23278		9.594717	-0.030975	0.991321	0.003797	0.007320	-0.002969	-0.712402	0.545166	0.213379	0.379701	-0.574346	-0.340460	-0.640345
23279		9.602331	-0.014924	1.066226	0.003388	0.008102	-0.003905	-0.716553	0.545166	0.217773	0.379748	-0.574359	-0.340427	-0.640323
23280		9.601336	-0.025643	1.024858	0.003929	0.006794	-0.004390	-0.716553	0.545166	0.213379	0.379703	-0.574417	-0.340423	-0.640299
23281		9.609459	-0.031686	1.034678	0.004881	0.004704	-0.003938	-0.716553	0.547119	0.213135	0.379720	-0.574419	-0.340440	-0.640278
23282		9.600558	-0.013454	1.013559	-0.000582	0.004092	-0.005802	-0.716553	0.545166	0.213379	0.379708	-0.574449	-0.340415	-0.640271
23283		9.619853	-0.025978	1.017701	-0.001425	0.002265	-0.003525	-0.718750	0.547119	0.215332	0.379672	-0.574503	-0.340390	-0.640258
23284		9.603214	-0.010789	1.001819	0.001958	0.006034	-0.003773	-0.718994	0.551514	0.204102	0.379661	-0.574531	-0.340370	-0.640250
23285		9.603855	-0.051092	1.001381	-0.000311	0.006472	-0.005022	-0.716553	0.545166	0.211182	0.379825	-0.574405	-0.340324	-0.640290
23286		9.600811	0.002533	1.061538	-0.000115	0.006552	-0.004305	-0.718750	0.547119	0.210938	0.379836	-0.574383	-0.340300	-0.640316
23287		9.612078	-0.034475	1.041982	-0.000807	0.003258	-0.003947	-0.716797	0.547119	0.215332	0.379844	-0.574383	-0.340281	-0.640321
23288		9.605314	-0.015029	1.041854	0.000296	-0.000299	-0.005413	-0.716797	0.551514	0.215332	0.379791	-0.574480	-0.340283	-0.640265
23289		9.606119	-0.014743	1.006508	-0.001921	-0.000950	-0.002451	-0.718750	0.545166	0.213379	0.379800	-0.574621	-0.340215	-0.640169
23290		9.603535	-0.005648	0.971135	-0.001015	0.001483	-0.002588	-0.718506	0.538818	0.218018	0.379758	-0.574662	-0.340208	-0.640161
23291		9.596762	-0.027142	1.004596	0.005210	0.004261	-0.004639	-0.714355	0.540771	0.211182	0.379627	-0.574684	-0.340295	-0.640173
23292		9.597419	-0.014030	1.048562	0.003062	0.002478	-0.005236	-0.714355	0.545166	0.211182	0.379602	-0.574665	-0.340345	-0.640178
23293		9.613156	-0.038964	1.022917	0.001071	0.002659	-0.004128	-0.718994	0.549316	0.208740	0.379626	-0.574678	-0.340336	-0.640157
23294		9.606342	-0.019403	1.023167	0.003680	0.003471	-0.005657	-0.714600	0.547119	0.215332	0.379712	-0.574615	-0.340353	-0.640153
23295		9.594653	-0.001741	1.014941	0.001633	0.000409	-0.005108	-0.721191	0.551514	0.213135	0.379689	-0.574712	-0.340346	-0.640084
23296		9.604742	-0.027954	1.015965	0.002754	0.001980	-0.005024	-0.723145	0.544922	0.219971	0.379721	-0.574729	-0.340345	-0.640050
23297		9.607044	-0.056947	1.022719	0.001165	0.004017	-0.004558	-0.718750	0.547119	0.213135	0.379590	-0.574793	-0.340375	-0.640054
23298		9.606898	-0.014969	0.990422	-0.000580	0.004089	-0.005798	-0.720947	0.547119	0.208740	0.379568	-0.574802	-0.340363	-0.640066
23299		9.610341	-0.000838	1.021213	0.007101	0.005358	-0.006889	-0.714355	0.545166	0.213379	0.379635	-0.574682	-0.340430	-0.640098
23300		9.600955	-0.013281	1.019714	0.005405	0.004342	-0.003919	-0.718994	0.549316	0.215332	0.379671	-0.574696	-0.340443	-0.640057
23301		9.608123	-0.040083	1.035038	0.005130	0.004596	-0.006276	-0.714355	0.545166	0.213379	0.379682	-0.574715	-0.340459	-0.640025
23302		9.599919	-0.009864	1.056930	0.002212	0.003287	-0.004537	-0.716553	0.545166	0.211182	0.379684	-0.574749	-0.340456	-0.639994
23303		9.621054	-0.001990	1.020077	0.001072	0.002658	-0.004125	-0.712402	0.547119	0.213135	0.379692	-0.574749	-0.340459	-0.639988
23304		9.613580	-0.035082	1.010609	0.005520	0.004758	-0.004843	-0.716553	0.547119	0.213135	0.379755	-0.574772	-0.340453	-0.639933
23305		9.592732	-0.009935	1.029526	0.003649	0.002719	-0.003085	-0.716797	0.549316	0.215332	0.379785	-0.574800	-0.340451	-0.639891
23306		9.600410	-0.006260	1.024900	0.001904	0.002789	-0.004325	-0.714355	0.545166	0.213379	0.379789	-0.574868	-0.340427	-0.639841
23307		9.597346	-0.027785	1.009571	0.001677	0.001958	-0.002473	-0.718750	0.545166	0.213379	0.379796	-0.574920	-0.340415	-0.639797
23308		9.609924	-0.022088	1.013052	0.001710	0.002708	-0.005040	-0.714355	0.540771	0.213379	0.379762	-0.574924	-0.340442	-0.639799
23309		9.597759	-0.035674	1.024420	-0.001731	0.001763	-0.003313	-0.718750	0.545166	0.213379	0.379695	-0.574968	-0.340445	-0.639798
23310		9.604897	-0.022014	1.006245	0.001897	0.005424	-0.005902	-0.718994	0.549316	0.210938	0.379670	-0.574945	-0.340464	-0.639823
23311		9.614394	-0.038197	0.994705	0.000327	0.006517	-0.005932	-0.716553	0.547119	0.210938	0.379703	-0.574907	-0.340436	-0.639852
23312		9.596947	0.000045	1.043956	0.002629	0.006834	-0.007246	-0.718750	0.545166	0.213379	0.379735	-0.574857	-0.340440	-0.639875
23313		9.600212	-0.007536	1.045379	0.000162	0.002858	-0.005564	-0.720703	0.540771	0.215576	0.379689	-0.574869	-0.340454	-0.639885
23314		9.632950	-0.037380	0.987802	-0.004910	0.002397	-0.006005	-0.716553	0.545166	0.213379	0.379528	-0.574903	-0.340473	-0.639941
23315		9.599948	-0.026495	1.017573	0.002730	0.005557	-0.006098	-0.710205	0.545166	0.208984	0.379523	-0.574891	-0.340484	-0.639948
23316		9.595538	-0.014932	1.053880	0.002651	0.005891	-0.007738	-0.718750	0.547119	0.215332	0.379589	-0.574852	-0.340482	-0.639945
23317		9.579321	-0.030553	1.022381	-0.000555	0.003141	-0.006288	-0.716797	0.547119	0.219727	0.379533	-0.574898	-0.340472	-0.639943
23318		9.605895	-0.029840	1.007554	0.002271	0.003094	-0.007591	-0.718750	0.547119	0.219727	0.379449	-0.574992	-0.340475	-0.639906
23319		9.608253	0.004061	1.010345	-0.002721	0.002296	-0.006393	-0.718750	0.547119	0.213135	0.379330	-0.575107	-0.340444	-0.639890
23320		9.613512	-0.023936	1.003633	0.002136	0.003621	-0.006170	-0.716797	0.551514	0.215332	0.379325	-0.575103	-0.340454	-0.639891
23321		9.600777	-0.027102	1.001835	0.002013	0.005839	-0.006820	-0.716797	0.547119	0.215332	0.379342	-0.575140	-0.340406	-0.639873
23322		9.597245	-0.016166	1.002833	0.003391	0.004666	-0.007503	-0.716797	0.547119	0.217529	0.379326	-0.575155	-0.340419	-0.639862
23323		9.614616	-0.007445	1.015105	0.003391	0.004666	-0.007502	-0.716553	0.545166	0.217773	0.379289	-0.575195	-0.340429	-0.639842
23324		9.598462	-0.001246	1.013136	0.000988	0.005624	-0.007334	-0.710205	0.549316	0.210938	0.379227	-0.575234	-0.340431	-0.639844
23325		9.618681	-0.013755	0.982589	0.002445	0.004117	-0.006376	-0.720947	0.547119	0.215332	0.379296	-0.575260	-0.340380	-0.639806
23326		9.603593	-0.027328	1.007992	0.005250	0.005014	-0.007182	-0.716553	0.542969	0.219971	0.379281	-0.575237	-0.340426	-0.639812
23327		9.590862	-0.008744	1.035681	0.004281	0.005408	-0.005564	-0.712402	0.547119	0.210938	0.379223	-0.575281	-0.340462	-0.639787
23328		9.596524	-0.005947	1.009814	0.003164	0.003834	-0.005649	-0.718750	0.542969	0.213379	0.379277	-0.575284	-0.340445	-0.639761
23329		9.602715	-0.013060	0.997719	0.004475	0.005489	-0.004847	-0.718750	0.545166	0.213379	0.379280	-0.575239	-0.340493	-0.639774
23330		9.622020	-0.003298	1.031828	0.009183	0.004850	-0.006323	-0.720947	0.545166	0.213379	0.379314	-0.575184	-0.340572	-0.639762
23331		9.611247	-0.026935	1.022551	0.001045	0.006230	-0.005197	-0.723145	0.547119	0.213135	0.379295	-0.575150	-0.340581	-0.639799
23332		9.597023	-0.019736	1.042522	0.003874	0.006185	-0.006496	-0.714600	0.547119	0.215332	0.379291	-0.575094	-0.340614	-0.639834
23333		9.581228	0.016807	1.021197	0.006002	0.006284	-0.003823	-0.720947	0.547119	0.210938	0.379337	-0.575114	-0.340600	-0.639796
23334		9.621439	0.002130	1.037243	0.004292	0.002773	-0.003984	-0.714355	0.542969	0.213379	0.379368	-0.575083	-0.340625	-0.639792
23335		9.624832	-0.027722	1.008819	0.001078	0.002653	-0.004115	-0.714600	0.547119	0.213135	0.379356	-0.575112	-0.340631	-0.639771
23336		9.613579	-0.020353	1.014557	-0.001327	0.003610	-0.003951	-0.720947	0.545166	0.213379	0.379356	-0.575162	-0.340576	-0.639755
23337		9.606647	-0.022965	0.985947	0.003790	0.007322	-0.002941	-0.714355	0.545166	0.211182	0.379379	-0.575117	-0.340584	-0.639776
23338		9.597239	-0.014342	1.014306	0.002457	0.006609	-0.003248	-0.718750	0.547119	0.210938	0.379432	-0.575098	-0.340560	-0.639776
23339		9.601903	-0.011401	1.024262	-0.000664	0.007846	-0.003810	-0.714355	0.545166	0.211182	0.379457	-0.575065	-0.340513	-0.639816
23340		9.619735	-0.035039	1.021763	0.003190	0.008018	-0.004589	-0.720947	0.547119	0.217529	0.379509	-0.575026	-0.340498	-0.639828
23341		9.595671	-0.010575	1.055027	-0.000856	0.007763	-0.004524	-0.718750	0.547119	0.217529	0.379459	-0.575052	-0.340458	-0.639855
23342		9.587311	-0.024243	1.018817	-0.002806	0.006055	-0.004413	-0.716553	0.547119	0.210938	0.379398	-0.575112	-0.340399	-0.639868
23343		9.615771	-0.022718	1.026606	0.002574	0.007023	-0.004168	-0.710205	0.547363	0.217529	0.379448	-0.575081	-0.340373	-0.639881
23344		9.605824	-0.004074	1.041095	0.005172	0.006150	-0.003616	-0.716553	0.547119	0.213135	0.379484	-0.575153	-0.340331	-0.639817
23345		9.606302	-0.034828	1.026809	-0.001156	0.004633	-0.002740	-0.718750	0.542969	0.211182	0.379487	-0.575188	-0.340276	-0.639813
23346		9.612017	-0.032489	1.001125	0.000025	0.006010	-0.005708	-0.716553	0.547119	0.213135	0.379470	-0.575139	-0.340294	-0.639858
23347		9.589464	-0.018290	1.012700	-0.000407	0.007730	-0.006147	-0.716553	0.545166	0.215576	0.379464	-0.575131	-0.340255	-0.639889
23348		9.606601	0.011767	1.054755	0.003148	0.004775	-0.005142	-0.720947	0.547119	0.210938	0.379450	-0.575149	-0.340264	-0.639876
23349		9.621143	-0.002614	1.050876	0.001298	0.001792	-0.003890	-0.720947	0.545166	0.215576	0.379452	-0.575145	-0.340271	-0.639875
23350		9.606726	-0.029755	0.997456	-0.000607	0.003326	-0.003222	-0.718994	0.551514	0.210938	0.379406	-0.575177	-0.340263	-0.639878
23351		9.589070	-0.013930	1.016497	0.002007	0.004143	-0.004736	-0.718750	0.547119	0.213135	0.379441	-0.575179	-0.340224	-0.639876
23352		9.582623	-0.004436	1.030420	0.002323	0.002009	-0.003372	-0.723145	0.549316	0.210938	0.379445	-0.575204	-0.340223	-0.639852
23353		9.618968	-0.000136	1.031738	0.002680	0.000621	-0.004569	-0.714600	0.547119	0.215332	0.379445	-0.575200	-0.340242	-0.639845
23354		9.609904	-0.034802	1.000377	0.003532	0.004940	-0.003711	-0.718994	0.549316	0.213135	0.379466	-0.575235	-0.340222	-0.639812
23355		9.611157	-0.022426	1.009626	0.004789	0.005986	-0.005039	-0.718750	0.545166	0.208984	0.379497	-0.575218	-0.340217	-0.639811
23356		9.593959	-0.016112	1.042707	0.002532	0.003780	-0.004722	-0.720703	0.540771	0.213379	0.379521	-0.575172	-0.340241	-0.639826
23357		9.605947	-0.000224	1.032794	0.001508	0.003562	-0.005240	-0.716797	0.549316	0.221924	0.379477	-0.575140	-0.340304	-0.639847
23358		9.610711	0.003082	1.041569	0.004539	0.000972	-0.004245	-0.716309	0.538818	0.213623	0.379438	-0.575261	-0.340301	-0.639764
23359		9.620525	-0.013631	1.028812	0.001091	0.000020	-0.002537	-0.712402	0.547119	0.213135	0.379406	-0.575282	-0.340357	-0.639733
23360		9.601706	-0.031130	1.010010	0.001466	0.002817	-0.002679	-0.720703	0.540771	0.211182	0.379435	-0.575336	-0.340315	-0.639690
23361		9.604579	-0.029810	0.997194	-0.001748	0.002693	-0.002817	-0.716553	0.542969	0.213379	0.379402	-0.575314	-0.340339	-0.639717
23362		9.614151	-0.024702	1.014347	0.003582	0.003054	-0.004697	-0.716797	0.547119	0.215332	0.379399	-0.575308	-0.340378	-0.639703
23363		9.604758	-0.015853	1.041609	0.002324	0.002009	-0.003369	-0.716797	0.549316	0.213135	0.379394	-0.575359	-0.340368	-0.639665
23364		9.614046	-0.022563	1.015395	-0.001464	0.001635	-0.005650	-0.712158	0.542969	0.215576	0.379367	-0.575410	-0.340332	-0.639654
23365		9.612102	-0.022665	0.994370	0.004198	0.004049	-0.005112	-0.718750	0.547119	0.213135	0.379368	-0.575432	-0.340353	-0.639623
23366		9.596765	-0.014863	1.049034	0.003149	0.004774	-0.005136	-0.716553	0.542969	0.213379	0.379378	-0.575417	-0.340361	-0.639627
23367		9.601148	-0.023404	1.015507	0.002717	0.006493	-0.005576	-0.718750	0.547119	0.215332	0.379377	-0.575382	-0.340383	-0.639646
23368		9.611421	-0.015755	1.090216	0.002508	0.004722	-0.004224	-0.718750	0.547119	0.213135	0.379372	-0.575396	-0.340375	-0.639641
23369		9.618850	-0.023677	1.042399	-0.001411	-0.000252	-0.006638	-0.718750	0.547119	0.215332	0.379315	-0.575437	-0.340380	-0.639635
23370		9.607121	-0.006078	1.033629	0.001968	0.000899	-0.005290	-0.716797	0.549316	0.217529	0.379283	-0.575478	-0.340393	-0.639610
23371		9.607345	-0.026776	1.004419	0.001734	0.000071	-0.003445	-0.714600	0.551514	0.215332	0.379259	-0.575573	-0.340367	-0.639554
23372		9.598198	-0.039904	1.002030	0.001800	0.002371	-0.003379	-0.712402	0.545166	0.217773	0.379274	-0.575649	-0.340307	-0.639508
23373		9.607517	-0.012900	1.048459	0.002750	0.002920	-0.004497	-0.718750	0.542969	0.213379	0.379260	-0.575710	-0.340301	-0.639464
23374		9.601883	-0.016301	0.983832	-0.002030	0.001250	-0.003102	-0.714355	0.540771	0.215576	0.379222	-0.575733	-0.340304	-0.639464
23375		9.577189	-0.034875	0.992191	0.003058	0.003417	-0.004704	-0.714600	0.547119	0.210938	0.379207	-0.575737	-0.340345	-0.639448
23376		9.602516	-0.012127	1.042010	-0.001939	0.002606	-0.003530	-0.720947	0.547119	0.213135	0.379215	-0.575765	-0.340299	-0.639443
23377		9.602993	-0.021023	1.056090	-0.001670	-0.000139	-0.004298	-0.716797	0.549316	0.224121	0.379173	-0.575800	-0.340295	-0.639439
23378		9.608396	-0.008929	1.015321	0.000712	-0.000147	-0.003962	-0.716553	0.545166	0.213379	0.379092	-0.575947	-0.340258	-0.639374
23379		9.605184	-0.020741	0.985791	0.001709	0.001014	-0.002950	-0.722900	0.542969	0.222168	0.379097	-0.575971	-0.340265	-0.639346
23380		9.600868	-0.031678	0.991539	0.002686	0.000620	-0.004561	-0.720947	0.547119	0.210938	0.379012	-0.576020	-0.340323	-0.639321
23381		9.589879	-0.045982	0.967470	0.000586	0.002069	-0.004610	-0.716553	0.545166	0.211182	0.379011	-0.576002	-0.340332	-0.639333
23382		9.607996	-0.016837	0.973773	0.005505	0.005709	-0.004301	-0.716797	0.547119	0.217529	0.379068	-0.575947	-0.340359	-0.639334
23383		9.621152	-0.008332	1.035180	0.005215	0.006898	-0.006157	-0.710449	0.549316	0.215332	0.379074	-0.575937	-0.340368	-0.639335
23384		9.599323	-0.025759	1.031033	-0.000806	0.005867	-0.005503	-0.716553	0.547119	0.210938	0.379074	-0.575988	-0.340290	-0.639331
23385		9.598191	-0.005091	1.004547	0.001584	0.003230	-0.003596	-0.716553	0.545166	0.211182	0.379103	-0.575982	-0.340279	-0.639325
23386		9.599145	-0.023370	1.032747	0.003230	0.001945	-0.006610	-0.714600	0.551514	0.217529	0.379108	-0.575958	-0.340324	-0.639320
23387		9.622865	-0.023763	1.031585	-0.000443	0.004347	-0.002010	-0.716553	0.542969	0.215576	0.379112	-0.576042	-0.340229	-0.639292
23388		9.597757	-0.013864	0.963681	0.000180	0.002843	-0.005543	-0.716797	0.547119	0.215332	0.379073	-0.576054	-0.340249	-0.639293
23389		9.605636	0.002239	1.002362	0.003368	0.003914	-0.004907	-0.720947	0.547119	0.213135	0.379078	-0.576061	-0.340253	-0.639281
23390		9.598789	-0.018872	1.036145	0.002010	0.004140	-0.004724	-0.720947	0.547119	0.213135	0.379079	-0.576039	-0.340263	-0.639296
23391		9.603316	-0.027620	1.002087	0.003278	0.002558	-0.004478	-0.716553	0.545166	0.211182	0.379084	-0.576024	-0.340288	-0.639293
23392		9.587210	-0.022352	0.999457	-0.000797	0.003236	-0.003932	-0.716553	0.547119	0.208740	0.379087	-0.576021	-0.340276	-0.639301
23393		9.592737	0.001977	1.002583	0.001847	0.003113	-0.005931	-0.714600	0.547119	0.215332	0.379113	-0.575987	-0.340291	-0.639308
23394		9.600129	-0.024648	1.017732	0.002563	0.002836	-0.005204	-0.714600	0.547119	0.213135	0.379111	-0.576015	-0.340290	-0.639284
23395		9.608602	0.000174	1.007553	0.002889	0.004890	-0.002788	-0.718994	0.551514	0.219727	0.379154	-0.576018	-0.340269	-0.639267
23396		9.599772	-0.034716	0.976543	-0.000153	0.003287	-0.004840	-0.716553	0.547119	0.210938	0.379109	-0.576091	-0.340220	-0.639255
23397		9.588062	-0.005420	1.011863	0.001766	0.005942	-0.004448	-0.714355	0.545166	0.211182	0.379142	-0.576058	-0.340207	-0.639271
23398		9.607455	-0.017489	1.016739	0.002654	0.004191	-0.005630	-0.712402	0.547119	0.217529	0.379165	-0.576032	-0.340226	-0.639271
23399		9.623374	-0.020498	1.021219	0.000625	0.005308	-0.004046	-0.714355	0.545166	0.213379	0.379161	-0.576078	-0.340181	-0.639255
23400		9.589897	-0.022126	1.007576	0.003923	0.002610	-0.005383	-0.718750	0.545166	0.213379	0.379175	-0.576076	-0.340213	-0.639232
23401		9.598894	-0.006790	1.010945	0.001206	0.003060	-0.005020	-0.712402	0.545166	0.215576	0.379162	-0.576068	-0.340231	-0.639238
23402		9.613530	-0.020928	1.007374	0.001079	0.005275	-0.005667	-0.716553	0.540771	0.213379	0.379155	-0.576081	-0.340219	-0.639236
23403		9.607454	-0.020693	1.035413	-0.000938	0.003891	-0.007199	-0.714355	0.545166	0.215576	0.379107	-0.576058	-0.340253	-0.639268
23404		9.584716	-0.018628	1.003220	0.001269	0.005359	-0.004952	-0.722900	0.542969	0.215576	0.379102	-0.576066	-0.340241	-0.639270
23405		9.594163	-0.013097	1.020837	0.004204	0.004051	-0.005093	-0.718994	0.551514	0.213135	0.379083	-0.576028	-0.340298	-0.639285
23406		9.609359	-0.036867	1.030674	0.002622	0.000949	-0.006186	-0.718750	0.547119	0.213135	0.379081	-0.576048	-0.340306	-0.639264
23407		9.619576	-0.022442	0.998480	-0.005122	0.001524	-0.004167	-0.716553	0.545166	0.213379	0.379030	-0.576093	-0.340260	-0.639278
23408		9.599972	-0.007990	0.995484	0.002656	0.004191	-0.005625	-0.714600	0.547119	0.215332	0.379035	-0.576075	-0.340280	-0.639280
23409		9.603357	-0.015635	0.996898	0.006178	0.004821	-0.005686	-0.718750	0.547119	0.213135	0.379065	-0.576065	-0.340305	-0.639258
23410		9.579931	-0.022719	1.013796	0.001458	0.005443	-0.004236	-0.714355	0.542969	0.208984	0.379078	-0.576047	-0.340294	-0.639272
23411		9.603114	-0.013042	0.999278	0.004849	0.004103	-0.005998	-0.720703	0.542969	0.208984	0.379123	-0.575986	-0.340353	-0.639270
23412		9.593506	-0.003819	1.027073	0.001577	0.005856	-0.005156	-0.716553	0.545166	0.215576	0.379139	-0.575908	-0.340386	-0.639313
23413		9.604577	-0.021048	0.980411	0.001984	0.005082	-0.004222	-0.714355	0.542969	0.219971	0.379138	-0.575912	-0.340380	-0.639313
23414		9.607510	-0.007040	1.011165	0.003491	0.004327	-0.005815	-0.716797	0.547119	0.221924	0.379100	-0.575941	-0.340394	-0.639302
23415		9.592371	-0.021103	1.036449	0.003036	0.004360	-0.004194	-0.718994	0.549316	0.221924	0.379068	-0.575999	-0.340372	-0.639281
23416		9.599984	-0.029275	0.989250	0.000963	0.004860	-0.004741	-0.716553	0.547119	0.213135	0.379020	-0.576059	-0.340329	-0.639278
23417		9.594155	0.001568	0.997323	0.001883	0.002167	-0.006414	-0.716553	0.542969	0.215576	0.379010	-0.576065	-0.340347	-0.639269
23418		9.613622	-0.010304	1.001810	0.005229	0.004272	-0.004566	-0.716553	0.545166	0.217773	0.379022	-0.576047	-0.340385	-0.639257
23419		9.606719	-0.043505	0.992756	0.003126	0.005715	-0.004619	-0.716553	0.545166	0.215576	0.379016	-0.576053	-0.340382	-0.639257
23420		9.615581	-0.027992	0.997085	0.003454	0.007896	-0.006885	-0.718750	0.542969	0.213379	0.379018	-0.576014	-0.340393	-0.639285
23421		9.597581	-0.011659	1.017079	0.002780	0.008787	-0.005485	-0.716797	0.549316	0.215332	0.379032	-0.575946	-0.340408	-0.639330
23422		9.605157	-0.007540	1.013710	0.000528	0.006575	-0.005179	-0.710205	0.542969	0.213379	0.379032	-0.575954	-0.340367	-0.639346
23423		9.611500	-0.002701	1.045223	-0.001139	0.006301	-0.004793	-0.716553	0.542969	0.215576	0.379034	-0.575959	-0.340334	-0.639357
23424		9.615658	-0.001751	0.997735	-0.002528	0.003282	-0.005174	-0.718994	0.549316	0.215332	0.378979	-0.575987	-0.340316	-0.639374
23425		9.594525	-0.029482	1.006670	0.000537	0.003948	-0.003611	-0.712402	0.547119	0.210938	0.378975	-0.576013	-0.340282	-0.639370
23426		9.590934	-0.019184	1.007083	0.000528	0.002389	-0.006231	-0.718994	0.549316	0.213135	0.378984	-0.576024	-0.340283	-0.639355
23427		9.611700	-0.032006	0.976355	0.000875	0.003503	-0.004310	-0.721191	0.551514	0.208496	0.378989	-0.576033	-0.340266	-0.639353
23428		9.609283	-0.010461	0.985287	0.005380	0.007928	-0.004917	-0.720947	0.549316	0.213135	0.379069	-0.575951	-0.340276	-0.639374
23429		9.597025	-0.011863	1.040840	0.003624	0.006298	-0.004106	-0.714355	0.540771	0.208984	0.379101	-0.575921	-0.340271	-0.639385
23430		9.595662	-0.021941	1.034161	0.000995	0.003914	-0.005229	-0.718994	0.551514	0.210938	0.379115	-0.575881	-0.340305	-0.639395
23431		9.598091	-0.010378	1.007822	0.000350	0.003862	-0.004323	-0.716797	0.549316	0.213135	0.379136	-0.575884	-0.340280	-0.639393
23432		9.618827	-0.023222	0.977665	0.003556	0.006625	-0.005737	-0.720947	0.545166	0.215576	0.379167	-0.575858	-0.340277	-0.639400
23433		9.609090	-0.014022	1.005834	0.001363	0.006710	-0.005366	-0.718750	0.547119	0.206543	0.379147	-0.575833	-0.340275	-0.639434
23434		9.577831	-0.023607	1.028208	0.002993	0.006368	-0.007875	-0.714600	0.551514	0.217529	0.379182	-0.575747	-0.340316	-0.639470
23435		9.609184	-0.008312	1.065609	0.002138	0.004548	-0.005624	-0.718750	0.547119	0.210938	0.379182	-0.575790	-0.340286	-0.639447
23436		9.610423	-0.007676	1.031197	0.002418	0.001804	-0.006391	-0.714600	0.547119	0.215332	0.379177	-0.575780	-0.340320	-0.639441
23437		9.636747	0.002708	1.002443	0.000511	0.000705	-0.004169	-0.712646	0.551514	0.215332	0.379161	-0.575838	-0.340310	-0.639404
23438		9.610455	-0.017343	0.988892	0.002049	0.003193	-0.005198	-0.716553	0.545166	0.215576	0.379175	-0.575885	-0.340284	-0.639367
23439		9.606808	-0.007012	0.989690	0.002077	0.006435	-0.004636	-0.712402	0.545166	0.215576	0.379179	-0.575875	-0.340276	-0.639378
23440		9.582856	-0.004478	0.992768	0.006067	0.004412	-0.004742	-0.718750	0.545166	0.213379	0.379213	-0.575875	-0.340303	-0.639343
23441		9.598780	-0.007273	0.997354	0.003468	0.005269	-0.005306	-0.716553	0.545166	0.217773	0.379221	-0.575845	-0.340326	-0.639353
23442		9.637796	-0.032241	1.006293	0.005443	0.006042	-0.005893	-0.716797	0.547119	0.215332	0.379224	-0.575832	-0.340350	-0.639350
23443		9.597129	-0.003675	1.035436	0.004119	0.006881	-0.003590	-0.716553	0.547119	0.213135	0.379257	-0.575819	-0.340341	-0.639347
23444		9.591752	0.004989	1.014777	0.001801	0.004992	-0.004922	-0.718750	0.547119	0.208740	0.379267	-0.575813	-0.340336	-0.639349
23445		9.593250	-0.035225	1.014487	0.004151	0.005937	-0.004082	-0.716797	0.547119	0.215332	0.379321	-0.575758	-0.340355	-0.639356
23446		9.613374	-0.026352	1.013921	0.002573	0.007017	-0.004125	-0.718994	0.549316	0.217529	0.379339	-0.575750	-0.340336	-0.639363
23447		9.595994	0.010477	1.027601	0.003407	0.007154	-0.004316	-0.716797	0.549316	0.213135	0.379349	-0.575750	-0.340314	-0.639369
23448		9.610674	-0.003953	1.024786	0.001619	0.006467	-0.003015	-0.718750	0.547119	0.213135	0.379382	-0.575749	-0.340277	-0.639370
23449		9.608124	-0.025650	1.010692	0.005449	0.007602	-0.003269	-0.714600	0.547119	0.215332	0.379434	-0.575707	-0.340281	-0.639375
23450		9.613352	-0.001350	1.014890	0.005384	0.007927	-0.004899	-0.714355	0.545166	0.213379	0.379474	-0.575681	-0.340283	-0.639373
23451		9.604698	-0.023968	1.027681	0.004153	0.005936	-0.004078	-0.714355	0.545166	0.215576	0.379508	-0.575664	-0.340291	-0.639364
23452		9.597004	0.005006	1.014318	-0.000172	0.004217	-0.004333	-0.714355	0.540771	0.213379	0.379491	-0.575693	-0.340270	-0.639360
23453		9.616501	-0.007314	1.018997	-0.000908	0.002810	-0.003004	-0.718750	0.542969	0.211182	0.379474	-0.575715	-0.340264	-0.639353
23454		9.607934	-0.030315	1.030993	0.000849	0.004441	-0.003809	-0.718750	0.545166	0.215576	0.379475	-0.575692	-0.340274	-0.639367
23455		9.599082	-0.012763	1.009568	-0.002365	0.004300	-0.003967	-0.714355	0.545166	0.211182	0.379432	-0.575720	-0.340238	-0.639387
23456		9.598972	-0.012121	1.010630	-0.001806	0.004559	-0.001827	-0.718750	0.547119	0.210938	0.379448	-0.575737	-0.340195	-0.639385
23457		9.613729	-0.026648	1.007325	0.005546	0.004772	-0.004743	-0.716797	0.549316	0.213135	0.379488	-0.575697	-0.340231	-0.639378
23458		9.600375	-0.008757	1.034656	-0.000850	0.005108	-0.002935	-0.714600	0.547119	0.213135	0.379498	-0.575719	-0.340184	-0.639378
23459		9.603784	-0.017147	1.036322	0.001838	0.005609	-0.002791	-0.716797	0.549316	0.215332	0.379530	-0.575723	-0.340159	-0.639368
23460		9.608369	-0.014086	1.045772	-0.000170	0.004216	-0.004331	-0.723145	0.544922	0.215576	0.379517	-0.575755	-0.340126	-0.639365
23461		9.596934	-0.006927	1.051516	-0.001125	0.003666	-0.003223	-0.716553	0.545166	0.211182	0.379475	-0.575771	-0.340106	-0.639386
23462		9.612720	-0.012866	0.998681	-0.002664	0.001178	-0.002199	-0.718750	0.545166	0.215576	0.379460	-0.575811	-0.340079	-0.639373
23463		9.617853	-0.019735	1.021269	0.004503	0.002869	-0.003208	-0.720947	0.547119	0.208740	0.379468	-0.575818	-0.340099	-0.639351
23464		9.599407	-0.037342	1.002877	0.002397	0.004306	-0.003268	-0.718750	0.547119	0.210938	0.379500	-0.575784	-0.340113	-0.639356
23465		9.594979	-0.005224	1.032786	0.004528	0.004548	-0.005262	-0.718750	0.545166	0.213379	0.379527	-0.575748	-0.340147	-0.639354
23466		9.594200	-0.024843	1.039674	0.000512	0.003324	-0.005725	-0.716553	0.545166	0.215576	0.379498	-0.575748	-0.340157	-0.639366
23467		9.601879	-0.020606	1.035504	0.004836	0.005046	-0.005465	-0.718750	0.547119	0.213135	0.379504	-0.575734	-0.340181	-0.639362
23468		9.620171	-0.000656	1.055233	0.001234	-0.001134	-0.006052	-0.718750	0.542969	0.215576	0.379466	-0.575769	-0.340214	-0.639336
23469		9.614637	-0.025034	0.995982	-0.001027	0.000835	-0.004702	-0.720703	0.542969	0.215576	0.379407	-0.575807	-0.340216	-0.639335
23470		9.586062	-0.024552	0.989853	0.003882	0.002934	-0.006974	-0.714600	0.545166	0.219971	0.379369	-0.575790	-0.340267	-0.639346
23471		9.593468	-0.007772	1.028335	0.004101	0.002077	-0.006754	-0.716797	0.547119	0.215332	0.379330	-0.575829	-0.340289	-0.639323
23472		9.615607	-0.008825	1.005615	0.002829	0.003652	-0.007004	-0.712402	0.545166	0.211182	0.379311	-0.575831	-0.340308	-0.639321
23473		9.612434	-0.008065	1.019923	0.003264	0.003501	-0.003947	-0.716553	0.547119	0.210938	0.379347	-0.575828	-0.340324	-0.639294
23474		9.627889	-0.001245	1.010657	0.002114	0.005486	-0.005115	-0.721191	0.553467	0.212891	0.379371	-0.575802	-0.340330	-0.639301
23475		9.596630	-0.011151	1.032500	0.004870	0.004102	-0.005954	-0.716797	0.551514	0.213135	0.379395	-0.575788	-0.340350	-0.639289
23476		9.595716	0.012184	1.062525	0.001752	0.002690	-0.004979	-0.712402	0.545166	0.211182	0.379402	-0.575812	-0.340343	-0.639266
23477		9.614010	-0.013719	1.002235	-0.001400	0.002222	-0.003510	-0.716553	0.545166	0.213379	0.379402	-0.575843	-0.340324	-0.639248
23478		9.606174	-0.015719	1.007915	0.002342	0.002008	-0.003333	-0.714600	0.547119	0.213135	0.379407	-0.575860	-0.340335	-0.639224
23479		9.615677	0.020299	1.005208	0.000269	0.002499	-0.003888	-0.716553	0.545166	0.213379	0.379407	-0.575889	-0.340322	-0.639205
23480		9.610422	-0.044952	0.980695	0.002978	0.006245	-0.003179	-0.716553	0.545166	0.211182	0.379436	-0.575869	-0.340317	-0.639208
23481		9.593386	-0.018038	1.007804	0.003847	0.005440	-0.003860	-0.720947	0.547119	0.215332	0.379474	-0.575837	-0.340335	-0.639205
23482		9.593266	-0.016894	1.008969	0.000480	0.004264	-0.005228	-0.714600	0.547119	0.213135	0.379444	-0.575842	-0.340328	-0.639223
23483		9.594274	-0.004158	1.017910	0.002798	0.004594	-0.006505	-0.720947	0.547119	0.219727	0.379449	-0.575831	-0.340345	-0.639220
23484		9.624744	-0.009959	1.061194	0.001685	0.004577	-0.003990	-0.718994	0.549316	0.217529	0.379418	-0.575857	-0.340322	-0.639227
23485		9.608995	-0.017036	1.015556	-0.001154	0.003041	-0.005343	-0.714600	0.547119	0.215332	0.379370	-0.575901	-0.340291	-0.639233
23486		9.608901	-0.015721	1.016469	0.004530	0.004549	-0.005251	-0.714355	0.545166	0.215576	0.379387	-0.575900	-0.340305	-0.639216
23487		9.604091	-0.016591	1.009395	-0.000265	0.005478	-0.005462	-0.720947	0.547119	0.213135	0.379366	-0.575910	-0.340283	-0.639231
23488		9.600861	-0.015706	1.024063	0.001253	0.004725	-0.007043	-0.720947	0.547119	0.210938	0.379341	-0.575887	-0.340300	-0.639258
23489		9.588285	-0.019062	1.021978	0.001473	0.003869	-0.006822	-0.723145	0.547119	0.213135	0.379327	-0.575859	-0.340328	-0.639277
23490		9.617566	-0.038621	1.000769	0.002047	0.007372	-0.004122	-0.716553	0.547119	0.210938	0.379336	-0.575819	-0.340319	-0.639312
23491		9.598451	-0.000716	1.049166	0.001132	0.004314	-0.006125	-0.720947	0.549316	0.208740	0.379337	-0.575804	-0.340330	-0.639318
23492		9.584307	-0.006213	1.025339	-0.000817	0.004158	-0.003424	-0.714355	0.542969	0.215576	0.379349	-0.575796	-0.340313	-0.639328
23493		9.588422	0.006572	1.020615	-0.000255	0.002856	-0.003900	-0.720947	0.545166	0.217773	0.379325	-0.575828	-0.340298	-0.639321
23494		9.632307	-0.016406	1.037291	0.002687	0.001562	-0.004024	-0.716797	0.547119	0.215332	0.379295	-0.575857	-0.340309	-0.639308
23495		9.614642	-0.013076	1.012540	0.000456	0.002585	-0.003172	-0.716553	0.540771	0.213379	0.379286	-0.575894	-0.340287	-0.639291
23496		9.595258	-0.042174	0.986045	-0.000071	0.002943	-0.003187	-0.718994	0.549316	0.213135	0.379270	-0.575904	-0.340286	-0.639292
23497		9.573526	-0.017434	1.004144	0.001230	0.003047	-0.004987	-0.716553	0.540771	0.213379	0.379265	-0.575914	-0.340286	-0.639286
23498		9.601322	-0.036300	1.017754	-0.000202	0.005153	-0.003830	-0.718750	0.547119	0.210938	0.379253	-0.575904	-0.340277	-0.639307
23499		9.622062	-0.005998	1.010932	0.003452	0.004645	-0.007397	-0.716797	0.547119	0.215332	0.379258	-0.575863	-0.340319	-0.639318
23500		9.604188	-0.032721	1.006796	0.001063	0.006201	-0.005136	-0.716553	0.545166	0.213379	0.379254	-0.575860	-0.340300	-0.639334
23501		9.589088	-0.016049	1.012395	0.001134	0.004313	-0.006121	-0.712402	0.547119	0.217529	0.379239	-0.575852	-0.340309	-0.639345
23502		9.595700	-0.022887	1.000366	0.004692	0.004017	-0.006650	-0.720947	0.545166	0.211182	0.379240	-0.575865	-0.340325	-0.639324
23503		9.604909	-0.016682	1.018151	0.003726	0.006086	-0.007104	-0.712402	0.547119	0.219727	0.379244	-0.575805	-0.340367	-0.639353
23504		9.615052	-0.032534	1.007210	0.000440	0.007823	-0.006285	-0.716553	0.542969	0.215576	0.379222	-0.575822	-0.340320	-0.639377
23505		9.589572	0.001897	1.025841	-0.000016	0.006294	-0.007286	-0.714600	0.547119	0.210938	0.379182	-0.575806	-0.340316	-0.639417
23506		9.607997	-0.020835	1.023438	0.001714	0.006252	-0.006032	-0.716797	0.551514	0.217529	0.379203	-0.575778	-0.340320	-0.639427
23507		9.603694	0.002112	1.067565	0.002366	0.006304	-0.006930	-0.720703	0.542969	0.208984	0.379194	-0.575784	-0.340302	-0.639437
23508		9.615038	-0.005121	1.007146	-0.000006	0.003673	-0.005727	-0.716553	0.545166	0.208984	0.379179	-0.575752	-0.340329	-0.639460
23509		9.598854	0.000268	1.004867	0.003041	0.006978	-0.005707	-0.716553	0.547119	0.213135	0.379215	-0.575695	-0.340353	-0.639477
23510		9.601258	0.014350	1.036024	0.004339	0.006028	-0.003334	-0.718750	0.545166	0.215576	0.379259	-0.575677	-0.340353	-0.639467
23511		9.626463	-0.017457	1.020455	0.004376	0.005084	-0.003826	-0.720947	0.547119	0.213135	0.379273	-0.575667	-0.340360	-0.639464
23512		9.622126	-0.028408	1.027442	0.000905	0.006732	-0.003722	-0.720947	0.545166	0.215576	0.379282	-0.575648	-0.340337	-0.639489
23513		9.606944	-0.012003	1.033419	0.004060	0.007205	-0.005179	-0.716553	0.547119	0.210938	0.379286	-0.575612	-0.340343	-0.639515
23514		9.595957	0.016480	1.033699	-0.001622	0.005688	-0.005283	-0.720703	0.542969	0.215576	0.379280	-0.575606	-0.340319	-0.639537
23515		9.614428	-0.006883	1.031184	0.001836	0.005607	-0.002773	-0.716797	0.549316	0.219727	0.379276	-0.575599	-0.340302	-0.639554
23516		9.606053	0.000905	1.023593	0.000181	0.003760	-0.005013	-0.718750	0.545166	0.213379	0.379239	-0.575651	-0.340260	-0.639552
23517		9.604938	-0.042676	0.979867	-0.000237	0.006093	-0.003331	-0.714355	0.540771	0.215576	0.379238	-0.575646	-0.340230	-0.639573
23518		9.606257	-0.040111	1.003310	-0.000553	0.008213	-0.004684	-0.716553	0.542969	0.211182	0.379223	-0.575631	-0.340193	-0.639615
23519		9.588883	-0.012848	1.031114	0.003709	0.010270	-0.006034	-0.718750	0.545166	0.208984	0.379259	-0.575551	-0.340205	-0.639660
23520		9.611007	-0.014011	1.010117	0.002605	0.008687	-0.006137	-0.718994	0.549316	0.215332	0.379289	-0.575478	-0.340223	-0.639698
23521		9.615879	-0.020057	1.034359	0.006713	0.008659	-0.004523	-0.716797	0.547119	0.215332	0.379339	-0.575436	-0.340225	-0.639705
23522		9.608328	-0.030943	1.055277	0.003640	0.007349	-0.008221	-0.714355	0.542969	0.206787	0.379331	-0.575403	-0.340238	-0.639732
23523		9.611907	-0.007712	1.037276	0.001509	0.004485	-0.004685	-0.716797	0.551514	0.208740	0.379362	-0.575371	-0.340263	-0.639729
23524		9.586947	-0.016586	1.031864	0.000346	0.003224	-0.006417	-0.716553	0.545166	0.211182	0.379370	-0.575372	-0.340273	-0.639718
23525		9.612386	-0.017220	0.996289	0.002431	0.005979	-0.005291	-0.716553	0.542969	0.211182	0.379387	-0.575344	-0.340282	-0.639729
23526		9.611966	-0.013091	1.054777	0.003171	0.007385	-0.006609	-0.718750	0.545166	0.213379	0.379398	-0.575292	-0.340303	-0.639758
23527		9.580860	-0.025845	1.019982	-0.001436	0.005772	-0.004567	-0.720947	0.549316	0.215332	0.379375	-0.575295	-0.340269	-0.639787
23528		9.587376	0.000157	1.045111	0.000713	0.003400	-0.004991	-0.720947	0.547119	0.208740	0.379351	-0.575318	-0.340253	-0.639789
23529		9.633969	-0.012119	1.035195	0.000147	0.004701	-0.004515	-0.714355	0.545166	0.211182	0.379358	-0.575298	-0.340254	-0.639802
23530		9.627048	-0.002440	1.049296	0.002163	0.004537	-0.005579	-0.718750	0.542969	0.215576	0.379369	-0.575288	-0.340267	-0.639798
23531		9.614111	0.003169	1.032860	-0.000949	0.000500	-0.003067	-0.714355	0.538818	0.213623	0.379323	-0.575344	-0.340245	-0.639787
23532		9.602819	-0.022942	1.001074	0.004236	0.004054	-0.005016	-0.714600	0.547119	0.210938	0.379321	-0.575329	-0.340272	-0.639786
23533		9.594923	-0.024573	1.007138	0.002566	0.003771	-0.004647	-0.720947	0.549316	0.217529	0.379346	-0.575329	-0.340284	-0.639766
23534		9.602614	-0.020465	1.003084	0.002653	0.005124	-0.005067	-0.718750	0.545166	0.208984	0.379333	-0.575339	-0.340267	-0.639773
23535		9.605663	-0.018514	0.990970	0.006175	0.005778	-0.005092	-0.714844	0.553467	0.212891	0.379384	-0.575281	-0.340317	-0.639769
23536		9.604298	0.004776	1.021601	0.005302	0.006580	-0.004415	-0.716797	0.549316	0.215332	0.379449	-0.575268	-0.340317	-0.639742
23537		9.607619	-0.033780	1.043955	0.005620	0.010319	-0.004051	-0.720947	0.549316	0.210938	0.379507	-0.575225	-0.340298	-0.639756
23538		9.596534	-0.005568	1.044363	0.004601	0.004231	-0.003589	-0.718750	0.547119	0.213135	0.379545	-0.575209	-0.340316	-0.639739
23539		9.617064	-0.006023	1.057505	0.003797	0.005762	-0.005450	-0.718506	0.540771	0.217773	0.379558	-0.575187	-0.340327	-0.639745
23540		9.607277	0.000228	1.028170	-0.000284	0.003791	-0.003398	-0.718750	0.547119	0.210938	0.379512	-0.575219	-0.340293	-0.639761
23541		9.621244	-0.025569	1.017356	0.000253	0.006675	-0.002815	-0.718750	0.545166	0.215576	0.379534	-0.575207	-0.340261	-0.639776
23542		9.604587	-0.011065	1.001455	-0.000819	0.006763	-0.004968	-0.716797	0.549316	0.217529	0.379506	-0.575209	-0.340221	-0.639812
23543		9.598478	-0.020936	1.043601	0.002183	0.005159	-0.003455	-0.718750	0.545166	0.206787	0.379510	-0.575238	-0.340183	-0.639804
23544		9.610342	-0.005070	1.033952	0.000717	0.003397	-0.004986	-0.716797	0.549316	0.213135	0.379518	-0.575217	-0.340207	-0.639805
23545		9.617102	-0.012632	1.021738	-0.000717	0.002883	-0.002282	-0.718750	0.545166	0.215576	0.379521	-0.575262	-0.340166	-0.639785
23546		9.597736	-0.008686	1.032585	-0.000235	0.006087	-0.003324	-0.718750	0.547119	0.219727	0.379507	-0.575272	-0.340123	-0.639807
23547		9.614635	-0.000686	1.045139	-0.000007	0.002616	-0.001552	-0.718750	0.545166	0.211182	0.379482	-0.575340	-0.340065	-0.639791
23548		9.616268	-0.031632	1.030673	0.001207	0.003984	-0.004475	-0.716309	0.538818	0.211426	0.379481	-0.575334	-0.340070	-0.639795
23549		9.619359	-0.029857	1.018375	0.001294	0.005337	-0.004894	-0.716553	0.545166	0.211182	0.379474	-0.575307	-0.340081	-0.639817
23550		9.590302	-0.020189	0.999276	0.002484	0.008273	-0.005206	-0.714600	0.547119	0.213135	0.379499	-0.575263	-0.340078	-0.639844
23551		9.608054	-0.000012	1.020597	0.003667	0.007969	-0.006082	-0.722900	0.544922	0.208740	0.379523	-0.575229	-0.340078	-0.639859
23552		9.609670	-0.006455	1.058032	0.004723	0.007256	-0.006045	-0.720703	0.542969	0.213379	0.379550	-0.575155	-0.340121	-0.639888
23553		9.592957	-0.022093	1.061743	0.001863	0.004036	-0.005367	-0.720947	0.547119	0.215332	0.379527	-0.575146	-0.340131	-0.639904
23554		9.604434	0.003713	1.037789	0.002037	0.000885	-0.005220	-0.709961	0.541016	0.211426	0.379493	-0.575179	-0.340142	-0.639889
23555		9.620442	0.001003	1.041837	-0.000730	0.002257	-0.004398	-0.714600	0.547119	0.210938	0.379478	-0.575209	-0.340134	-0.639875
23556		9.615281	-0.021197	1.040111	0.002485	0.002417	-0.004216	-0.716553	0.547119	0.210938	0.379495	-0.575224	-0.340146	-0.639845
23557		9.606058	-0.024581	1.023904	-0.001706	0.001081	-0.005420	-0.718750	0.545166	0.208984	0.379464	-0.575259	-0.340142	-0.639834
23558		9.604175	-0.022312	1.059400	0.001997	0.001829	-0.004727	-0.716553	0.545166	0.213379	0.379468	-0.575256	-0.340174	-0.639817
23559		9.609648	-0.031108	1.025015	0.001021	0.000653	-0.005748	-0.718750	0.547119	0.210938	0.379435	-0.575289	-0.340189	-0.639800
23560		9.611052	0.002554	1.027151	-0.001927	0.001935	-0.005638	-0.714600	0.549316	0.213135	0.379401	-0.575312	-0.340184	-0.639802
23561		9.618777	0.006669	1.022823	0.003895	0.004500	-0.004307	-0.718750	0.545166	0.213379	0.379434	-0.575315	-0.340187	-0.639777
23562		9.602571	-0.018771	1.039939	0.003267	0.002878	-0.006021	-0.718994	0.549316	0.215332	0.379421	-0.575313	-0.340215	-0.639772
23563		9.598858	-0.008435	1.040007	0.000327	0.001544	-0.004360	-0.714600	0.547119	0.208740	0.379396	-0.575358	-0.340199	-0.639755
23564		9.596095	-0.010531	0.996915	0.003181	0.001526	-0.005601	-0.712402	0.547119	0.213135	0.379416	-0.575358	-0.340242	-0.639720
23565		9.622174	-0.020602	0.975020	0.007712	0.005032	-0.006640	-0.712158	0.541016	0.206787	0.379459	-0.575329	-0.340293	-0.639694
23566		9.621497	-0.016136	1.033539	0.004809	0.008609	-0.006457	-0.720947	0.545166	0.208984	0.379512	-0.575246	-0.340336	-0.639714
23567		9.621284	-0.014589	1.035542	0.001467	0.008038	-0.005728	-0.716553	0.545166	0.213379	0.379524	-0.575189	-0.340343	-0.639755
23568		9.605484	-0.018809	1.047440	0.008508	0.006119	-0.006325	-0.714600	0.551514	0.213135	0.379564	-0.575140	-0.340396	-0.639747
23569		9.622770	0.011187	1.054390	0.002438	0.005974	-0.005270	-0.714600	0.551514	0.215332	0.379592	-0.575138	-0.340386	-0.639737
23570		9.607096	-0.016980	1.014929	0.003229	0.003821	-0.005524	-0.718750	0.547119	0.210938	0.379605	-0.575159	-0.340386	-0.639711
23571		9.613352	0.009208	1.040190	0.003106	0.006653	-0.004047	-0.714600	0.547119	0.210938	0.379637	-0.575130	-0.340386	-0.639718
23572		9.620962	-0.017498	1.056466	0.000640	0.005280	-0.003994	-0.716553	0.545166	0.215576	0.379655	-0.575131	-0.340370	-0.639715
23573		9.612622	-0.009542	1.048594	0.005344	0.002398	-0.005447	-0.723145	0.547119	0.206543	0.379653	-0.575141	-0.340399	-0.639691
23574		9.606683	-0.012463	1.018896	0.001439	0.000513	-0.002697	-0.716553	0.545166	0.211182	0.379666	-0.575147	-0.340426	-0.639664
23575		9.612133	0.001914	1.035254	0.002582	0.001154	-0.003079	-0.714600	0.547119	0.213135	0.379677	-0.575170	-0.340440	-0.639629
23576		9.614865	-0.017627	1.028275	0.002361	0.002008	-0.003298	-0.716553	0.545166	0.215576	0.379689	-0.575202	-0.340440	-0.639594
23577		9.610241	-0.019249	1.020481	-0.003403	0.002359	-0.002447	-0.720947	0.545166	0.215576	0.379648	-0.575265	-0.340379	-0.639593
23578		9.601927	-0.011968	1.012370	-0.000409	0.003377	-0.002480	-0.720947	0.547119	0.210938	0.379624	-0.575297	-0.340341	-0.639599
23579		9.591733	-0.003694	1.039055	0.002549	-0.000515	-0.001036	-0.718750	0.547119	0.210938	0.379641	-0.575335	-0.340352	-0.639549
23580		9.620720	-0.035144	1.009096	0.000731	0.000778	-0.003427	-0.712402	0.547119	0.210938	0.379636	-0.575365	-0.340358	-0.639522
23581		9.614639	-0.014534	1.030434	0.002934	0.003948	-0.003206	-0.716553	0.545166	0.213379	0.379676	-0.575371	-0.340361	-0.639492
23582		9.617775	-0.013194	1.018049	-0.001159	0.004585	-0.002718	-0.718994	0.549316	0.213135	0.379668	-0.575393	-0.340320	-0.639498
23583		9.611615	-0.023216	1.059692	0.003812	0.003147	-0.003878	-0.718750	0.545166	0.219971	0.379688	-0.575399	-0.340332	-0.639474
23584		9.607878	-0.013336	1.059778	-0.000146	0.001579	-0.002753	-0.716553	0.542969	0.213379	0.379642	-0.575464	-0.340289	-0.639466
23585		9.600175	-0.039380	1.014494	-0.004418	0.002125	-0.002978	-0.712402	0.545166	0.211182	0.379593	-0.575515	-0.340238	-0.639476
23586		9.596009	-0.019758	1.000712	0.002617	0.002824	-0.005119	-0.720947	0.549316	0.213135	0.379604	-0.575520	-0.340260	-0.639454
23587		9.618740	-0.007006	1.043111	0.002575	0.003768	-0.004626	-0.716553	0.547119	0.213135	0.379608	-0.575519	-0.340267	-0.639448
23588		9.598900	-0.023644	1.059644	0.001961	0.002771	-0.004226	-0.716553	0.545166	0.213379	0.379610	-0.575535	-0.340270	-0.639431
23589		9.581958	-0.030000	1.048193	0.001695	-0.001912	-0.005083	-0.718994	0.549316	0.210938	0.379577	-0.575584	-0.340300	-0.639391
23590		9.613265	-0.017187	1.027289	-0.000283	-0.002697	-0.004520	-0.720947	0.549316	0.213135	0.379547	-0.575642	-0.340322	-0.639345
23591		9.630285	-0.008602	1.038049	0.000467	-0.003905	-0.004282	-0.716553	0.547119	0.210938	0.379507	-0.575712	-0.340347	-0.639292
23592		9.619956	-0.013722	0.998653	-0.002578	-0.004608	-0.005872	-0.720947	0.547119	0.213135	0.379442	-0.575790	-0.340371	-0.639247
23593		9.596595	-0.021130	1.013322	-0.001964	-0.000371	-0.005707	-0.723145	0.549316	0.215332	0.379383	-0.575833	-0.340374	-0.639242
23594		9.603104	-0.018651	0.986359	0.002489	-0.000824	-0.004771	-0.714355	0.540771	0.213379	0.379356	-0.575871	-0.340399	-0.639211
23595		9.580554	-0.014627	1.009515	0.004373	0.001223	-0.006463	-0.716553	0.545166	0.208984	0.379340	-0.575869	-0.340451	-0.639194
23596		9.614961	-0.000666	0.976414	0.001814	0.004349	-0.006977	-0.716553	0.547119	0.210938	0.379341	-0.575837	-0.340488	-0.639202
23597		9.611179	-0.020522	0.996954	0.007409	0.004539	-0.006421	-0.718750	0.547119	0.217529	0.379385	-0.575791	-0.340554	-0.639183
23598		9.598488	-0.000277	1.045688	0.005516	0.005105	-0.006277	-0.712402	0.547119	0.210938	0.379387	-0.575774	-0.340577	-0.639185
23599		9.604888	0.002438	1.019796	0.003982	0.002612	-0.005277	-0.716797	0.549316	0.215332	0.379415	-0.575772	-0.340614	-0.639150
23600		9.600700	-0.008078	1.026079	0.005125	0.003254	-0.005657	-0.714600	0.547119	0.213135	0.379430	-0.575772	-0.340643	-0.639126
23601		9.624943	-0.017273	1.039253	0.000639	0.002037	-0.004553	-0.716797	0.547119	0.217529	0.379423	-0.575799	-0.340643	-0.639105
23602		9.610315	-0.003885	0.987214	0.003589	0.004002	-0.004093	-0.718750	0.547119	0.213135	0.379429	-0.575812	-0.340639	-0.639093
23603		9.602855	-0.015308	1.007136	0.002575	0.003767	-0.004622	-0.716553	0.545166	0.215576	0.379434	-0.575808	-0.340650	-0.639087
23604		9.600831	-0.012970	1.042921	0.003369	0.001615	-0.004875	-0.714355	0.542969	0.213379	0.379424	-0.575828	-0.340669	-0.639065
23605		9.607306	-0.010579	1.016459	0.001698	0.001327	-0.004514	-0.712402	0.547119	0.213135	0.379411	-0.575851	-0.340683	-0.639045
23606		9.607285	-0.009591	1.016669	0.001263	0.000421	-0.003403	-0.714355	0.545166	0.215576	0.379415	-0.575896	-0.340687	-0.639000
23607		9.607258	-0.008676	1.016930	-0.001032	0.001748	-0.004192	-0.716553	0.542969	0.211182	0.379384	-0.575941	-0.340664	-0.638990
23608		9.615479	-0.014533	1.026058	-0.001467	0.000842	-0.003081	-0.718750	0.542969	0.213379	0.379362	-0.575975	-0.340656	-0.638977
23609		9.589841	-0.005059	0.992083	-0.001689	0.001695	-0.003300	-0.712402	0.545166	0.215576	0.379327	-0.576007	-0.340636	-0.638979
23610		9.590248	-0.013896	1.006367	-0.000324	0.001485	-0.003461	-0.718750	0.545166	0.215576	0.379310	-0.576057	-0.340614	-0.638956
23611		9.601717	-0.019272	1.002190	0.001705	0.001956	-0.002400	-0.718750	0.547119	0.217529	0.379305	-0.576086	-0.340604	-0.638938
23612		9.600337	-0.020169	0.981346	0.001473	0.005421	-0.004168	-0.710205	0.547363	0.213135	0.379297	-0.576092	-0.340579	-0.638951
23613		9.619709	-0.008092	1.037396	0.001432	0.003125	-0.004240	-0.716553	0.545166	0.213379	0.379314	-0.576112	-0.340577	-0.638923
23614		9.605152	-0.025351	1.005347	-0.000947	0.003099	-0.004610	-0.714600	0.547119	0.213135	0.379291	-0.576129	-0.340565	-0.638928
23615		9.585301	-0.011471	1.001917	0.001739	0.003623	-0.004439	-0.710205	0.547363	0.213135	0.379302	-0.576135	-0.340569	-0.638914
23616		9.625534	0.006063	0.999080	0.000725	0.003387	-0.004969	-0.716553	0.545166	0.213379	0.379310	-0.576153	-0.340567	-0.638895
23617		9.598367	-0.023117	1.034672	0.004955	0.003793	-0.004248	-0.723145	0.549316	0.213135	0.379335	-0.576138	-0.340595	-0.638878
23618		9.613044	-0.027389	1.017716	0.003189	0.004764	-0.005017	-0.714355	0.545166	0.211182	0.379346	-0.576114	-0.340614	-0.638883
23619		9.585369	-0.016141	1.019468	0.003278	0.002876	-0.005999	-0.714355	0.542969	0.213379	0.379355	-0.576102	-0.340654	-0.638867
23620		9.597638	-0.009294	1.023481	0.004421	0.003519	-0.006378	-0.714355	0.542969	0.219971	0.379356	-0.576084	-0.340693	-0.638862
23621		9.614457	-0.000279	1.035694	0.002007	0.001825	-0.004709	-0.716797	0.547119	0.215332	0.379317	-0.576126	-0.340680	-0.638854
23622		9.609886	-0.001450	1.027662	0.002759	0.000618	-0.004470	-0.714355	0.542969	0.208984	0.379308	-0.576156	-0.340698	-0.638822
23623		9.615212	-0.031584	0.999289	0.000736	0.000775	-0.003420	-0.716553	0.542969	0.213379	0.379314	-0.576171	-0.340721	-0.638793
23624		9.571095	-0.007429	0.982664	0.004610	0.000999	-0.004118	-0.716797	0.549316	0.215332	0.379320	-0.576178	-0.340759	-0.638763
23625		9.584674	0.000877	1.007960	0.004031	0.001668	-0.005758	-0.716797	0.551514	0.215332	0.379322	-0.576190	-0.340792	-0.638733
23626		9.629078	-0.000346	1.019346	0.000602	0.003608	-0.001947	-0.712402	0.545166	0.217773	0.379344	-0.576222	-0.340761	-0.638708
23627		9.605927	-0.032131	0.984820	0.003189	0.004764	-0.005014	-0.714600	0.549316	0.213135	0.379344	-0.576229	-0.340754	-0.638706
23628		9.610726	-0.007726	0.988073	0.004298	0.003741	-0.003354	-0.718994	0.549316	0.213135	0.379389	-0.576227	-0.340771	-0.638672
23629		9.599548	-0.010264	1.007485	0.003591	0.004003	-0.004084	-0.720947	0.549316	0.215332	0.379415	-0.576217	-0.340788	-0.638656
23630		9.607709	-0.015875	1.017221	0.000905	0.003476	-0.004256	-0.718750	0.545166	0.213379	0.379405	-0.576229	-0.340779	-0.638656
23631		9.598527	-0.019548	1.001725	0.002793	0.006154	-0.003832	-0.714355	0.540771	0.217773	0.379424	-0.576203	-0.340778	-0.638669
23632		9.603716	-0.005125	1.019275	0.003550	0.005577	-0.001481	-0.716797	0.549316	0.215332	0.379441	-0.576208	-0.340747	-0.638671
23633		9.614760	-0.031629	1.022038	-0.001164	0.004577	-0.002717	-0.712646	0.551514	0.221924	0.379440	-0.576235	-0.340702	-0.638671
23634		9.601888	-0.026719	1.005757	-0.003097	0.002844	-0.002650	-0.716553	0.545166	0.208984	0.379404	-0.576320	-0.340618	-0.638660
23635		9.621954	-0.017599	1.004725	-0.002181	0.003710	-0.005358	-0.720947	0.549316	0.213135	0.379388	-0.576316	-0.340618	-0.638674
23636		9.601709	-0.024862	1.007510	0.000202	0.004368	-0.002874	-0.718750	0.545166	0.213379	0.379396	-0.576320	-0.340599	-0.638675
23637		9.609434	-0.021175	1.003268	-0.001909	0.002542	-0.003519	-0.716797	0.547119	0.215332	0.379368	-0.576346	-0.340575	-0.638681
23638		9.609360	-0.020452	1.003995	0.000425	0.003515	-0.002655	-0.718750	0.547119	0.217529	0.379370	-0.576370	-0.340550	-0.638673
23639		9.611771	-0.030334	0.983595	0.002272	0.003268	-0.004412	-0.714600	0.547119	0.217529	0.379357	-0.576384	-0.340545	-0.638670
23640		9.597316	-0.033289	1.016138	0.002318	0.002323	-0.004903	-0.712158	0.542969	0.215576	0.379344	-0.576411	-0.340545	-0.638653
23641		9.609135	-0.017288	1.006205	-0.000459	0.003684	-0.004095	-0.718750	0.545166	0.208984	0.379324	-0.576433	-0.340520	-0.638657
23642		9.608268	-0.027486	0.999164	-0.002134	0.002764	-0.005848	-0.712402	0.549316	0.213135	0.379297	-0.576430	-0.340532	-0.638671
23643		9.590426	-0.000457	1.025014	-0.000720	0.002241	-0.004386	-0.714600	0.545166	0.219971	0.379295	-0.576461	-0.340523	-0.638648
23644		9.608233	-0.025393	0.999551	-0.009511	-0.003988	-0.004167	-0.716553	0.547119	0.213135	0.379161	-0.576604	-0.340444	-0.638641
23645		9.600030	-0.017794	0.990234	0.000079	0.000091	-0.004638	-0.718750	0.547119	0.213135	0.379141	-0.576637	-0.340459	-0.638615
23646		9.613582	-0.009635	1.015295	-0.000451	0.000445	-0.004658	-0.716553	0.545166	0.217773	0.379115	-0.576666	-0.340469	-0.638599
23647		9.620588	-0.016863	1.002632	-0.002217	0.001413	-0.005428	-0.723145	0.549316	0.213135	0.379055	-0.576712	-0.340445	-0.638607
23648		9.597932	-0.027344	0.961643	-0.001874	0.004207	-0.005553	-0.716797	0.547119	0.215332	0.379026	-0.576709	-0.340435	-0.638632
23649		9.584664	-0.028219	1.016240	0.003189	0.004136	-0.007115	-0.716553	0.547119	0.213135	0.379018	-0.576692	-0.340465	-0.638636
23650		9.597678	-0.009902	1.028169	0.003284	0.002877	-0.005987	-0.716553	0.545166	0.215576	0.379024	-0.576681	-0.340502	-0.638622
23651		9.600922	-0.007827	1.015257	0.003731	0.001173	-0.005549	-0.716553	0.545166	0.217773	0.379014	-0.576691	-0.340538	-0.638600
23652		9.605415	-0.004288	1.023796	-0.000273	0.000536	-0.003947	-0.716553	0.545166	0.222168	0.378977	-0.576740	-0.340523	-0.638586
23653		9.626487	-0.028323	0.985607	-0.001827	0.003261	-0.006043	-0.714355	0.545166	0.217773	0.378905	-0.576783	-0.340479	-0.638613
23654		9.603299	-0.014692	0.995513	0.002047	0.003491	-0.006736	-0.714355	0.542969	0.215576	0.378880	-0.576788	-0.340489	-0.638618
23655		9.583081	-0.021433	0.998184	0.003237	0.003822	-0.005494	-0.712402	0.547119	0.221924	0.378878	-0.576779	-0.340508	-0.638617
23656		9.601883	-0.013436	0.975800	0.003626	0.005672	-0.006109	-0.720947	0.545166	0.215576	0.378868	-0.576784	-0.340494	-0.638626
23657		9.619036	-0.013510	1.002546	0.005522	0.004481	-0.008355	-0.718750	0.545166	0.215576	0.378858	-0.576739	-0.340553	-0.638641
23658		9.616390	-0.000921	1.024727	0.002225	0.003583	-0.006024	-0.716553	0.545166	0.219971	0.378842	-0.576731	-0.340571	-0.638648
23659		9.587897	-0.001112	1.018693	0.004864	0.005058	-0.005357	-0.716797	0.551514	0.219727	0.378841	-0.576722	-0.340577	-0.638654
23660		9.591093	0.001008	1.006325	0.004428	0.003522	-0.006358	-0.716553	0.545166	0.215576	0.378837	-0.576731	-0.340590	-0.638641
23661		9.600483	-0.002367	1.037548	0.001838	0.001732	-0.005407	-0.718506	0.540771	0.215576	0.378820	-0.576746	-0.340608	-0.638629
23662		9.598012	-0.004574	0.994818	0.001343	0.004380	-0.005354	-0.712158	0.542969	0.219971	0.378799	-0.576731	-0.340614	-0.638651
23663		9.601663	-0.012416	0.996376	0.002226	0.004213	-0.003914	-0.716797	0.549316	0.215332	0.378789	-0.576752	-0.340589	-0.638651
23664		9.609801	-0.018014	1.006419	0.004687	0.005596	-0.003955	-0.712402	0.547119	0.219727	0.378828	-0.576733	-0.340598	-0.638640
23665		9.600663	-0.021510	0.991106	0.001425	0.005730	-0.005770	-0.718750	0.547119	0.215332	0.378813	-0.576743	-0.340571	-0.638655
23666		9.605757	-0.006365	1.008632	0.003805	0.005763	-0.005394	-0.714600	0.547119	0.213135	0.378828	-0.576714	-0.340586	-0.638663
23667		9.602332	-0.005786	1.023080	0.002981	0.003008	-0.003672	-0.716553	0.542969	0.213379	0.378855	-0.576717	-0.340603	-0.638636
23668		9.609789	-0.022879	1.024790	0.001838	0.002363	-0.003297	-0.716553	0.542969	0.213379	0.378862	-0.576723	-0.340614	-0.638620
23669		9.609279	-0.012455	1.011474	0.001308	0.002715	-0.003317	-0.716797	0.547119	0.217529	0.378867	-0.576729	-0.340619	-0.638609
23670		9.611768	-0.022248	0.991224	0.000460	0.005177	-0.004684	-0.718750	0.547119	0.217529	0.378854	-0.576736	-0.340593	-0.638624
23671		9.594854	-0.028793	0.980776	0.002357	0.004618	-0.004818	-0.718994	0.551514	0.215332	0.378849	-0.576735	-0.340588	-0.638632
23672		9.619341	-0.016811	0.988533	0.001121	0.005230	-0.005569	-0.718750	0.547119	0.217529	0.378849	-0.576728	-0.340582	-0.638641
23673		9.602405	-0.023087	0.978342	0.002039	0.006727	-0.006163	-0.716553	0.545166	0.217773	0.378840	-0.576706	-0.340574	-0.638671
23674		9.605604	0.014328	1.024724	0.002230	0.003580	-0.006017	-0.718750	0.547119	0.217529	0.378818	-0.576710	-0.340579	-0.638677
23675		9.600757	-0.007550	1.023312	0.004303	0.003115	-0.005442	-0.712402	0.545166	0.215576	0.378816	-0.576709	-0.340601	-0.638668
23676		9.614146	-0.034534	0.990663	-0.000988	0.004031	-0.004109	-0.718750	0.542969	0.217773	0.378803	-0.576731	-0.340571	-0.638671
23677		9.618780	-0.010086	0.994062	0.001603	0.005822	-0.005056	-0.720947	0.547119	0.217529	0.378788	-0.576716	-0.340559	-0.638700
23678		9.595483	0.003166	1.004311	-0.000857	0.004436	-0.005016	-0.718750	0.545166	0.219971	0.378755	-0.576727	-0.340532	-0.638724
23679		9.579787	-0.001666	1.015079	0.000877	0.001178	-0.004317	-0.714355	0.545166	0.217773	0.378716	-0.576769	-0.340517	-0.638718
23680		9.591354	-0.006600	1.010766	-0.000441	0.000438	-0.004651	-0.714355	0.540771	0.217773	0.378676	-0.576820	-0.340505	-0.638702
23681		9.615662	-0.015671	1.023668	0.000701	0.001084	-0.005026	-0.714355	0.545166	0.215576	0.378639	-0.576850	-0.340507	-0.638695
23682		9.602464	-0.000566	0.992654	-0.001629	0.000104	-0.005893	-0.714355	0.545166	0.213379	0.378590	-0.576895	-0.340507	-0.638684
23683		9.610724	-0.006005	1.001529	0.000795	-0.000173	-0.003899	-0.718750	0.547119	0.221924	0.378584	-0.576929	-0.340525	-0.638647
23684		9.610777	-0.005039	1.001021	-0.000330	-0.004059	-0.004089	-0.716553	0.545166	0.211182	0.378511	-0.577028	-0.340514	-0.638607
23685		9.603823	-0.030875	0.954563	0.001424	-0.002414	-0.004859	-0.714355	0.545166	0.215576	0.378501	-0.577059	-0.340570	-0.638555
23686		9.569769	-0.000289	0.975735	0.003080	0.001120	-0.004647	-0.710205	0.545166	0.222168	0.378502	-0.577076	-0.340596	-0.638524
23687		9.610860	-0.001614	1.000237	0.002468	0.000122	-0.004252	-0.720703	0.540771	0.215576	0.378473	-0.577139	-0.340583	-0.638492
23688		9.610607	-0.021412	1.006471	0.001232	0.000732	-0.005003	-0.716553	0.540771	0.215576	0.378444	-0.577147	-0.340612	-0.638486
23689		9.609445	-0.022200	0.984860	0.000440	0.000272	-0.003211	-0.716797	0.553467	0.221680	0.378426	-0.577178	-0.340619	-0.638465
23690		9.576608	-0.025432	0.969372	-0.000216	-0.000414	-0.004431	-0.716797	0.549316	0.217529	0.378382	-0.577256	-0.340589	-0.638437
23691		9.572790	-0.015121	0.969181	0.001218	0.003339	-0.006545	-0.712402	0.549316	0.224121	0.378360	-0.577265	-0.340594	-0.638439
23692		9.605518	-0.009421	0.985759	0.002261	0.005875	-0.005938	-0.708008	0.545166	0.219971	0.378335	-0.577285	-0.340553	-0.638457
23693		9.620752	-0.022944	0.983302	0.003579	0.006616	-0.005602	-0.716553	0.545166	0.219971	0.378344	-0.577279	-0.340538	-0.638466
23694		9.601202	-0.018403	0.994260	0.005527	0.005115	-0.006225	-0.716553	0.545166	0.213379	0.378346	-0.577258	-0.340559	-0.638472
23695		9.588351	-0.012474	0.978155	0.004035	0.004280	-0.007269	-0.716797	0.549316	0.217529	0.378358	-0.577219	-0.340614	-0.638471
23696		9.593849	-0.006501	1.009307	0.001301	0.004688	-0.006959	-0.718750	0.547119	0.221924	0.378337	-0.577216	-0.340614	-0.638486
23697		9.597055	-0.004400	0.997198	0.002438	0.005968	-0.005226	-0.712402	0.545166	0.213379	0.378320	-0.577215	-0.340589	-0.638511
23698		9.600939	0.008805	0.992857	0.001521	0.004470	-0.004634	-0.718750	0.547119	0.221924	0.378339	-0.577206	-0.340598	-0.638503
23699		9.593951	-0.012178	1.026614	0.000960	0.002526	-0.004728	-0.714600	0.547119	0.213135	0.378300	-0.577242	-0.340573	-0.638507
23700		9.600570	-0.009871	1.000471	-0.000408	0.002730	-0.004574	-0.720703	0.542969	0.215576	0.378299	-0.577255	-0.340575	-0.638495
23701		9.606501	-0.018949	0.966767	0.001521	0.004470	-0.004633	-0.716553	0.545166	0.219971	0.378298	-0.577235	-0.340586	-0.638507
23702		9.596557	0.001416	1.001980	0.004511	0.005507	-0.004647	-0.718750	0.547119	0.213135	0.378308	-0.577223	-0.340585	-0.638513
23703		9.591958	0.000094	0.994931	0.003013	0.005305	-0.003587	-0.714600	0.547119	0.221924	0.378346	-0.577196	-0.340600	-0.638507
23704		9.584507	-0.011549	1.014805	0.003209	0.002159	-0.003442	-0.714600	0.549316	0.215332	0.378336	-0.577237	-0.340581	-0.638486
23705		9.592712	-0.017219	1.024268	0.002678	0.002511	-0.003463	-0.716553	0.540771	0.219971	0.378355	-0.577255	-0.340585	-0.638456
23706		9.591050	-0.008506	0.989545	0.001471	0.005414	-0.004141	-0.714600	0.545166	0.219971	0.378344	-0.577251	-0.340564	-0.638478
23707		9.606539	-0.001483	0.980769	0.001471	0.005414	-0.004141	-0.714600	0.545166	0.222168	0.378337	-0.577258	-0.340534	-0.638491
23708		9.617367	-0.017804	0.969825	0.004687	0.005601	-0.003936	-0.718750	0.547119	0.224121	0.378346	-0.577259	-0.340515	-0.638495
23709		9.593786	-0.025695	0.986377	0.002083	0.006412	-0.004534	-0.716553	0.545166	0.213379	0.378322	-0.577268	-0.340468	-0.638526
23710		9.582012	-0.018709	0.992387	0.003800	0.006398	-0.003269	-0.718750	0.542969	0.215576	0.378373	-0.577230	-0.340482	-0.638522
23711		9.591198	-0.022529	1.024663	0.001196	0.007209	-0.003869	-0.716553	0.545166	0.219971	0.378391	-0.577197	-0.340470	-0.638549
23712		9.619606	0.001239	1.026925	0.000606	0.002970	-0.004038	-0.718750	0.542969	0.213379	0.378366	-0.577226	-0.340445	-0.638551
23713		9.593928	-0.010431	0.999119	-0.001016	0.001728	-0.004178	-0.714600	0.547119	0.213135	0.378352	-0.577236	-0.340455	-0.638544
23714		9.616203	-0.002246	0.963065	0.002534	0.004711	-0.004094	-0.718750	0.542969	0.217773	0.378383	-0.577222	-0.340467	-0.638532
23715		9.593074	-0.019811	0.993414	0.005168	0.006195	-0.003419	-0.716797	0.549316	0.213135	0.378417	-0.577189	-0.340476	-0.638537
23716		9.584663	-0.012241	0.985991	0.001247	0.006263	-0.004357	-0.712402	0.549316	0.213135	0.378442	-0.577168	-0.340472	-0.638544
23717		9.596776	-0.005792	0.990762	0.003321	0.005804	-0.003778	-0.712158	0.541016	0.215576	0.378489	-0.577150	-0.340477	-0.638529
23718		9.618797	-0.018384	0.961692	0.004901	0.007356	-0.005250	-0.716553	0.545166	0.219971	0.378524	-0.577102	-0.340496	-0.638542
23719		9.588613	-0.006394	0.999155	0.005249	0.007545	-0.003832	-0.718750	0.542969	0.217773	0.378552	-0.577074	-0.340484	-0.638557
23720		9.615502	-0.026172	0.992622	0.005076	0.007450	-0.004540	-0.714355	0.542969	0.211182	0.378579	-0.577029	-0.340492	-0.638578
23721		9.584863	-0.004854	1.016105	0.003749	0.007342	-0.002773	-0.720947	0.545166	0.215576	0.378644	-0.576979	-0.340506	-0.638576
23722		9.595701	-0.021382	1.005520	0.001423	0.006356	-0.003646	-0.720947	0.545166	0.219971	0.378657	-0.576956	-0.340492	-0.638597
23723		9.611796	-0.003007	1.004817	0.003097	0.006653	-0.003993	-0.716553	0.545166	0.215576	0.378659	-0.576939	-0.340470	-0.638623
23724		9.605982	-0.027120	0.982307	0.004212	0.005006	-0.004437	-0.716553	0.545166	0.217773	0.378682	-0.576918	-0.340486	-0.638619
23725		9.594634	-0.029551	1.002118	0.001556	0.006760	-0.004550	-0.720947	0.545166	0.215576	0.378682	-0.576904	-0.340462	-0.638645
23726		9.607334	-0.011473	1.014820	0.002751	0.006463	-0.005409	-0.718750	0.545166	0.217773	0.378690	-0.576867	-0.340470	-0.638669
23727		9.599985	-0.001723	1.028938	0.004570	0.004561	-0.005121	-0.718750	0.547119	0.217529	0.378696	-0.576850	-0.340486	-0.638672
23728		9.600770	-0.019609	1.057543	0.000889	0.001172	-0.004305	-0.712402	0.547119	0.215332	0.378671	-0.576884	-0.340481	-0.638659
23729		9.618294	-0.004418	0.998847	0.001009	0.002212	-0.003107	-0.718750	0.545166	0.217773	0.378676	-0.576917	-0.340468	-0.638634
23730		9.604345	-0.022329	0.966610	-0.002432	0.002871	-0.003537	-0.716553	0.540771	0.219971	0.378637	-0.576953	-0.340425	-0.638647
23731		9.604874	-0.010130	0.975138	0.000253	0.003412	-0.003348	-0.712158	0.541016	0.215576	0.378610	-0.576978	-0.340391	-0.638659
