// Start Time: Unknown
// Update Rate: 40.0Hz
// Filter Profile: human (46.1)
// Firmware Version: 4.6.0
PacketCounter	SampleTimeFine	Acc_X	Acc_Y	Acc_Z	Gyr_X	Gyr_Y	Gyr_Z	Mag_X	Mag_Y	Mag_Z	Quat_q0	Quat_q1	Quat_q2	Quat_q3
23208		5.385740	1.311610	7.998584	0.004139	-0.000869	-0.003251	-0.591309	0.558350	-0.590576	0.567048	-0.191279	-0.229011	-0.767739
23209		5.375180	1.317511	7.990883	0.003166	-0.000722	-0.003411	-0.584717	0.561279	-0.586426	0.567020	-0.191254	-0.229055	-0.767752
23210		5.384040	1.299750	8.017405	0.002702	-0.001288	-0.002721	-0.585693	0.562744	-0.588867	0.567036	-0.191212	-0.229068	-0.767747
23211		5.383552	1.312022	8.025150	0.003693	-0.002037	-0.003949	-0.585205	0.562012	-0.586426	0.567044	-0.191156	-0.229100	-0.767746
23212		5.362999	1.299116	8.007147	0.004749	-0.004667	-0.005025	-0.580322	0.555176	-0.587158	0.567024	-0.191126	-0.229170	-0.767747
23213		5.390988	1.319845	8.017916	0.006165	-0.003648	-0.004167	-0.576172	0.559814	-0.584473	0.567042	-0.191057	-0.229227	-0.767734
23214		5.381513	1.314904	8.001836	0.004168	-0.001811	-0.003175	-0.584717	0.558594	-0.586914	0.567093	-0.190968	-0.229237	-0.767716
23215		5.374279	1.310089	8.021033	0.003692	-0.002038	-0.003949	-0.579346	0.555176	-0.590088	0.567083	-0.190927	-0.229277	-0.767721
23216		5.380250	1.303322	8.020338	0.002973	-0.002248	-0.003684	-0.580078	0.562988	-0.591797	0.567116	-0.190854	-0.229283	-0.767713
23217		5.390579	1.311330	8.035341	0.007357	-0.003213	-0.003659	-0.580322	0.567139	-0.589355	0.567178	-0.190759	-0.229319	-0.767681
23218		5.393041	1.303269	8.013001	0.004440	-0.002771	-0.004138	-0.586914	0.557861	-0.590576	0.567224	-0.190693	-0.229326	-0.767661
23219		5.385144	1.309830	8.040208	0.004884	-0.001603	-0.003441	-0.584473	0.562256	-0.586914	0.567211	-0.190627	-0.229383	-0.767669
23220		5.391715	1.315928	8.033828	0.005170	-0.002901	-0.002939	-0.581787	0.565674	-0.584717	0.567217	-0.190597	-0.229428	-0.767659
23221		5.380974	1.309458	8.031449	0.005392	-0.002317	-0.002591	-0.576172	0.561279	-0.589355	0.567246	-0.190568	-0.229453	-0.767637
23222		5.387601	1.315456	8.025044	0.004674	-0.002527	-0.002325	-0.583984	0.560059	-0.592773	0.567306	-0.190474	-0.229471	-0.767611
23223		5.383011	1.313552	8.016816	0.005137	-0.001961	-0.003016	-0.589355	0.564697	-0.593994	0.567330	-0.190399	-0.229502	-0.767602
23224		5.395085	1.311795	8.010234	0.005345	-0.001040	-0.004131	-0.581055	0.553467	-0.587646	0.567349	-0.190354	-0.229515	-0.767595
23225		5.371532	1.320081	8.022216	0.006603	-0.002485	-0.003470	-0.583740	0.565186	-0.596680	0.567320	-0.190268	-0.229616	-0.767608
23226		5.384594	1.307293	8.007373	0.006140	-0.003051	-0.002779	-0.577393	0.555908	-0.584229	0.567395	-0.190207	-0.229632	-0.767563
23227		5.395674	1.304480	8.014233	0.007814	-0.002652	-0.004349	-0.587646	0.560303	-0.583984	0.567373	-0.190138	-0.229735	-0.767566
23228		5.383355	1.320941	8.027973	0.006569	-0.001546	-0.003547	-0.580322	0.557129	-0.593994	0.567332	-0.190149	-0.229805	-0.767573
23229		5.390272	1.303584	8.018994	0.006919	-0.004724	-0.002890	-0.580078	0.562012	-0.591553	0.567367	-0.190071	-0.229881	-0.767543
23230		5.396687	1.297333	8.017935	0.005915	-0.003637	-0.003127	-0.582520	0.555908	-0.589844	0.567422	-0.190035	-0.229916	-0.767501
23231		5.370220	1.315803	8.002774	0.002233	-0.001859	-0.002030	-0.583740	0.554443	-0.586182	0.567418	-0.190013	-0.229942	-0.767502
23232		5.369147	1.315402	8.016168	0.004129	-0.000876	-0.003253	-0.576416	0.559326	-0.584229	0.567371	-0.189993	-0.229998	-0.767525
23233		5.397175	1.324298	8.019372	0.001214	-0.000434	-0.003731	-0.580811	0.558838	-0.599609	0.567391	-0.189990	-0.229974	-0.767517
23234		5.379912	1.312633	8.023238	0.004398	-0.001569	-0.001363	-0.588623	0.560303	-0.594238	0.567495	-0.189879	-0.229983	-0.767466
23235		5.375850	1.299328	8.007136	0.004128	-0.000877	-0.003253	-0.581299	0.555664	-0.584473	0.567501	-0.189853	-0.230008	-0.767459
23236		5.391608	1.299284	8.022028	0.003446	-0.002294	-0.005761	-0.587158	0.557129	-0.592285	0.567435	-0.189865	-0.230060	-0.767490
23237		5.381635	1.317919	8.008602	0.003873	-0.000521	-0.003678	-0.583252	0.566650	-0.583252	0.567413	-0.189834	-0.230098	-0.767503
23238		5.375363	1.314358	8.014392	0.002407	0.000002	-0.003224	-0.583740	0.552490	-0.586426	0.567443	-0.189930	-0.230043	-0.767474
23239		5.386586	1.323283	8.016015	0.003188	-0.001671	-0.003335	-0.584717	0.554443	-0.587402	0.567369	-0.189920	-0.230111	-0.767510
23240		5.386350	1.311686	8.021301	0.002726	-0.002236	-0.002643	-0.574463	0.561523	-0.594482	0.567315	-0.189931	-0.230164	-0.767532
23241		5.376851	1.306404	8.005312	0.005402	-0.002926	-0.003977	-0.583008	0.563965	-0.594238	0.567462	-0.189832	-0.230152	-0.767451
23242		5.383406	1.312490	7.998914	0.004636	-0.001590	-0.002402	-0.577881	0.562744	-0.585205	0.567564	-0.189806	-0.230136	-0.767387
23243		5.377983	1.321686	7.998813	0.003681	-0.002048	-0.003948	-0.582031	0.567383	-0.587402	0.567623	-0.189850	-0.230107	-0.767341
23244		5.382666	1.313548	8.011854	0.003187	-0.001672	-0.003335	-0.583984	0.562012	-0.591064	0.567709	-0.189928	-0.230051	-0.767275
23245		5.383692	1.303510	8.003432	0.003935	-0.002404	-0.003523	-0.587646	0.558594	-0.593018	0.567745	-0.189938	-0.230062	-0.767243
23246		5.375866	1.309872	8.030647	0.002487	-0.002486	-0.004455	-0.587891	0.563477	-0.594971	0.567711	-0.189933	-0.230111	-0.767254
23247		5.383636	1.317085	8.010621	0.003680	-0.002049	-0.003948	-0.586426	0.557617	-0.594727	0.567750	-0.189929	-0.230123	-0.767222
23248		5.383277	1.305676	8.015979	0.003153	-0.000732	-0.003412	-0.579102	0.553711	-0.590576	0.567747	-0.189866	-0.230166	-0.767227
23249		5.371026	1.297627	8.027542	0.005605	-0.001738	-0.002243	-0.576172	0.559570	-0.595215	0.567762	-0.189772	-0.230229	-0.767221
23250		5.378896	1.305174	8.007391	0.005176	-0.003514	-0.004325	-0.582520	0.555420	-0.585693	0.567887	-0.189656	-0.230232	-0.767156
23251		5.379182	1.330414	8.009179	0.004188	-0.002761	-0.003097	-0.585449	0.554688	-0.595947	0.567831	-0.189695	-0.230288	-0.767171
23252		5.390887	1.315715	8.008214	0.003662	-0.001444	-0.002562	-0.580322	0.554932	-0.585938	0.567825	-0.189592	-0.230361	-0.767179
23253		5.376398	1.304929	8.046992	0.004937	-0.003494	-0.003285	-0.570312	0.553467	-0.595947	0.567793	-0.189613	-0.230417	-0.767181
23254		5.390249	1.304539	8.026361	0.005462	-0.004812	-0.003821	-0.578613	0.562012	-0.592773	0.567958	-0.189396	-0.230446	-0.767104
23255		5.380669	1.323206	8.012612	0.003677	-0.002051	-0.003948	-0.578613	0.560303	-0.599609	0.568095	-0.189359	-0.230403	-0.767024
23256		5.379096	1.310345	8.031672	0.002912	-0.000713	-0.002374	-0.587158	0.555908	-0.592041	0.568283	-0.189196	-0.230366	-0.766936
23257		5.369339	1.304763	8.015916	0.002705	-0.001905	-0.004107	-0.586914	0.564453	-0.591309	0.568210	-0.189197	-0.230432	-0.766970
23258		5.386540	1.306313	8.016955	0.006604	-0.003100	-0.004857	-0.584961	0.558838	-0.592041	0.568254	-0.189261	-0.230456	-0.766914
23259		5.382627	1.317211	8.002912	0.004696	-0.003474	-0.002246	-0.586182	0.552979	-0.593262	0.568272	-0.189275	-0.230500	-0.766884
23260		5.381421	1.304877	8.021654	0.007080	-0.002871	-0.004085	-0.586914	0.546631	-0.594727	0.568194	-0.189200	-0.230638	-0.766919
23261		5.387524	1.298745	8.020817	0.005138	-0.002577	-0.004403	-0.582520	0.558350	-0.588623	0.568032	-0.189065	-0.230826	-0.767016
23262		5.393861	1.304929	8.014524	0.005056	-0.000089	-0.003174	-0.588135	0.557129	-0.592529	0.568058	-0.189086	-0.230820	-0.766994
23263		5.393931	1.306193	8.014270	0.003181	-0.001677	-0.003334	-0.581787	0.560547	-0.590088	0.568014	-0.189105	-0.230869	-0.767006
23264		5.372535	1.303946	8.004560	0.003724	-0.003329	-0.002404	-0.582031	0.557373	-0.587158	0.568089	-0.189160	-0.230840	-0.766946
23265		5.387826	1.315190	8.027278	0.005836	-0.001763	-0.003283	-0.587158	0.560791	-0.590576	0.568093	-0.189205	-0.230854	-0.766928
23266		5.382732	1.300846	8.024733	0.003465	-0.003249	-0.005681	-0.589355	0.554443	-0.596436	0.568067	-0.189289	-0.230869	-0.766922
23267		5.394622	1.322835	8.020426	0.004354	-0.000906	-0.004294	-0.580322	0.565186	-0.592285	0.568011	-0.189204	-0.230972	-0.766954
23268		5.390463	1.309398	8.004467	0.000983	-0.001030	-0.004078	-0.587402	0.557861	-0.591553	0.568168	-0.189247	-0.230836	-0.766868
23269		5.367049	1.316585	8.016558	0.001323	-0.003600	-0.002029	-0.583008	0.560303	-0.591309	0.568143	-0.189317	-0.230860	-0.766861
23270		5.384177	1.304944	8.023099	0.003293	-0.005110	-0.004484	-0.579346	0.560547	-0.598145	0.568183	-0.189370	-0.230854	-0.766821
23271		5.373981	1.298335	8.020463	0.004041	-0.005843	-0.004671	-0.586914	0.557861	-0.589844	0.568329	-0.189280	-0.230838	-0.766739
23272		5.385965	1.307465	8.021488	0.002529	-0.003770	-0.002910	-0.576904	0.560303	-0.593994	0.568292	-0.189365	-0.230870	-0.766736
23273		5.386707	1.321299	8.015415	0.005766	0.000118	-0.003443	-0.582764	0.564941	-0.594971	0.568464	-0.189258	-0.230798	-0.766656
23274		5.374997	1.302020	8.019185	0.003129	-0.000130	-0.002028	-0.582031	0.556152	-0.584961	0.568632	-0.189254	-0.230703	-0.766562
23275		5.393188	1.304486	8.006745	0.003669	-0.002057	-0.003948	-0.577148	0.560791	-0.592773	0.568586	-0.189343	-0.230709	-0.766572
23276		5.387962	1.313314	8.006539	0.000844	-0.003832	-0.002801	-0.583496	0.555176	-0.593750	0.568725	-0.189342	-0.230614	-0.766497
23277		5.388001	1.301820	8.011712	0.005609	-0.002351	-0.003631	-0.577637	0.555176	-0.588867	0.568725	-0.189272	-0.230680	-0.766495
23278		5.383380	1.299932	8.003521	0.004880	-0.001950	-0.001978	-0.583496	0.556396	-0.594482	0.568775	-0.189249	-0.230671	-0.766466
23279		5.377888	1.309190	8.003422	0.005083	-0.001032	-0.003097	-0.584229	0.552979	-0.588135	0.568806	-0.189176	-0.230707	-0.766451
23280		5.393643	1.309349	8.018297	0.004126	-0.001495	-0.004641	-0.588135	0.559814	-0.591064	0.568712	-0.189195	-0.230772	-0.766496
23281		5.382824	1.315661	8.010651	0.007636	0.001706	-0.003285	-0.582031	0.560547	-0.589111	0.568716	-0.189206	-0.230806	-0.766480
23282		5.389668	1.310690	7.996489	0.003667	-0.002059	-0.003948	-0.577637	0.555176	-0.585938	0.568761	-0.189272	-0.230764	-0.766443
23283		5.381614	1.317221	8.023864	0.003599	-0.000178	-0.004107	-0.577393	0.553467	-0.586182	0.568772	-0.189290	-0.230725	-0.766442
23284		5.381531	1.318582	8.023696	0.004569	-0.000324	-0.003948	-0.579590	0.559814	-0.589600	0.568771	-0.189281	-0.230713	-0.766449
23285		5.388798	1.289454	8.007223	0.002440	-0.001559	-0.004532	-0.589355	0.561035	-0.596924	0.568834	-0.189315	-0.230646	-0.766414
23286		5.386563	1.324546	8.030940	0.005282	-0.000116	-0.004216	-0.577393	0.556396	-0.591797	0.568861	-0.189278	-0.230682	-0.766392
23287		5.384793	1.313976	7.987618	0.003396	-0.001096	-0.002988	-0.576660	0.558838	-0.589844	0.568944	-0.189221	-0.230641	-0.766357
23288		5.369466	1.314529	8.034576	0.005113	-0.001975	-0.003017	-0.585449	0.563477	-0.593018	0.569049	-0.189213	-0.230587	-0.766298
23289		5.387242	1.304971	8.027716	0.005551	-0.001082	-0.005175	-0.583496	0.552734	-0.593506	0.569107	-0.189241	-0.230570	-0.766252
23290		5.378188	1.312486	8.006016	0.005436	-0.004213	-0.002431	-0.585938	0.551758	-0.591309	0.569080	-0.189190	-0.230667	-0.766256
23291		5.379539	1.302665	7.997405	0.004412	-0.002795	-0.004135	-0.588135	0.561035	-0.590332	0.568983	-0.189175	-0.230774	-0.766299
23292		5.378055	1.326604	8.013103	0.004754	0.001201	-0.003683	-0.582031	0.559814	-0.589111	0.568980	-0.189236	-0.230768	-0.766288
23293		5.381522	1.293512	8.037861	0.003872	-0.000865	-0.002216	-0.589600	0.564697	-0.593018	0.569031	-0.189290	-0.230722	-0.766251
23294		5.383366	1.308652	8.018122	0.003899	-0.002087	-0.004986	-0.580566	0.561768	-0.592773	0.569048	-0.189379	-0.230714	-0.766218
23295		5.377863	1.317922	8.018007	0.003885	-0.001477	-0.003601	-0.585205	0.559814	-0.593994	0.569145	-0.189379	-0.230650	-0.766165
23296		5.378638	1.308028	8.009802	0.004308	0.000027	-0.004375	-0.586182	0.555176	-0.583740	0.569177	-0.189355	-0.230648	-0.766149
23297		5.378360	1.296905	8.015177	0.005144	-0.002918	-0.002936	-0.575195	0.563721	-0.596924	0.569082	-0.189486	-0.230709	-0.766169
23298		5.377496	1.297224	8.028378	0.004367	-0.002138	-0.007065	-0.582031	0.560303	-0.593750	0.569245	-0.189394	-0.230604	-0.766102
23299		5.388949	1.306759	8.029653	0.004174	-0.002773	-0.003095	-0.583252	0.565918	-0.591309	0.569313	-0.189389	-0.230584	-0.766058
23300		5.383079	1.303360	8.035227	0.004840	-0.001012	-0.002058	-0.583984	0.557617	-0.590820	0.569428	-0.189458	-0.230507	-0.765979
23301		5.377466	1.312608	8.035184	0.005553	-0.000804	-0.002326	-0.577881	0.557373	-0.588379	0.569442	-0.189460	-0.230527	-0.765962
23302		5.396160	1.291702	8.020287	0.005634	-0.003299	-0.003549	-0.588379	0.561035	-0.594238	0.569477	-0.189478	-0.230516	-0.765936
23303		5.379447	1.317040	8.020455	0.005120	-0.002591	-0.004401	-0.577637	0.552490	-0.593018	0.569482	-0.189498	-0.230558	-0.765914
23304		5.396301	1.306103	8.027132	0.004663	-0.003154	-0.003708	-0.579590	0.560303	-0.591797	0.569495	-0.189411	-0.230590	-0.765916
23305		5.374418	1.315343	8.025191	0.005210	-0.004803	-0.002774	-0.589600	0.559814	-0.591309	0.569568	-0.189435	-0.230573	-0.765861
23306		5.381945	1.310338	8.010585	0.005832	-0.002384	-0.004669	-0.589111	0.556152	-0.594971	0.569531	-0.189489	-0.230639	-0.765855
23307		5.394953	1.297428	7.995898	0.005362	-0.002334	-0.002591	-0.579590	0.558594	-0.594238	0.569507	-0.189466	-0.230730	-0.765851
23308		5.377126	1.321185	8.009735	0.004461	-0.004071	-0.002587	-0.576416	0.552246	-0.583252	0.569580	-0.189440	-0.230718	-0.765807
23309		5.383087	1.302061	8.014571	0.004917	-0.003509	-0.003281	-0.585449	0.560791	-0.584473	0.569544	-0.189493	-0.230728	-0.765818
23310		5.383581	1.303407	8.014020	0.003435	-0.002656	-0.004292	-0.589111	0.554443	-0.589844	0.569507	-0.189648	-0.230712	-0.765812
23311		5.387803	1.307011	8.034875	0.005863	-0.003328	-0.004589	-0.580078	0.560547	-0.593262	0.569417	-0.189681	-0.230824	-0.765837
23312		5.389321	1.309915	8.020695	0.004590	-0.001274	-0.003870	-0.587402	0.565430	-0.594971	0.569495	-0.189653	-0.230779	-0.765800
23313		5.367663	1.307795	8.011183	0.003878	-0.001482	-0.003602	-0.591553	0.561279	-0.592529	0.569561	-0.189690	-0.230744	-0.765752
23314		5.379445	1.293245	8.010285	0.004168	-0.002777	-0.003094	-0.580322	0.568115	-0.591309	0.569545	-0.189761	-0.230790	-0.765732
23315		5.379300	1.305752	8.017613	0.005194	-0.004192	-0.001389	-0.582520	0.562256	-0.591309	0.569682	-0.189849	-0.230694	-0.765637
23316		5.374046	1.315075	8.017299	0.005558	-0.001421	-0.003712	-0.573730	0.558350	-0.593994	0.569737	-0.189866	-0.230664	-0.765601
23317		5.390545	1.304256	8.024218	0.005523	-0.000480	-0.003793	-0.587891	0.564209	-0.588135	0.569839	-0.189761	-0.230599	-0.765571
23318		5.379785	1.310232	8.016557	0.003584	-0.000189	-0.004110	-0.581787	0.559082	-0.587891	0.569849	-0.189865	-0.230567	-0.765547
23319		5.378587	1.310403	8.030027	0.005300	-0.001068	-0.004138	-0.595947	0.562012	-0.600342	0.569856	-0.189895	-0.230556	-0.765537
23320		5.374008	1.308730	8.021787	0.006372	-0.004038	-0.003735	-0.583252	0.552246	-0.587402	0.569856	-0.189878	-0.230678	-0.765505
23321		5.392187	1.299006	8.014714	0.003197	-0.002634	-0.003252	-0.585938	0.561035	-0.588867	0.569796	-0.189904	-0.230726	-0.765529
23322		5.391113	1.299091	8.028120	0.005007	0.000226	-0.004647	-0.583252	0.559570	-0.588135	0.569795	-0.189944	-0.230716	-0.765522
23323		5.369062	1.296946	8.018887	0.003793	0.001012	-0.002381	-0.582764	0.559082	-0.589355	0.569818	-0.189976	-0.230675	-0.765510
23324		5.390087	1.312991	8.035798	0.003885	-0.002100	-0.004986	-0.582764	0.559326	-0.595703	0.569813	-0.190007	-0.230665	-0.765509
23325		5.380772	1.320045	8.014284	0.002905	-0.001340	-0.003760	-0.582520	0.553955	-0.593994	0.569853	-0.189962	-0.230645	-0.765496
23326		5.378564	1.318690	8.041385	0.003873	-0.001486	-0.003602	-0.584473	0.557373	-0.580811	0.569849	-0.189896	-0.230678	-0.765506
23327		5.375764	1.306384	8.011737	0.001714	-0.001783	-0.004262	-0.575928	0.570557	-0.598877	0.569775	-0.190045	-0.230659	-0.765530
23328		5.380872	1.310854	8.019163	0.004095	-0.000898	-0.003257	-0.576660	0.561279	-0.589600	0.569964	-0.189998	-0.230501	-0.765448
23329		5.380335	1.299490	8.024832	0.003056	0.001130	-0.003579	-0.580811	0.558594	-0.585449	0.570032	-0.189990	-0.230398	-0.765430
23330		5.374666	1.321105	8.019317	0.004024	0.000984	-0.003421	-0.581787	0.557373	-0.586182	0.570035	-0.190028	-0.230356	-0.765431
23331		5.368138	1.304998	8.030904	0.003185	-0.002020	-0.001867	-0.580322	0.566895	-0.585205	0.570031	-0.190091	-0.230342	-0.765423
23332		5.387322	1.296450	8.010277	0.006555	-0.002511	-0.003472	-0.578125	0.557617	-0.597168	0.570089	-0.190200	-0.230276	-0.765373
23333		5.381095	1.317232	8.017968	0.004840	-0.001633	-0.003443	-0.578125	0.556396	-0.588135	0.570152	-0.190093	-0.230267	-0.765355
23334		5.375861	1.302384	8.015787	0.001923	-0.000581	-0.002534	-0.578613	0.558105	-0.592529	0.570166	-0.190101	-0.230220	-0.765357
23335		5.374787	1.302122	8.029256	0.003871	-0.001488	-0.003601	-0.582031	0.556641	-0.591309	0.570203	-0.190063	-0.230197	-0.765346
23336		5.381386	1.308018	8.022741	0.004455	-0.004077	-0.002583	-0.584473	0.555664	-0.588135	0.570205	-0.190068	-0.230231	-0.765332
23337		5.386876	1.312750	8.029865	0.004616	-0.002222	-0.003788	-0.582764	0.558350	-0.590820	0.570163	-0.190093	-0.230276	-0.765344
23338		5.377099	1.307488	8.014125	0.005514	-0.000485	-0.003795	-0.582031	0.551025	-0.594971	0.570173	-0.190074	-0.230286	-0.765339
23339		5.382241	1.312143	8.021493	0.002225	-0.002493	-0.003408	-0.583252	0.560791	-0.589844	0.570149	-0.189999	-0.230338	-0.765360
23340		5.382613	1.313399	8.021038	0.005584	-0.002368	-0.003630	-0.581299	0.554443	-0.589844	0.570163	-0.190029	-0.230343	-0.765340
23341		5.384614	1.292338	8.004671	0.005129	-0.002929	-0.002934	-0.584229	0.559082	-0.594971	0.570151	-0.190019	-0.230383	-0.765339
23342		5.379252	1.301569	8.004415	0.003646	-0.002079	-0.003945	-0.581543	0.559326	-0.591553	0.570168	-0.189993	-0.230395	-0.765329
23343		5.376637	1.324167	8.033652	0.003832	-0.000549	-0.003684	-0.584961	0.557861	-0.588379	0.570193	-0.189982	-0.230373	-0.765320
23344		5.372262	1.298202	8.023508	0.003903	-0.002432	-0.003519	-0.583740	0.561768	-0.591064	0.570166	-0.190030	-0.230393	-0.765323
23345		5.390648	1.300854	8.010814	0.004382	-0.002196	-0.002748	-0.581055	0.560303	-0.587891	0.570195	-0.190063	-0.230380	-0.765297
23346		5.390903	1.302381	8.010394	0.005298	-0.001693	-0.005523	-0.587158	0.552979	-0.582275	0.570192	-0.190090	-0.230368	-0.765295
23347		5.377996	1.305832	8.029997	0.002898	-0.001346	-0.003759	-0.582764	0.561523	-0.588379	0.570087	-0.190177	-0.230412	-0.765339
23348		5.395417	1.319792	8.025320	0.004355	-0.001873	-0.004214	-0.582520	0.562988	-0.588379	0.570093	-0.190224	-0.230390	-0.765329
23349		5.362819	1.309595	8.014061	0.005348	-0.002342	-0.002590	-0.579102	0.555664	-0.585205	0.570126	-0.190279	-0.230365	-0.765299
23350		5.378746	1.297414	8.034373	0.005676	-0.004577	-0.001997	-0.576904	0.555420	-0.595215	0.570121	-0.190328	-0.230387	-0.765284
23351		5.369954	1.304708	8.012431	0.006840	-0.003810	-0.002962	-0.572021	0.565918	-0.592773	0.570178	-0.190239	-0.230423	-0.765253
23352		5.391224	1.321194	8.029041	0.004761	0.000245	-0.003610	-0.576904	0.563965	-0.587158	0.570314	-0.190199	-0.230300	-0.765198
23353		5.386174	1.319036	8.021207	0.004077	-0.000286	-0.001875	-0.588867	0.563965	-0.583008	0.570391	-0.190241	-0.230208	-0.765158
23354		5.370274	1.308635	8.011576	0.003411	-0.002053	-0.002906	-0.587646	0.553223	-0.588623	0.570354	-0.190393	-0.230194	-0.765152
23355		5.385892	1.296485	8.032104	0.006767	-0.001928	-0.003128	-0.581055	0.553223	-0.590820	0.570297	-0.190386	-0.230291	-0.765167
23356		5.382826	1.308247	8.004427	0.002709	-0.002880	-0.004019	-0.578369	0.559326	-0.590332	0.570272	-0.190366	-0.230319	-0.765183
23357		5.377714	1.293476	8.002215	0.003827	-0.000553	-0.003685	-0.585449	0.555420	-0.593018	0.570308	-0.190348	-0.230280	-0.765171
23358		5.375926	1.317170	8.017961	0.002078	0.001268	-0.003740	-0.583008	0.563477	-0.589844	0.570292	-0.190303	-0.230285	-0.765193
23359		5.375577	1.305820	8.023570	0.004866	-0.002581	-0.003360	-0.583984	0.555176	-0.588623	0.570318	-0.190347	-0.230266	-0.765168
23360		5.370934	1.303651	8.015469	0.003152	-0.001702	-0.003332	-0.583008	0.550781	-0.599609	0.570286	-0.190362	-0.230287	-0.765183
23361		5.381031	1.311753	8.030514	0.005051	-0.001050	-0.003100	-0.581787	0.558350	-0.586670	0.570301	-0.190215	-0.230365	-0.765184
23362		5.370888	1.293547	8.020681	0.002663	-0.001321	-0.002720	-0.586426	0.552490	-0.589844	0.570295	-0.190264	-0.230337	-0.765185
23363		5.382327	1.302861	8.021897	0.006090	-0.003079	-0.002775	-0.582520	0.553955	-0.588623	0.570246	-0.190255	-0.230426	-0.765197
23364		5.382642	1.304470	8.021424	0.004801	-0.001319	-0.004910	-0.589355	0.559082	-0.583496	0.570208	-0.190238	-0.230459	-0.765220
23365		5.387845	1.309338	8.028708	0.003896	-0.002438	-0.003518	-0.580322	0.559570	-0.590820	0.570131	-0.190351	-0.230479	-0.765243
23366		5.370651	1.321883	8.034613	0.005609	-0.003317	-0.003545	-0.572510	0.557861	-0.588379	0.570158	-0.190352	-0.230483	-0.765221
23367		5.372659	1.300868	8.018310	0.005794	-0.001786	-0.003286	-0.587646	0.554443	-0.597168	0.570222	-0.190322	-0.230445	-0.765192
23368		5.373134	1.314997	8.012140	0.005021	-0.000731	-0.004567	-0.583252	0.554688	-0.596191	0.570205	-0.190237	-0.230514	-0.765205
23369		5.384148	1.311989	8.019187	0.003931	-0.003381	-0.003433	-0.583008	0.558838	-0.591553	0.570214	-0.190185	-0.230561	-0.765198
23370		5.368911	1.314420	8.003498	0.005571	-0.002377	-0.003629	-0.582520	0.554932	-0.589111	0.570224	-0.190179	-0.230578	-0.765186
23371		5.385766	1.303350	8.010323	0.003176	-0.002027	-0.001865	-0.578125	0.565674	-0.591309	0.570218	-0.190192	-0.230584	-0.765186
23372		5.367403	1.314504	8.029975	0.005606	-0.003319	-0.003545	-0.590576	0.562988	-0.591309	0.570291	-0.190219	-0.230538	-0.765139
23373		5.391764	1.309548	8.016853	0.004417	-0.003765	-0.004045	-0.575684	0.556396	-0.598145	0.570262	-0.190285	-0.230566	-0.765135
23374		5.381721	1.315402	8.008684	0.005412	-0.004231	-0.002421	-0.584229	0.561035	-0.586670	0.570346	-0.190199	-0.230585	-0.765088
23375		5.381968	1.304307	8.013892	0.004859	-0.002586	-0.003360	-0.579590	0.559082	-0.591309	0.570335	-0.190263	-0.230579	-0.765083
23376		5.380247	1.315946	8.035073	0.005754	-0.000847	-0.003371	-0.582275	0.557617	-0.593018	0.570373	-0.190233	-0.230569	-0.765064
23377		5.376281	1.302703	8.019152	0.004601	-0.002235	-0.003787	-0.582275	0.560791	-0.592529	0.570385	-0.190209	-0.230585	-0.765057
23378		5.381602	1.307575	8.026352	0.005338	-0.002348	-0.002590	-0.584229	0.560303	-0.596924	0.570423	-0.190207	-0.230584	-0.765029
23379		5.394019	1.305676	8.019535	0.003705	-0.003974	-0.003775	-0.581299	0.565186	-0.587158	0.570448	-0.190193	-0.230602	-0.765009
23380		5.378613	1.295477	8.009597	0.004893	-0.003529	-0.003275	-0.574463	0.561768	-0.594238	0.570475	-0.190272	-0.230567	-0.764979
23381		5.388891	1.303798	8.024470	0.005522	-0.000817	-0.002333	-0.582031	0.557861	-0.593506	0.570578	-0.190218	-0.230518	-0.764931
23382		5.388738	1.292628	8.029980	0.004111	-0.001853	-0.003175	-0.583496	0.559814	-0.590088	0.570598	-0.190193	-0.230524	-0.764921
23383		5.395378	1.311117	8.017734	0.004562	-0.001295	-0.003872	-0.586182	0.560303	-0.596680	0.570599	-0.190204	-0.230521	-0.764918
23384		5.379731	1.301090	8.007935	0.005379	-0.003914	-0.003887	-0.584229	0.564453	-0.589355	0.570611	-0.190187	-0.230565	-0.764900
23385		5.373921	1.334391	8.009578	0.005786	-0.001792	-0.003287	-0.580811	0.561035	-0.590576	0.570635	-0.190228	-0.230551	-0.764876
23386		5.381729	1.305114	7.993182	0.002729	-0.003210	-0.002549	-0.582520	0.564941	-0.595703	0.570661	-0.190266	-0.230522	-0.764855
23387		5.385947	1.308552	8.014109	0.004818	-0.001648	-0.003445	-0.580811	0.560791	-0.601807	0.570721	-0.190253	-0.230499	-0.764821
23388		5.380532	1.317848	8.013825	0.004632	-0.003180	-0.003702	-0.585693	0.557129	-0.592041	0.570786	-0.190177	-0.230513	-0.764787
23389		5.380630	1.306773	8.019165	0.004596	-0.002239	-0.003787	-0.591064	0.557617	-0.596436	0.570768	-0.190173	-0.230547	-0.764792
23390		5.390906	1.315035	8.034042	0.004367	-0.002207	-0.002747	-0.583740	0.565918	-0.592529	0.570753	-0.190154	-0.230603	-0.764791
23391		5.386240	1.312998	8.025945	0.005783	-0.001793	-0.003288	-0.581299	0.560303	-0.591797	0.570799	-0.190173	-0.230585	-0.764757
23392		5.382555	1.299711	8.009870	0.005147	-0.003884	-0.002847	-0.581055	0.556641	-0.595459	0.570824	-0.190188	-0.230594	-0.764732
23393		5.392183	1.319398	8.032469	0.004594	-0.002240	-0.003787	-0.584473	0.554932	-0.588867	0.570841	-0.190140	-0.230615	-0.764725
23394		5.376767	1.321674	8.016917	0.003627	-0.002096	-0.003944	-0.583496	0.549072	-0.593018	0.570802	-0.190153	-0.230637	-0.764744
23395		5.377142	1.322925	8.016460	0.004143	-0.002799	-0.003089	-0.580322	0.562256	-0.592285	0.570764	-0.190107	-0.230702	-0.764764
23396		5.390132	1.297282	8.007591	0.005632	-0.004269	-0.003459	-0.583984	0.554688	-0.583984	0.570800	-0.190124	-0.230706	-0.764732
23397		5.371881	1.308631	8.027150	0.004364	-0.002209	-0.002747	-0.577881	0.561279	-0.593994	0.570755	-0.190175	-0.230722	-0.764748
23398		5.388908	1.310127	8.028235	0.003811	-0.000565	-0.003688	-0.585449	0.552734	-0.591797	0.570810	-0.190143	-0.230681	-0.764727
23399		5.367350	1.307756	8.018777	0.004148	-0.003424	-0.004470	-0.577881	0.556396	-0.596191	0.570761	-0.190132	-0.230738	-0.764750
23400		5.401171	1.297001	8.026971	0.003877	-0.001825	-0.002135	-0.592773	0.555908	-0.588623	0.570815	-0.190076	-0.230733	-0.764725
23401		5.390639	1.302642	8.019150	0.004074	-0.001541	-0.004642	-0.580322	0.565430	-0.595947	0.570732	-0.190109	-0.230781	-0.764764
23402		5.380258	1.308456	8.011198	0.004885	-0.003536	-0.003274	-0.586670	0.562256	-0.590576	0.570799	-0.190112	-0.230761	-0.764719
23403		5.385515	1.300953	8.024085	0.005112	-0.003570	-0.004313	-0.581543	0.555664	-0.585205	0.570787	-0.190155	-0.230778	-0.764712
23404		5.385272	1.313803	8.031291	0.005365	-0.003296	-0.002505	-0.587646	0.564697	-0.581055	0.570767	-0.190195	-0.230796	-0.764712
23405		5.392549	1.308344	8.016938	0.002878	-0.001365	-0.003759	-0.585205	0.559082	-0.581543	0.570726	-0.190321	-0.230748	-0.764726
23406		5.374759	1.308193	8.028929	0.004810	-0.001653	-0.003446	-0.579102	0.560303	-0.583496	0.570682	-0.190397	-0.230741	-0.764742
23407		5.369363	1.317569	8.028602	0.005110	-0.003571	-0.004313	-0.583252	0.555664	-0.595459	0.570668	-0.190461	-0.230725	-0.764740
23408		5.392886	1.324150	8.023261	0.006556	-0.003475	-0.003388	-0.584717	0.558350	-0.593018	0.570680	-0.190412	-0.230784	-0.764727
23409		5.383310	1.306189	8.013160	0.004433	-0.004096	-0.002575	-0.586182	0.565918	-0.583008	0.570685	-0.190422	-0.230810	-0.764712
23410		5.384206	1.320276	8.006605	0.006523	-0.003159	-0.004855	-0.580078	0.549805	-0.581543	0.570656	-0.190517	-0.230803	-0.764712
23411		5.372275	1.312445	8.018352	0.002132	-0.000631	-0.003575	-0.587891	0.556152	-0.589600	0.570597	-0.190542	-0.230790	-0.764754
23412		5.373610	1.314658	8.004308	0.004618	-0.002563	-0.002320	-0.586182	0.558594	-0.586426	0.570572	-0.190559	-0.230823	-0.764758
23413		5.389752	1.315205	8.018915	0.005551	-0.002391	-0.003631	-0.578857	0.561035	-0.592041	0.570540	-0.190595	-0.230841	-0.764768
23414		5.384454	1.324399	8.018541	0.002727	-0.003844	-0.003927	-0.574463	0.562988	-0.590332	0.570565	-0.190613	-0.230814	-0.764753
23415		5.377812	1.319791	8.037775	0.004136	-0.002804	-0.003089	-0.588623	0.558105	-0.584229	0.570627	-0.190624	-0.230763	-0.764719
23416		5.392045	1.307423	8.009519	0.002685	-0.002276	-0.002633	-0.586426	0.556396	-0.592529	0.570575	-0.190701	-0.230758	-0.764740
23417		5.368366	1.314946	8.021802	0.003766	0.000372	-0.003776	-0.587402	0.561768	-0.596436	0.570564	-0.190664	-0.230764	-0.764756
23418		5.379046	1.311675	8.029149	0.002130	-0.000633	-0.003575	-0.588379	0.550781	-0.591797	0.570578	-0.190649	-0.230743	-0.764755
23419		5.379956	1.301318	8.021111	0.002874	-0.001369	-0.003759	-0.586182	0.555908	-0.581299	0.570527	-0.190621	-0.230786	-0.764788
23420		5.375256	1.299245	8.013054	0.006514	-0.002536	-0.003474	-0.584717	0.552734	-0.592285	0.570467	-0.190673	-0.230815	-0.764811
23421		5.374804	1.312285	8.020346	0.005548	-0.002392	-0.003631	-0.586426	0.567383	-0.593018	0.570450	-0.190632	-0.230867	-0.764818
23422		5.393072	1.315295	8.007539	0.005770	-0.001801	-0.003290	-0.585938	0.551514	-0.588379	0.570481	-0.190651	-0.230847	-0.764796
23423		5.379964	1.306425	8.033071	0.004286	-0.000957	-0.004302	-0.587646	0.560791	-0.590576	0.570430	-0.190630	-0.230880	-0.764829
23424		5.377266	1.306693	7.997698	0.005251	-0.001101	-0.004145	-0.583984	0.563232	-0.587402	0.570416	-0.190633	-0.230884	-0.764838
23425		5.376497	1.319394	8.005248	0.003093	-0.000779	-0.003418	-0.582031	0.553955	-0.590088	0.570415	-0.190676	-0.230833	-0.764843
23426		5.375357	1.319534	8.018786	0.003766	-0.000258	-0.005157	-0.588867	0.552490	-0.595215	0.570393	-0.190638	-0.230835	-0.764868
23427		5.387023	1.305274	8.018167	0.004802	-0.001658	-0.003446	-0.581299	0.556152	-0.590820	0.570371	-0.190585	-0.230892	-0.764881
23428		5.375435	1.309651	8.024039	0.002682	-0.002278	-0.002632	-0.582031	0.557861	-0.592773	0.570379	-0.190586	-0.230879	-0.764879
23429		5.376898	1.311836	8.009901	0.004354	-0.002215	-0.002747	-0.572754	0.553955	-0.593994	0.570400	-0.190569	-0.230880	-0.764867
23430		5.370722	1.296070	8.021573	0.004024	-0.000609	-0.004730	-0.584961	0.567871	-0.586914	0.570446	-0.190487	-0.230865	-0.764858
23431		5.364857	1.305352	8.021550	0.004985	-0.000125	-0.003193	-0.587158	0.554932	-0.592285	0.570462	-0.190537	-0.230806	-0.764851
23432		5.387499	1.299234	8.022538	0.004763	-0.000717	-0.003533	-0.583740	0.559814	-0.583496	0.570442	-0.190504	-0.230830	-0.764867
23433		5.376090	1.316270	8.022517	0.003391	-0.002701	-0.004283	-0.578857	0.555908	-0.587402	0.570400	-0.190571	-0.230805	-0.764889
23434		5.391971	1.304414	8.043042	0.005543	-0.002396	-0.003630	-0.579590	0.559082	-0.590088	0.570400	-0.190567	-0.230809	-0.764889
23435		5.376421	1.306741	8.027560	0.004281	-0.000961	-0.004302	-0.583008	0.559814	-0.589355	0.570413	-0.190553	-0.230785	-0.764890
23436		5.377766	1.321677	8.007700	0.003056	-0.000468	-0.004886	-0.587402	0.559570	-0.588623	0.570401	-0.190557	-0.230753	-0.764908
23437		5.374636	1.319696	8.048539	0.005317	-0.002360	-0.002590	-0.583984	0.559082	-0.591064	0.570384	-0.190583	-0.230762	-0.764911
23438		5.372211	1.307509	8.018719	0.005620	-0.004910	-0.004835	-0.583252	0.557861	-0.588623	0.570366	-0.190598	-0.230795	-0.764911
23439		5.378884	1.301437	8.017690	0.006360	-0.005018	-0.003639	-0.583496	0.558594	-0.588623	0.570350	-0.190622	-0.230831	-0.764906
23440		5.384990	1.331591	8.012760	0.005059	-0.002641	-0.004398	-0.586182	0.559814	-0.587891	0.570332	-0.190634	-0.230836	-0.764915
23441		5.372584	1.311387	8.030648	0.004424	0.001514	-0.004138	-0.582031	0.566162	-0.593262	0.570315	-0.190627	-0.230805	-0.764939
23442		5.385242	1.298154	8.016422	0.003610	-0.002112	-0.003943	-0.583740	0.562256	-0.590332	0.570348	-0.190643	-0.230762	-0.764923
23443		5.374309	1.327546	8.010306	0.004647	-0.003510	-0.002231	-0.587402	0.553223	-0.585938	0.570363	-0.190676	-0.230752	-0.764906
23444		5.375281	1.292477	8.013769	0.003425	-0.003648	-0.004194	-0.576660	0.563721	-0.594238	0.570295	-0.190712	-0.230779	-0.764940
23445		5.379759	1.308541	8.028761	0.003828	-0.000890	-0.002223	-0.581299	0.558594	-0.590332	0.570371	-0.190691	-0.230724	-0.764905
23446		5.374638	1.293698	8.026822	0.004052	-0.000927	-0.003263	-0.586670	0.555420	-0.592773	0.570384	-0.190679	-0.230704	-0.764905
23447		5.364316	1.324192	8.007285	0.003532	-0.000229	-0.004119	-0.579590	0.556885	-0.592773	0.570364	-0.190644	-0.230708	-0.764927
23448		5.392837	1.310008	8.008117	0.003346	-0.001134	-0.002991	-0.583984	0.557129	-0.577393	0.570390	-0.190615	-0.230690	-0.764920
23449		5.381999	1.302919	8.006287	0.002643	-0.001971	-0.004098	-0.580322	0.556885	-0.594971	0.570317	-0.190704	-0.230651	-0.764965
23450		5.381160	1.315637	8.013844	0.005905	0.000671	-0.003127	-0.583496	0.556885	-0.590088	0.570359	-0.190625	-0.230651	-0.764953
23451		5.380971	1.304250	8.019579	0.000267	-0.002241	-0.003710	-0.574219	0.557129	-0.583496	0.570338	-0.190651	-0.230617	-0.764972
23452		5.374601	1.324624	8.027125	0.006723	-0.001950	-0.003134	-0.583496	0.550293	-0.587646	0.570356	-0.190654	-0.230604	-0.764962
23453		5.371869	1.312208	7.997560	0.003383	-0.002077	-0.002902	-0.582031	0.554932	-0.592285	0.570321	-0.190646	-0.230620	-0.764985
23454		5.376275	1.315908	8.018356	0.004647	-0.004143	-0.003609	-0.583008	0.556152	-0.587891	0.570317	-0.190635	-0.230651	-0.764982
23455		5.376772	1.304770	8.023600	0.004423	-0.004105	-0.002569	-0.584961	0.564209	-0.587891	0.570302	-0.190662	-0.230664	-0.764982
23456		5.377377	1.306186	8.022964	0.005313	-0.002995	-0.003970	-0.581055	0.552979	-0.591797	0.570292	-0.190704	-0.230651	-0.764983
23457		5.360934	1.307264	8.021103	0.004346	-0.002221	-0.002746	-0.582764	0.555176	-0.585205	0.570299	-0.190671	-0.230667	-0.764981
23458		5.373118	1.305297	8.014433	0.004567	-0.001628	-0.002407	-0.577393	0.570068	-0.591309	0.570280	-0.190686	-0.230661	-0.764993
23459		5.378340	1.310085	8.021682	0.004567	-0.001628	-0.002407	-0.586182	0.559326	-0.593506	0.570356	-0.190711	-0.230593	-0.764951
23460		5.379798	1.312312	8.007512	0.003418	-0.003021	-0.002813	-0.582764	0.557617	-0.593750	0.570356	-0.190718	-0.230596	-0.764948
23461		5.385126	1.317200	8.014672	0.005013	-0.001705	-0.004487	-0.579590	0.556396	-0.600342	0.570361	-0.190680	-0.230608	-0.764950
23462		5.386215	1.307241	8.006511	0.004084	-0.001873	-0.003175	-0.581543	0.560303	-0.587646	0.570416	-0.190605	-0.230622	-0.764924
23463		5.373450	1.298158	8.031986	0.004382	-0.003165	-0.002657	-0.581543	0.555908	-0.594482	0.570420	-0.190638	-0.230607	-0.764917
23464		5.374185	1.311858	8.025478	0.003640	-0.003061	-0.003853	-0.582520	0.563721	-0.589844	0.570427	-0.190613	-0.230621	-0.764914
23465		5.374594	1.313194	8.024986	0.004566	-0.002262	-0.003786	-0.574951	0.561768	-0.594482	0.570438	-0.190634	-0.230598	-0.764907
23466		5.369776	1.310892	8.017062	0.002339	-0.000685	-0.004615	-0.579834	0.558838	-0.585693	0.570491	-0.190605	-0.230547	-0.764891
23467		5.375473	1.304501	8.016767	0.006120	0.000629	-0.004170	-0.583008	0.571045	-0.591309	0.570492	-0.190587	-0.230525	-0.764901
23468		5.373456	1.303892	8.043892	0.003158	-0.003307	-0.004620	-0.582520	0.567871	-0.590820	0.570514	-0.190646	-0.230475	-0.764885
23469		5.375861	1.295165	8.021826	0.007458	-0.002691	-0.003319	-0.586182	0.554199	-0.594971	0.570551	-0.190661	-0.230470	-0.764855
23470		5.388486	1.306179	8.008944	0.005827	-0.003697	-0.003113	-0.587158	0.564209	-0.598389	0.570540	-0.190628	-0.230523	-0.764856
23471		5.378065	1.312030	8.000961	0.005971	-0.001219	-0.002952	-0.588379	0.569336	-0.591553	0.570577	-0.190592	-0.230531	-0.764835
23472		5.372326	1.308820	8.006645	0.004119	-0.002819	-0.003085	-0.583740	0.558105	-0.592529	0.570588	-0.190645	-0.230502	-0.764822
23473		5.372433	1.297964	8.012151	0.007157	-0.001401	-0.003837	-0.586426	0.559814	-0.590576	0.570594	-0.190604	-0.230529	-0.764820
23474		5.376950	1.314617	8.026965	0.003898	-0.004047	-0.004802	-0.576660	0.570312	-0.589111	0.570560	-0.190631	-0.230540	-0.764835
23475		5.384714	1.309176	8.012295	0.003752	-0.005893	-0.003583	-0.581787	0.557129	-0.591553	0.570603	-0.190711	-0.230499	-0.764795
23476		5.372582	1.325012	8.025704	0.004301	-0.001283	-0.002836	-0.581787	0.562500	-0.584717	0.570614	-0.190690	-0.230493	-0.764794
23477		5.380518	1.308262	8.003730	0.005487	-0.001466	-0.003720	-0.583008	0.558105	-0.593994	0.570610	-0.190718	-0.230469	-0.764797
23478		5.379484	1.296188	8.023060	0.004079	-0.001878	-0.003175	-0.578857	0.566162	-0.585205	0.570622	-0.190696	-0.230470	-0.764794
23479		5.379341	1.333550	8.018446	0.002189	-0.002536	-0.003396	-0.585205	0.563232	-0.587402	0.570635	-0.190764	-0.230404	-0.764786
23480		5.374262	1.306329	8.022413	0.005485	-0.001466	-0.003720	-0.585693	0.555420	-0.587646	0.570629	-0.190784	-0.230390	-0.764791
23481		5.368515	1.303131	8.028116	0.003374	-0.002719	-0.004280	-0.578613	0.556885	-0.594482	0.570583	-0.190800	-0.230396	-0.764819
23482		5.369971	1.305506	8.013902	0.005302	-0.002369	-0.002591	-0.570312	0.563477	-0.596191	0.570619	-0.190760	-0.230407	-0.764799
23483		5.391245	1.322289	8.030136	0.004781	-0.001673	-0.003448	-0.577881	0.558594	-0.584229	0.570707	-0.190717	-0.230375	-0.764753
23484		5.375224	1.299573	8.026704	0.005223	-0.001119	-0.004149	-0.581299	0.556885	-0.587646	0.570703	-0.190723	-0.230355	-0.764761
23485		5.382548	1.306659	8.006451	0.003855	-0.002474	-0.003513	-0.582031	0.563965	-0.592529	0.570689	-0.190734	-0.230348	-0.764771
23486		5.370290	1.322589	8.019917	0.004857	-0.003559	-0.003267	-0.583252	0.557861	-0.587891	0.570712	-0.190749	-0.230344	-0.764751
23487		5.387446	1.311959	8.026677	0.004075	-0.002515	-0.004553	-0.588623	0.557617	-0.589844	0.570684	-0.190761	-0.230342	-0.764770
23488		5.388715	1.301981	8.018440	0.004335	-0.002864	-0.004124	-0.584473	0.555908	-0.594482	0.570643	-0.190772	-0.230359	-0.764792
23489		5.365290	1.322326	8.024644	0.005664	0.000068	-0.003473	-0.579834	0.554199	-0.590332	0.570649	-0.190710	-0.230373	-0.764799
23490		5.383012	1.300294	8.023880	0.004113	-0.002824	-0.003084	-0.586670	0.561523	-0.593018	0.570647	-0.190698	-0.230381	-0.764801
23491		5.371727	1.304995	8.029513	0.005818	-0.004339	-0.004490	-0.584473	0.550781	-0.586914	0.570632	-0.190706	-0.230411	-0.764801
23492		5.374382	1.308641	8.001416	0.005298	-0.002372	-0.002591	-0.581055	0.562744	-0.595215	0.570597	-0.190695	-0.230438	-0.764822
23493		5.384462	1.317074	8.016316	0.003032	0.000146	-0.003511	-0.580322	0.562012	-0.589600	0.570635	-0.190668	-0.230398	-0.764813
23494		5.361462	1.313126	8.021041	0.003775	0.000045	-0.002316	-0.585449	0.549805	-0.588135	0.570666	-0.190665	-0.230354	-0.764803
23495		5.378448	1.302151	8.027987	0.003930	-0.003726	-0.001953	-0.582275	0.552490	-0.586914	0.570626	-0.190671	-0.230382	-0.764823
23496		5.392165	1.313735	8.001340	0.005556	-0.003357	-0.003540	-0.580811	0.565918	-0.585693	0.570594	-0.190668	-0.230411	-0.764839
23497		5.380681	1.305909	8.013014	0.003889	-0.003420	-0.003422	-0.584229	0.557617	-0.591064	0.570600	-0.190730	-0.230374	-0.764830
23498		5.385821	1.298319	8.026190	0.004033	-0.000940	-0.003265	-0.584961	0.557617	-0.593750	0.570596	-0.190714	-0.230365	-0.764840
23499		5.390313	1.327192	8.035111	0.005516	-0.002415	-0.003631	-0.584717	0.552979	-0.584961	0.570593	-0.190688	-0.230388	-0.764842
23500		5.381709	1.310249	8.011614	0.006518	-0.003500	-0.003385	-0.581543	0.551758	-0.589355	0.570548	-0.190695	-0.230424	-0.764863
23501		5.377398	1.320841	7.997384	0.005996	-0.002805	-0.004242	-0.578857	0.560059	-0.597168	0.570524	-0.190665	-0.230460	-0.764878
23502		5.381662	1.312506	8.024147	0.004370	-0.003175	-0.002655	-0.582764	0.552734	-0.589111	0.570573	-0.190641	-0.230465	-0.764845
23503		5.384101	1.315943	7.996204	0.005475	-0.001474	-0.003722	-0.587158	0.561279	-0.590332	0.570552	-0.190611	-0.230483	-0.764863
23504		5.377275	1.299389	8.021598	0.004850	-0.003565	-0.003266	-0.580078	0.555664	-0.590576	0.570536	-0.190636	-0.230490	-0.764866
23505		5.370779	1.319869	8.029076	0.002545	-0.000105	-0.004278	-0.586670	0.560547	-0.591797	0.570533	-0.190611	-0.230461	-0.764883
23506		5.388688	1.310288	8.022319	0.007219	-0.002659	-0.002281	-0.579346	0.554199	-0.591064	0.570541	-0.190603	-0.230486	-0.764872
23507		5.367523	1.320354	8.006788	0.005069	-0.003608	-0.004306	-0.581299	0.559570	-0.589844	0.570534	-0.190586	-0.230511	-0.764874
23508		5.390627	1.301961	8.013392	0.003625	-0.003077	-0.003849	-0.577881	0.560791	-0.587891	0.570532	-0.190602	-0.230500	-0.764875
23509		5.379108	1.318911	8.013291	0.004952	-0.000143	-0.003203	-0.579346	0.558350	-0.595459	0.570560	-0.190592	-0.230468	-0.764867
23510		5.383962	1.311266	8.026693	0.001880	-0.001255	-0.003913	-0.585205	0.558594	-0.586426	0.570583	-0.190568	-0.230441	-0.764863
23511		5.374049	1.305105	8.011323	0.004249	-0.000348	-0.002929	-0.582764	0.556396	-0.590820	0.570566	-0.190576	-0.230416	-0.764882
23512		5.374135	1.306528	8.011033	0.004988	-0.001724	-0.004488	-0.571777	0.553223	-0.595215	0.570551	-0.190554	-0.230424	-0.764895
23513		5.385319	1.303941	8.018000	0.005288	-0.003015	-0.003968	-0.585205	0.570801	-0.588379	0.570597	-0.190497	-0.230450	-0.764868
23514		5.381002	1.326486	7.997889	0.004330	-0.001596	-0.001368	-0.583252	0.556641	-0.586670	0.570634	-0.190551	-0.230398	-0.764843
23515		5.379729	1.301980	8.023444	0.004908	0.000160	-0.004672	-0.581787	0.560303	-0.596924	0.570606	-0.190534	-0.230383	-0.764872
23516		5.368975	1.307409	8.015723	0.002662	-0.002299	-0.002626	-0.585449	0.559570	-0.596924	0.570639	-0.190522	-0.230369	-0.764855
23517		5.380150	1.304294	8.022786	0.004065	-0.001888	-0.003174	-0.573730	0.554932	-0.594727	0.570652	-0.190497	-0.230373	-0.764850
23518		5.376570	1.315322	7.995076	0.003804	-0.001541	-0.003603	-0.577148	0.565674	-0.589600	0.570693	-0.190450	-0.230369	-0.764832
23519		5.380508	1.306878	8.022125	0.004244	-0.000989	-0.004306	-0.586182	0.555176	-0.595459	0.570729	-0.190457	-0.230330	-0.764816
23520		5.375600	1.317189	8.008304	0.004906	0.000159	-0.004672	-0.574219	0.561523	-0.597900	0.570713	-0.190397	-0.230341	-0.764839
23521		5.375649	1.318697	8.008023	0.005510	-0.001782	-0.002253	-0.576660	0.559326	-0.579834	0.570797	-0.190352	-0.230341	-0.764787
23522		5.379709	1.310432	8.034969	0.004984	-0.001728	-0.004488	-0.578125	0.551758	-0.590332	0.570780	-0.190387	-0.230312	-0.764801
23523		5.374024	1.307330	8.040671	0.004322	-0.002876	-0.004122	-0.580811	0.558350	-0.587891	0.570766	-0.190365	-0.230328	-0.764811
23524		5.370325	1.318432	8.013013	0.003723	0.000343	-0.003788	-0.580566	0.558105	-0.588135	0.570764	-0.190355	-0.230294	-0.764826
23525		5.374166	1.310009	8.040140	0.004764	-0.001685	-0.003448	-0.586670	0.564697	-0.590576	0.570762	-0.190355	-0.230284	-0.764830
23526		5.365730	1.317367	8.004759	0.003401	-0.003038	-0.002807	-0.583740	0.547852	-0.596680	0.570760	-0.190396	-0.230263	-0.764827
23527		5.383741	1.295210	8.003948	0.004281	-0.001935	-0.004214	-0.580566	0.554932	-0.590576	0.570733	-0.190331	-0.230301	-0.764853
23528		5.370076	1.310018	8.031379	0.002097	-0.000665	-0.003576	-0.581299	0.549561	-0.589111	0.570726	-0.190319	-0.230272	-0.764870
23529		5.376795	1.316685	8.011502	0.004607	0.002726	-0.002441	-0.588623	0.556396	-0.588623	0.570720	-0.190250	-0.230253	-0.764897
23530		5.369594	1.312437	8.031306	0.003798	-0.002185	-0.004979	-0.583740	0.555908	-0.584717	0.570658	-0.190260	-0.230253	-0.764941
23531		5.364070	1.309415	8.036897	0.006767	-0.003855	-0.002953	-0.573730	0.563232	-0.593506	0.570626	-0.190282	-0.230277	-0.764952
23532		5.387707	1.315988	8.031247	0.003698	-0.004970	-0.003662	-0.581543	0.550781	-0.595947	0.570677	-0.190303	-0.230273	-0.764910
23533		5.384207	1.302222	8.015392	0.005506	-0.001784	-0.002254	-0.575439	0.558350	-0.595215	0.570689	-0.190245	-0.230305	-0.764905
23534		5.366707	1.326937	8.015419	0.003759	-0.000603	-0.003696	-0.586426	0.557861	-0.583740	0.570737	-0.190203	-0.230289	-0.764885
23535		5.374406	1.297589	7.999719	0.004721	-0.000744	-0.003541	-0.579102	0.557861	-0.590820	0.570692	-0.190222	-0.230267	-0.764921
23536		5.371614	1.320757	8.028591	0.003540	-0.000559	-0.002656	-0.576904	0.554932	-0.593018	0.570714	-0.190208	-0.230240	-0.764916
23537		5.361803	1.302285	8.019144	0.005062	-0.002977	-0.002926	-0.582275	0.554443	-0.587402	0.570739	-0.190184	-0.230258	-0.764898
23538		5.389271	1.323612	8.028945	0.002698	-0.003246	-0.002532	-0.582764	0.548828	-0.597412	0.570714	-0.190211	-0.230245	-0.764913
23539		5.367452	1.308148	8.025902	0.003939	0.000935	-0.003453	-0.576172	0.553711	-0.579834	0.570712	-0.190125	-0.230254	-0.764933
23540		5.378511	1.317661	8.027031	0.004099	-0.002837	-0.003081	-0.575928	0.562988	-0.595459	0.570686	-0.190162	-0.230235	-0.764949
23541		5.375100	1.316371	8.005124	0.005801	-0.003716	-0.003107	-0.578613	0.557617	-0.594482	0.570748	-0.190152	-0.230249	-0.764902
23542		5.385649	1.312860	8.025591	0.005579	-0.004313	-0.003444	-0.583496	0.560791	-0.595215	0.570770	-0.190140	-0.230280	-0.764879
23543		5.375438	1.318578	8.017438	0.005539	-0.003371	-0.003537	-0.586670	0.561768	-0.592041	0.570783	-0.190131	-0.230300	-0.764865
23544		5.376773	1.308448	8.009265	0.003840	-0.001850	-0.002134	-0.580566	0.558105	-0.599609	0.570786	-0.190146	-0.230282	-0.764865
23545		5.381193	1.312660	8.030020	0.006234	-0.003809	-0.005187	-0.577881	0.562744	-0.592773	0.570805	-0.190101	-0.230330	-0.764847
23546		5.371932	1.319415	8.008148	0.004837	-0.003577	-0.003262	-0.582520	0.552490	-0.596436	0.570842	-0.190111	-0.230332	-0.764817
23547		5.382335	1.315662	8.028763	0.004096	-0.002839	-0.003080	-0.578857	0.551758	-0.594727	0.570840	-0.190078	-0.230355	-0.764819
23548		5.376859	1.324688	8.028388	0.004317	-0.002242	-0.002745	-0.587402	0.561523	-0.592041	0.570853	-0.190041	-0.230371	-0.764814
23549		5.367106	1.306368	8.018917	0.005717	-0.001833	-0.003294	-0.583984	0.552002	-0.586670	0.570845	-0.190039	-0.230374	-0.764820
23550		5.373352	1.312661	8.012282	0.005450	-0.002130	-0.005100	-0.578613	0.559570	-0.586426	0.570786	-0.190028	-0.230390	-0.764861
23551		5.383514	1.321516	8.027011	0.003048	-0.001456	-0.004798	-0.584473	0.559082	-0.597656	0.570776	-0.190046	-0.230356	-0.764875
23552		5.378774	1.319008	8.019103	0.002871	-0.002353	-0.003664	-0.579590	0.558838	-0.590820	0.570783	-0.190033	-0.230353	-0.764874
23553		5.367862	1.299834	8.023479	0.007558	-0.000230	-0.003173	-0.587402	0.559082	-0.588867	0.570810	-0.189991	-0.230362	-0.764861
23554		5.378945	1.322204	8.018462	0.003263	-0.001503	-0.005838	-0.580322	0.556641	-0.590576	0.570755	-0.190003	-0.230344	-0.764905
23555		5.377123	1.321669	8.045606	0.004537	-0.001647	-0.002409	-0.578857	0.561035	-0.592529	0.570768	-0.189994	-0.230337	-0.764900
23556		5.368470	1.304007	8.022395	0.002910	-0.003297	-0.003570	-0.580322	0.562012	-0.594727	0.570787	-0.190013	-0.230322	-0.764885
23557		5.382918	1.303852	7.988046	0.003388	-0.003690	-0.004180	-0.584717	0.560059	-0.587158	0.570805	-0.190024	-0.230320	-0.764870
23558		5.381282	1.315713	8.009035	0.004449	-0.000405	-0.003972	-0.583740	0.558350	-0.592041	0.570784	-0.190029	-0.230294	-0.764892
23559		5.380398	1.316114	8.022484	0.004052	-0.001899	-0.003174	-0.573730	0.564209	-0.593750	0.570781	-0.190026	-0.230286	-0.764897
23560		5.369077	1.320788	8.028157	0.005567	-0.004963	-0.004817	-0.579102	0.559082	-0.582031	0.570827	-0.190036	-0.230306	-0.764854
23561		5.380546	1.318280	8.034953	0.004529	-0.002292	-0.003784	-0.578125	0.568115	-0.588623	0.570809	-0.190070	-0.230283	-0.764866
23562		5.377024	1.304631	8.019150	0.005572	-0.004320	-0.003442	-0.583740	0.562744	-0.592773	0.570845	-0.190115	-0.230277	-0.764830
23563		5.371889	1.313900	8.018491	0.005355	-0.004273	-0.002402	-0.586426	0.558838	-0.588623	0.570862	-0.190136	-0.230289	-0.764808
23564		5.372391	1.315305	8.017924	0.004749	-0.001696	-0.003449	-0.582275	0.553223	-0.584473	0.570837	-0.190143	-0.230282	-0.764827
23565		5.388290	1.303841	8.038736	0.004230	-0.000360	-0.002933	-0.582275	0.562256	-0.589844	0.570808	-0.190139	-0.230260	-0.764856
23566		5.372438	1.305580	8.023512	0.004224	-0.001005	-0.004308	-0.583740	0.555908	-0.592529	0.570809	-0.190141	-0.230237	-0.764862
23567		5.372670	1.307173	8.023098	0.006449	-0.002576	-0.003476	-0.583252	0.550537	-0.594482	0.570801	-0.190117	-0.230266	-0.764865
23568		5.378145	1.312362	8.030067	0.003868	-0.003442	-0.003414	-0.589355	0.555908	-0.594971	0.570779	-0.190097	-0.230291	-0.764879
23569		5.379398	1.314608	8.015927	0.004444	-0.000408	-0.003974	-0.585205	0.555176	-0.596924	0.570751	-0.190061	-0.230293	-0.764908
23570		5.385335	1.308262	8.015579	0.003255	-0.001511	-0.005838	-0.586182	0.563721	-0.590088	0.570723	-0.190025	-0.230300	-0.764936
23571		5.367746	1.320451	8.021634	0.004316	-0.001602	-0.001369	-0.583008	0.549072	-0.590820	0.570738	-0.190049	-0.230273	-0.764928
23572		5.367003	1.320511	8.035057	0.002125	-0.001621	-0.003482	-0.579102	0.558350	-0.590332	0.570701	-0.190034	-0.230264	-0.764961
23573		5.373201	1.313977	8.034567	0.005486	-0.002436	-0.003630	-0.581543	0.558105	-0.595215	0.570712	-0.190027	-0.230270	-0.764953
23574		5.380513	1.308522	8.020219	0.004088	-0.002846	-0.003079	-0.579102	0.559326	-0.595703	0.570728	-0.190017	-0.230276	-0.764942
23575		5.385846	1.313547	8.027307	0.004745	-0.001698	-0.003449	-0.576904	0.551025	-0.591553	0.570761	-0.189990	-0.230279	-0.764923
23576		5.382076	1.312250	8.005622	0.006190	-0.001587	-0.002531	-0.579834	0.562012	-0.589111	0.570779	-0.189946	-0.230301	-0.764914
23577		5.376513	1.321253	8.005276	0.002911	-0.002658	-0.002193	-0.585938	0.551025	-0.593018	0.570799	-0.189980	-0.230270	-0.764900
23578		5.369993	1.316884	8.024758	0.005269	-0.002390	-0.002590	-0.586426	0.559570	-0.592773	0.570775	-0.189954	-0.230295	-0.764917
23579		5.370316	1.318202	8.024325	0.004529	-0.001651	-0.002409	-0.585449	0.563965	-0.590332	0.570775	-0.189951	-0.230288	-0.764919
23580		5.382511	1.316270	8.017610	0.003823	-0.002503	-0.003508	-0.577393	0.563721	-0.593018	0.570769	-0.189979	-0.230267	-0.764923
23581		5.387780	1.309016	8.030812	0.005220	-0.002094	-0.004060	-0.583740	0.555176	-0.593262	0.570807	-0.189972	-0.230263	-0.764898
23582		5.378118	1.315480	8.009199	0.004742	-0.001701	-0.003450	-0.582764	0.560791	-0.588135	0.570798	-0.189949	-0.230271	-0.764908
23583		5.365655	1.319072	8.028767	0.004348	-0.003194	-0.002649	-0.584473	0.551025	-0.596680	0.570796	-0.189979	-0.230260	-0.764905
23584		5.378020	1.304672	8.028049	0.003386	-0.003053	-0.002802	-0.584229	0.561035	-0.589111	0.570783	-0.189956	-0.230280	-0.764915
23585		5.361781	1.305356	8.026202	0.004602	-0.004187	-0.003593	-0.576660	0.555664	-0.593994	0.570767	-0.189990	-0.230282	-0.764918
23586		5.373253	1.314907	8.026964	0.003345	-0.002111	-0.002898	-0.589844	0.556152	-0.580078	0.570795	-0.189974	-0.230277	-0.764903
23587		5.367687	1.324001	8.026597	0.005480	-0.002441	-0.003630	-0.581299	0.559570	-0.589111	0.570717	-0.190011	-0.230268	-0.764954
23588		5.375174	1.306240	8.018225	0.004642	-0.005131	-0.003498	-0.585449	0.553711	-0.589844	0.570709	-0.190046	-0.230280	-0.764948
23589		5.368849	1.302246	8.037546	0.005216	-0.002097	-0.004060	-0.581787	0.555176	-0.586182	0.570673	-0.190032	-0.230293	-0.764974
23590		5.371016	1.305430	8.009667	0.004263	-0.001309	-0.002840	-0.592285	0.551270	-0.593750	0.570658	-0.190035	-0.230275	-0.764990
23591		5.370531	1.318237	8.016762	0.004600	-0.004189	-0.003593	-0.587646	0.559570	-0.593994	0.570596	-0.190031	-0.230311	-0.765027
23592		5.371384	1.307355	8.022063	0.005380	-0.005872	-0.003678	-0.580811	0.567383	-0.585449	0.570573	-0.190055	-0.230347	-0.765026
23593		5.373212	1.309718	8.007494	0.005567	-0.003682	-0.002065	-0.582031	0.560303	-0.591064	0.570596	-0.190108	-0.230328	-0.765002
23594		5.384636	1.319619	8.008211	0.006658	-0.001985	-0.003143	-0.584229	0.556396	-0.599121	0.570611	-0.190094	-0.230339	-0.764991
23595		5.368036	1.320828	8.006526	0.004195	-0.002313	-0.007058	-0.583984	0.555664	-0.599121	0.570587	-0.190051	-0.230365	-0.765012
23596		5.385085	1.310623	8.013481	0.005220	-0.001451	-0.002687	-0.579834	0.556152	-0.588867	0.570610	-0.190003	-0.230385	-0.765000
23597		5.373388	1.302921	8.025555	0.004949	-0.001755	-0.004491	-0.587646	0.560547	-0.594727	0.570601	-0.189992	-0.230384	-0.765010
23598		5.374659	1.305212	8.011366	0.003332	-0.002763	-0.004272	-0.581543	0.566162	-0.591797	0.570582	-0.189999	-0.230380	-0.765024
23599		5.384996	1.313916	8.025963	0.003553	-0.002164	-0.003938	-0.583008	0.562256	-0.594482	0.570601	-0.190020	-0.230352	-0.765013
23600		5.380238	1.323793	8.011947	0.003511	-0.001221	-0.004034	-0.581543	0.558594	-0.592773	0.570614	-0.190012	-0.230333	-0.765011
23601		5.369263	1.316705	8.010479	0.003691	0.000321	-0.003797	-0.581787	0.559326	-0.590088	0.570625	-0.189985	-0.230308	-0.765017
23602		5.369334	1.305758	8.016341	0.005473	-0.002446	-0.003631	-0.589111	0.561279	-0.597656	0.570626	-0.189984	-0.230311	-0.765016
23603		5.385666	1.319331	8.024625	0.004291	-0.002905	-0.004118	-0.573486	0.555420	-0.594238	0.570615	-0.189979	-0.230321	-0.765022
23604		5.369146	1.320250	8.022941	0.006178	-0.001592	-0.002534	-0.585205	0.561523	-0.587891	0.570669	-0.189936	-0.230339	-0.764987
23605		5.381285	1.306049	8.022386	0.003339	-0.002116	-0.002897	-0.583984	0.558350	-0.589355	0.570657	-0.189966	-0.230309	-0.764997
23606		5.386682	1.335827	8.017111	0.006219	-0.002536	-0.002437	-0.583252	0.555176	-0.588867	0.570657	-0.189966	-0.230319	-0.764995
23607		5.377113	1.305025	8.013881	0.004561	-0.002601	-0.002314	-0.574707	0.556885	-0.594482	0.570647	-0.189972	-0.230318	-0.765001
23608		5.381675	1.321498	8.028437	0.003855	-0.003455	-0.003411	-0.585205	0.559082	-0.592041	0.570680	-0.189965	-0.230326	-0.764975
23609		5.383159	1.311314	8.020270	0.005036	-0.002996	-0.002924	-0.575439	0.564209	-0.595459	0.570676	-0.189970	-0.230333	-0.764975
23610		5.371633	1.303614	8.032264	0.004943	-0.001760	-0.004491	-0.581787	0.562256	-0.592041	0.570725	-0.189952	-0.230330	-0.764944
23611		5.376009	1.320370	8.046895	0.004288	-0.002908	-0.004117	-0.585938	0.553955	-0.597412	0.570730	-0.189963	-0.230325	-0.764939
23612		5.373146	1.307125	8.017703	0.002072	-0.000690	-0.003577	-0.585449	0.559814	-0.590576	0.570719	-0.189934	-0.230310	-0.764959
23613		5.373288	1.308365	8.017406	0.005690	-0.001850	-0.003298	-0.579346	0.559570	-0.590088	0.570712	-0.189929	-0.230312	-0.764965
23614		5.373873	1.309678	8.016800	0.003462	-0.004949	-0.002606	-0.582520	0.565186	-0.589111	0.570721	-0.189969	-0.230311	-0.764948
23615		5.384494	1.318590	8.031158	0.005195	-0.002757	-0.005434	-0.585205	0.561523	-0.591553	0.570713	-0.189986	-0.230305	-0.764952
23616		5.378642	1.315584	8.037085	0.005614	0.000688	-0.002119	-0.580322	0.563721	-0.590088	0.570733	-0.189962	-0.230284	-0.764949
23617		5.385903	1.309992	8.022794	0.003936	-0.005346	-0.003216	-0.580566	0.556152	-0.581787	0.570743	-0.190010	-0.230284	-0.764930
23618		5.375647	1.303042	8.020854	0.005466	-0.002451	-0.003631	-0.579834	0.553223	-0.593262	0.570716	-0.190029	-0.230277	-0.764947
23619		5.387054	1.312982	8.021532	0.005023	-0.003651	-0.004297	-0.582031	0.557617	-0.591797	0.570707	-0.190013	-0.230306	-0.764949
23620		5.376497	1.318560	8.013584	0.005908	-0.001252	-0.002965	-0.589111	0.558350	-0.595703	0.570719	-0.189989	-0.230311	-0.764945
23621		5.393474	1.308318	8.020637	0.004199	-0.001024	-0.004312	-0.585205	0.560547	-0.593750	0.570698	-0.189965	-0.230308	-0.764967
23622		5.364923	1.312548	8.025365	0.006372	-0.002301	-0.004948	-0.582031	0.559082	-0.589355	0.570688	-0.189946	-0.230328	-0.764973
23623		5.382474	1.302472	8.032014	0.005642	-0.005575	-0.001868	-0.574707	0.554443	-0.588623	0.570694	-0.189981	-0.230351	-0.764954
23624		5.396202	1.313889	8.004904	0.004851	-0.004545	-0.003159	-0.581543	0.558105	-0.591553	0.570704	-0.189993	-0.230368	-0.764938
23625		5.379696	1.302425	8.009433	0.005600	0.000034	-0.003494	-0.580566	0.552002	-0.591309	0.570716	-0.189959	-0.230361	-0.764940
23626		5.378715	1.327701	8.010586	0.003986	-0.000974	-0.003272	-0.583984	0.557861	-0.593506	0.570711	-0.189933	-0.230356	-0.764952
23627		5.384148	1.308278	8.029948	0.005757	-0.004394	-0.004476	-0.580322	0.556641	-0.591797	0.570696	-0.189933	-0.230388	-0.764953
23628		5.396775	1.319130	8.016644	0.006294	-0.004429	-0.002242	-0.576416	0.557129	-0.580811	0.570710	-0.189936	-0.230419	-0.764932
23629		5.368824	1.310979	8.027195	0.006240	-0.004139	-0.003713	-0.584961	0.554443	-0.594482	0.570698	-0.189968	-0.230428	-0.764931
23630		5.386524	1.312991	8.027585	0.004206	-0.005041	-0.001410	-0.587158	0.557617	-0.592773	0.570697	-0.189983	-0.230451	-0.764920
23631		5.389004	1.315766	7.999471	0.004026	-0.001919	-0.003174	-0.579590	0.563477	-0.590332	0.570683	-0.189980	-0.230445	-0.764933
23632		5.386445	1.314543	8.040382	0.004247	-0.001319	-0.002842	-0.579346	0.554443	-0.593750	0.570713	-0.189987	-0.230420	-0.764917
23633		5.382806	1.312641	8.018673	0.002455	-0.003872	-0.002853	-0.582031	0.554443	-0.587402	0.570718	-0.189997	-0.230420	-0.764911
23634		5.378398	1.310270	8.010555	0.006406	-0.003250	-0.004851	-0.584229	0.558105	-0.599365	0.570687	-0.189991	-0.230446	-0.764928
23635		5.377015	1.322470	8.031286	0.003856	-0.002811	-0.002036	-0.584961	0.563721	-0.603760	0.570713	-0.189978	-0.230454	-0.764909
23636		5.379419	1.300562	8.015664	0.003581	-0.003122	-0.003839	-0.579346	0.560547	-0.582764	0.570742	-0.189963	-0.230465	-0.764887
23637		5.378914	1.325830	8.016456	0.005720	-0.002801	-0.003201	-0.573486	0.557373	-0.592529	0.570740	-0.189991	-0.230456	-0.764885
23638		5.390462	1.323361	8.023237	0.004096	-0.004464	-0.004350	-0.583496	0.558350	-0.587402	0.570761	-0.189997	-0.230472	-0.764863
23639		5.385131	1.308020	8.035083	0.005666	-0.002512	-0.004672	-0.583740	0.558594	-0.590332	0.570736	-0.190000	-0.230477	-0.764879
23640		5.381472	1.318872	8.007078	0.004329	-0.003209	-0.002646	-0.580811	0.549805	-0.591309	0.570734	-0.190017	-0.230475	-0.764878
23641		5.373851	1.326587	8.034274	0.006982	0.000437	-0.004053	-0.584961	0.561523	-0.582031	0.570727	-0.189949	-0.230494	-0.764894
23642		5.375880	1.304761	8.018908	0.001727	-0.002479	-0.001300	-0.583008	0.555176	-0.597412	0.570712	-0.190016	-0.230437	-0.764905
23643		5.392942	1.318441	8.013579	0.002061	-0.000699	-0.003578	-0.580566	0.551758	-0.587891	0.570717	-0.189989	-0.230419	-0.764914
23644		5.377933	1.307876	7.991002	0.002073	-0.000044	-0.002206	-0.579102	0.562012	-0.588623	0.570711	-0.189982	-0.230379	-0.764932
23645		5.392946	1.307894	8.019527	0.003230	-0.000893	-0.004466	-0.584961	0.564209	-0.587158	0.570717	-0.189988	-0.230345	-0.764937
23646		5.371173	1.316943	8.004389	0.003548	-0.001526	-0.002565	-0.584961	0.561035	-0.594727	0.570718	-0.190018	-0.230307	-0.764940
23647		5.382549	1.313955	8.011378	0.003423	-0.003359	-0.001327	-0.585205	0.562012	-0.590088	0.570738	-0.190038	-0.230300	-0.764922
23648		5.389265	1.294932	8.016892	0.003399	-0.004671	-0.004071	-0.588379	0.560303	-0.590576	0.570716	-0.190080	-0.230297	-0.764929
23649		5.360942	1.311172	8.015309	0.005146	-0.001174	-0.004161	-0.583252	0.554443	-0.586182	0.570694	-0.190072	-0.230290	-0.764950
23650		5.393644	1.313184	8.031206	0.004101	0.000854	-0.004511	-0.586670	0.560791	-0.586914	0.570665	-0.190048	-0.230262	-0.764986
23651		5.382554	1.318197	8.023691	0.001850	-0.000646	-0.002538	-0.583496	0.557129	-0.596191	0.570649	-0.190075	-0.230207	-0.765007
23652		5.377660	1.315639	8.015937	0.005618	-0.001572	-0.004771	-0.577881	0.566162	-0.590088	0.570647	-0.190037	-0.230227	-0.765012
23653		5.383957	1.309663	8.015372	0.006188	-0.003202	-0.003811	-0.580322	0.561523	-0.594727	0.570677	-0.190049	-0.230231	-0.764986
23654		5.383588	1.310538	8.028494	0.005493	-0.003406	-0.003533	-0.579590	0.556885	-0.586182	0.570699	-0.190045	-0.230248	-0.764965
23655		5.374103	1.316659	8.006699	0.004325	-0.003212	-0.002645	-0.580078	0.559326	-0.586182	0.570697	-0.190067	-0.230242	-0.764963
23656		5.376259	1.294812	7.991290	0.003932	-0.000037	-0.003373	-0.580566	0.561523	-0.588867	0.570700	-0.190065	-0.230206	-0.764972
23657		5.389120	1.318223	8.034978	0.004111	0.001508	-0.003141	-0.578125	0.559570	-0.591797	0.570720	-0.190044	-0.230163	-0.764975
23658		5.374132	1.320186	8.006099	0.003643	-0.002759	-0.000994	-0.584717	0.553467	-0.583496	0.570759	-0.190058	-0.230149	-0.764947
23659		5.372680	1.319847	8.033170	0.004920	-0.001778	-0.004493	-0.581787	0.557617	-0.590332	0.570710	-0.190060	-0.230144	-0.764984
23660		5.385804	1.318720	8.012645	0.002407	-0.002935	-0.002949	-0.580566	0.554688	-0.591797	0.570705	-0.190082	-0.230125	-0.764989
23661		5.386038	1.319778	8.012313	0.004195	-0.000381	-0.002942	-0.583740	0.564697	-0.597412	0.570713	-0.190054	-0.230114	-0.764993
23662		5.386124	1.308784	8.018318	0.004182	-0.001038	-0.004314	-0.579346	0.560547	-0.584473	0.570732	-0.190036	-0.230103	-0.764986
23663		5.385221	1.321747	8.025560	0.004182	-0.001039	-0.004314	-0.577393	0.563477	-0.591064	0.570724	-0.190046	-0.230075	-0.764998
23664		5.386437	1.323844	8.011374	0.004323	-0.003214	-0.002644	-0.582520	0.556885	-0.583496	0.570757	-0.190065	-0.230066	-0.764971
23665		5.376085	1.304442	8.015891	0.003517	-0.002844	-0.005307	-0.581299	0.557861	-0.592529	0.570710	-0.190091	-0.230052	-0.765004
23666		5.397379	1.309390	8.037840	0.004293	-0.001613	-0.001372	-0.586182	0.554932	-0.583740	0.570736	-0.190084	-0.230042	-0.764989
23667		5.375585	1.318536	8.022674	0.005360	-0.000577	-0.003831	-0.578369	0.557617	-0.588379	0.570697	-0.190076	-0.230030	-0.765025
23668		5.381701	1.312127	8.022316	0.003807	-0.001872	-0.002134	-0.585205	0.559082	-0.589111	0.570713	-0.190083	-0.230012	-0.765016
23669		5.370225	1.316407	8.028198	0.004058	-0.002873	-0.003074	-0.579346	0.567627	-0.592041	0.570698	-0.190101	-0.230004	-0.765025
23670		5.369850	1.304639	8.047689	0.004751	-0.002670	-0.003353	-0.583008	0.558594	-0.590820	0.570731	-0.190117	-0.229993	-0.765000
23671		5.398884	1.315727	8.035794	0.003320	-0.002132	-0.002895	-0.587891	0.559814	-0.591309	0.570729	-0.190126	-0.229977	-0.765004
23672		5.377363	1.312456	8.026757	0.004486	-0.002328	-0.003784	-0.586182	0.556396	-0.596436	0.570707	-0.190130	-0.229974	-0.765020
23673		5.394558	1.302498	8.033704	0.007052	-0.001459	-0.003858	-0.578369	0.555908	-0.590576	0.570705	-0.190083	-0.230006	-0.765024
23674		5.378741	1.316564	8.012126	0.003735	-0.002246	-0.004976	-0.585693	0.560303	-0.592041	0.570695	-0.190075	-0.230004	-0.765034
23675		5.383232	1.308555	8.039199	0.003319	-0.002133	-0.002895	-0.575928	0.552979	-0.588379	0.570691	-0.190086	-0.229987	-0.765040
23676		5.384370	1.310549	8.025075	0.004441	-0.001385	-0.003884	-0.578613	0.561768	-0.591309	0.570692	-0.190066	-0.229984	-0.765044
23677		5.383807	1.298892	8.044697	0.004484	-0.002330	-0.003783	-0.585449	0.560791	-0.591064	0.570708	-0.190069	-0.229978	-0.765033
23678		5.391062	1.305732	8.024082	0.004999	-0.003673	-0.004293	-0.579346	0.553711	-0.593018	0.570690	-0.190082	-0.229988	-0.765041
23679		5.380597	1.311032	8.016083	0.003304	-0.002793	-0.004266	-0.583984	0.556885	-0.584717	0.570681	-0.190073	-0.229993	-0.765048
23680		5.369947	1.316150	8.008236	0.004983	-0.001411	-0.001651	-0.584473	0.556885	-0.590820	0.570675	-0.190082	-0.229976	-0.765055
23681		5.376210	1.309740	8.007794	0.004482	-0.002331	-0.003783	-0.582764	0.557373	-0.591553	0.570658	-0.190079	-0.229977	-0.765068
23682		5.379767	1.325961	8.035967	0.006176	-0.003211	-0.003810	-0.582031	0.559082	-0.588379	0.570652	-0.190070	-0.230002	-0.765068
23683		5.371432	1.308304	8.012836	0.004347	-0.004822	-0.003913	-0.582275	0.560547	-0.592529	0.570635	-0.190102	-0.230011	-0.765070
23684		5.393143	1.313756	8.034418	0.007398	-0.003693	-0.003227	-0.583252	0.561523	-0.588379	0.570647	-0.190094	-0.230046	-0.765052
23685		5.389671	1.312323	8.012494	0.004302	-0.003879	-0.004013	-0.586426	0.552734	-0.593994	0.570632	-0.190122	-0.230045	-0.765057
23686		5.397016	1.306748	7.998146	0.004966	-0.002072	-0.003022	-0.574707	0.561523	-0.591064	0.570617	-0.190099	-0.230060	-0.765069
23687		5.384444	1.322848	8.011557	0.004701	-0.001731	-0.003453	-0.584229	0.562012	-0.593506	0.570653	-0.190092	-0.230051	-0.765047
23688		5.391110	1.303959	8.017222	0.003239	-0.004912	-0.001552	-0.593994	0.565430	-0.592773	0.570667	-0.190132	-0.230050	-0.765027
23689		5.369947	1.300712	8.007966	0.005421	-0.003133	-0.005002	-0.581055	0.551025	-0.592529	0.570629	-0.190145	-0.230058	-0.765049
23690		5.397075	1.323263	8.017165	0.006821	-0.002067	-0.004190	-0.578125	0.559814	-0.591309	0.570620	-0.190102	-0.230095	-0.765056
23691		5.392546	1.308785	8.015470	0.004256	-0.002937	-0.004114	-0.577148	0.555908	-0.584229	0.570629	-0.190106	-0.230095	-0.765048
23692		5.373984	1.332522	8.028922	0.003962	-0.000991	-0.003275	-0.583496	0.560303	-0.584717	0.570630	-0.190108	-0.230071	-0.765055
23693		5.386268	1.306110	8.034792	0.004963	-0.002074	-0.003022	-0.584961	0.563232	-0.597168	0.570619	-0.190125	-0.230056	-0.765062
23694		5.375701	1.311551	8.026830	0.006170	-0.003216	-0.003810	-0.582520	0.554932	-0.590820	0.570632	-0.190114	-0.230081	-0.765048
23695		5.382197	1.317530	8.019873	0.003400	-0.004028	-0.002692	-0.580811	0.552979	-0.592285	0.570623	-0.190133	-0.230085	-0.765049
23696		5.370990	1.321881	8.025575	0.005271	-0.003361	-0.002490	-0.587402	0.554199	-0.592773	0.570627	-0.190123	-0.230108	-0.765041
23697		5.383302	1.308033	8.025037	0.005329	-0.001248	-0.005205	-0.573975	0.561523	-0.585938	0.570592	-0.190090	-0.230121	-0.765072
23698		5.377658	1.305126	8.030926	0.005432	-0.002476	-0.003632	-0.588623	0.549805	-0.585938	0.570616	-0.190099	-0.230116	-0.765053
23699		5.383950	1.323403	8.017729	0.003605	-0.004088	-0.003732	-0.581787	0.555908	-0.589355	0.570552	-0.190122	-0.230124	-0.765093
23700		5.372662	1.315647	8.029828	0.004901	-0.001794	-0.004494	-0.584473	0.562500	-0.592285	0.570537	-0.190109	-0.230126	-0.765106
23701		5.378905	1.309428	8.029391	0.005446	-0.001815	-0.002262	-0.581055	0.561279	-0.587402	0.570557	-0.190106	-0.230122	-0.765094
23702		5.386095	1.316029	8.008790	0.005063	-0.003303	-0.001450	-0.580566	0.562744	-0.588135	0.570576	-0.190132	-0.230116	-0.765075
23703		5.385855	1.304242	8.028313	0.003781	-0.002542	-0.003504	-0.583008	0.564453	-0.591553	0.570581	-0.190154	-0.230097	-0.765072
23704		5.381046	1.326361	8.007747	0.005208	-0.003081	-0.003961	-0.578369	0.556885	-0.583496	0.570586	-0.190165	-0.230100	-0.765064
23705		5.375731	1.310891	8.019852	0.004267	-0.002280	-0.002743	-0.585449	0.553711	-0.596680	0.570585	-0.190183	-0.230083	-0.765065
23706		5.386950	1.320477	8.020550	0.003309	-0.002142	-0.002894	-0.589111	0.555176	-0.588623	0.570581	-0.190166	-0.230086	-0.765072
23707		5.386621	1.308618	8.040157	0.004045	-0.002884	-0.003072	-0.582031	0.555664	-0.594238	0.570545	-0.190179	-0.230084	-0.765096
23708		5.377050	1.314480	8.018380	0.004293	-0.003889	-0.004011	-0.581055	0.565918	-0.581787	0.570538	-0.190177	-0.230104	-0.765095
23709		5.390507	1.301080	8.003953	0.004309	-0.003226	-0.002641	-0.584473	0.557373	-0.588135	0.570540	-0.190229	-0.230076	-0.765089
23710		5.390021	1.313972	8.010857	0.004248	-0.002945	-0.004113	-0.585205	0.568115	-0.588135	0.570515	-0.190240	-0.230075	-0.765106
23711		5.371536	1.325424	8.030618	0.003690	-0.000655	-0.003708	-0.583984	0.563232	-0.584717	0.570518	-0.190258	-0.230033	-0.765112
23712		5.388698	1.315206	8.037690	0.004956	-0.002079	-0.003023	-0.588623	0.560547	-0.592285	0.570513	-0.190280	-0.230014	-0.765116
23713		5.384138	1.312735	8.029726	0.004026	-0.003549	-0.004442	-0.580811	0.562744	-0.592285	0.570485	-0.190295	-0.230018	-0.765132
23714		5.380381	1.311054	8.008017	0.004894	-0.001799	-0.004495	-0.579102	0.554932	-0.578613	0.570494	-0.190286	-0.230015	-0.765128
23715		5.384995	1.315547	8.028691	0.003395	-0.004033	-0.002690	-0.576416	0.562256	-0.590576	0.570469	-0.190336	-0.229997	-0.765140
23716		5.375425	1.309014	8.013327	0.004423	-0.001398	-0.003886	-0.579590	0.558838	-0.589844	0.570494	-0.190329	-0.229983	-0.765127
23717		5.392411	1.311090	8.014113	0.003953	-0.000997	-0.003277	-0.583740	0.567871	-0.595703	0.570506	-0.190321	-0.229964	-0.765125
23718		5.379969	1.314747	8.033847	0.004528	-0.002624	-0.002312	-0.578369	0.562012	-0.585693	0.570541	-0.190332	-0.229956	-0.765099
23719		5.382261	1.305165	8.012122	0.004732	-0.002685	-0.003352	-0.587402	0.552246	-0.593994	0.570550	-0.190351	-0.229945	-0.765092
23720		5.394548	1.315632	7.998850	0.003111	-0.004359	-0.004490	-0.581055	0.557861	-0.593750	0.570508	-0.190357	-0.229964	-0.765115
23721		5.393168	1.315752	8.025921	0.004785	-0.000577	-0.006070	-0.579834	0.558105	-0.588867	0.570499	-0.190319	-0.229966	-0.765131
23722		5.371256	1.312782	8.017166	0.005333	-0.000594	-0.003838	-0.585449	0.557617	-0.590576	0.570505	-0.190297	-0.229958	-0.765134
23723		5.382083	1.322571	8.018061	0.003216	-0.000257	-0.003099	-0.585938	0.557129	-0.593750	0.570499	-0.190287	-0.229930	-0.765150
23724		5.383454	1.299847	8.016611	0.004040	-0.002888	-0.003072	-0.588379	0.556396	-0.592285	0.570492	-0.190287	-0.229935	-0.765154
23725		5.376938	1.320445	8.023521	0.004996	-0.003027	-0.002921	-0.582520	0.550781	-0.586914	0.570475	-0.190285	-0.229949	-0.765162
23726		5.367350	1.314233	8.008125	0.006111	-0.002282	-0.003913	-0.584229	0.558105	-0.590332	0.570450	-0.190266	-0.229969	-0.765180
23727		5.388749	1.319790	8.029883	0.004729	-0.002687	-0.003352	-0.582275	0.559814	-0.587891	0.570442	-0.190268	-0.229972	-0.765184
23728		5.373256	1.321095	8.014459	0.004773	-0.003632	-0.003249	-0.585449	0.552246	-0.590332	0.570437	-0.190289	-0.229975	-0.765182
23729		5.379732	1.314700	8.013921	0.005233	-0.001758	-0.001223	-0.587891	0.559082	-0.590820	0.570439	-0.190274	-0.229981	-0.765182
23730		5.378339	1.327012	8.034589	0.004976	-0.003694	-0.004289	-0.582764	0.558838	-0.595703	0.570411	-0.190284	-0.229994	-0.765197
23731		5.380512	1.317677	8.012909	0.004355	-0.001125	-0.005358	-0.584229	0.553955	-0.593506	0.570407	-0.190255	-0.229996	-0.765207
