// Start Time: Unknown
// Update Rate: 40.0Hz
// Filter Profile: human (46.1)
// Firmware Version: 4.6.0
PacketCounter	SampleTimeFine	Acc_X	Acc_Y	Acc_Z	Gyr_X	Gyr_Y	Gyr_Z	Mag_X	Mag_Y	Mag_Z	Quat_q0	Quat_q1	Quat_q2	Quat_q3
23208		9.756216	-0.557422	-0.873082	0.008191	0.004108	-0.016202	-0.770996	0.147217	-0.332031	0.671027	-0.120710	-0.727978	-0.072111
23209		9.741673	-0.574101	-0.886761	0.012072	0.002953	-0.017326	-0.762207	0.149414	-0.327393	0.671056	-0.120448	-0.727991	-0.072151
23210		9.773348	-0.562454	-0.882450	0.011232	0.003287	-0.019450	-0.764648	0.151611	-0.330322	0.671084	-0.120180	-0.728002	-0.072215
23211		9.758894	-0.544004	-0.860535	0.009055	0.004517	-0.015869	-0.764648	0.151123	-0.330566	0.671125	-0.119956	-0.727997	-0.072272
23212		9.767899	-0.516247	-0.823886	0.014027	0.005150	-0.015469	-0.755127	0.145996	-0.331543	0.671179	-0.119692	-0.727989	-0.072282
23213		9.738740	-0.517944	-0.876701	0.009777	0.003667	-0.015002	-0.753418	0.148193	-0.328857	0.671217	-0.119468	-0.727986	-0.072328
23214		9.725020	-0.543332	-0.879562	0.007143	0.002433	-0.015996	-0.762207	0.149414	-0.325928	0.671238	-0.119255	-0.727994	-0.072405
23215		9.770550	-0.555867	-0.894881	0.004656	0.002458	-0.017524	-0.755859	0.142578	-0.333740	0.671252	-0.119051	-0.728003	-0.072518
23216		9.755055	-0.565062	-0.859626	0.003076	0.002609	-0.016530	-0.760254	0.151367	-0.332275	0.671263	-0.118872	-0.728011	-0.072633
23217		9.756294	-0.586549	-0.895702	0.009657	0.003153	-0.016260	-0.761719	0.152832	-0.332275	0.671290	-0.118645	-0.728019	-0.072681
23218		9.752225	-0.560302	-0.876706	0.017289	0.005087	-0.014002	-0.764160	0.146729	-0.334717	0.671344	-0.118382	-0.728016	-0.072633
23219		9.754329	-0.520252	-0.890548	0.011611	0.004668	-0.011749	-0.762451	0.151611	-0.332275	0.671387	-0.118192	-0.728010	-0.072613
23220		9.756304	-0.515966	-0.879859	0.006533	0.003852	-0.014737	-0.760254	0.155029	-0.324951	0.671407	-0.118020	-0.728014	-0.072662
23221		9.764386	-0.532718	-0.877821	0.003794	0.001754	-0.015662	-0.755371	0.151855	-0.332764	0.671398	-0.117866	-0.728039	-0.072741
23222		9.740334	-0.548282	-0.890483	0.002846	0.001224	-0.017718	-0.762207	0.150146	-0.332764	0.671387	-0.117698	-0.728066	-0.072846
23223		9.734603	-0.575665	-0.904639	0.002393	0.003564	-0.015669	-0.766846	0.155029	-0.334961	0.671391	-0.117558	-0.728076	-0.072935
23224		9.748771	-0.560944	-0.887451	0.006662	0.005113	-0.015271	-0.757080	0.142822	-0.328857	0.671407	-0.117408	-0.728081	-0.072970
23225		9.760981	-0.513007	-0.844676	0.004657	0.001143	-0.011344	-0.758789	0.153076	-0.339355	0.671389	-0.117285	-0.728117	-0.072980
23226		9.770742	-0.528917	-0.833484	-0.001082	0.001625	-0.014803	-0.754883	0.145264	-0.328125	0.671385	-0.117206	-0.728124	-0.073079
23227		9.752054	-0.557612	-0.865406	0.004371	0.001015	-0.019570	-0.762207	0.150146	-0.326904	0.671372	-0.117007	-0.728160	-0.073162
23228		9.775135	-0.569817	-0.896831	0.011785	0.001588	-0.018500	-0.758301	0.146973	-0.335449	0.671363	-0.116793	-0.728203	-0.073158
23229		9.766673	-0.554973	-0.896355	0.003559	0.000375	-0.016848	-0.755615	0.151367	-0.331299	0.671355	-0.116652	-0.728227	-0.073216
23230		9.744399	-0.587429	-0.887171	-0.001864	0.002065	-0.015203	-0.761475	0.143555	-0.332275	0.671349	-0.116595	-0.728232	-0.073301
23231		9.751450	-0.560559	-0.860814	0.009537	0.002702	-0.016648	-0.762695	0.142822	-0.329590	0.671352	-0.116405	-0.728262	-0.073288
23232		9.751747	-0.538209	-0.872365	0.013480	0.003044	-0.021353	-0.753174	0.151611	-0.327148	0.671349	-0.116140	-0.728308	-0.073273
23233		9.760306	-0.570434	-0.918072	0.003574	0.002136	-0.022624	-0.759766	0.148682	-0.339600	0.671344	-0.115990	-0.728329	-0.073351
23234		9.754515	-0.579700	-0.884380	0.002944	0.002817	-0.019575	-0.766846	0.149658	-0.335449	0.671370	-0.115879	-0.728315	-0.073426
23235		9.763315	-0.568669	-0.835983	0.008605	0.002570	-0.019167	-0.758545	0.143066	-0.325195	0.671367	-0.115761	-0.728337	-0.073430
23236		9.764445	-0.555064	-0.836429	0.014620	0.004282	-0.015449	-0.760254	0.147461	-0.337402	0.671373	-0.115533	-0.728377	-0.073330
23237		9.730793	-0.516501	-0.883911	0.014685	0.004741	-0.015052	-0.759277	0.156006	-0.330566	0.671444	-0.115374	-0.728344	-0.073256
23238		9.740575	-0.495905	-0.897059	0.003635	0.001226	-0.016912	-0.764893	0.141113	-0.331787	0.671436	-0.115372	-0.728351	-0.073270
23239		9.771366	-0.511390	-0.879218	0.000549	0.002997	-0.018518	-0.763672	0.143311	-0.328857	0.671413	-0.115240	-0.728384	-0.073350
23240		9.771405	-0.507669	-0.818180	0.003060	0.003728	-0.018781	-0.750977	0.151367	-0.336670	0.671388	-0.115098	-0.728425	-0.073402
23241		9.752282	-0.564051	-0.835788	0.005303	0.001601	-0.016644	-0.759521	0.149902	-0.339355	0.671457	-0.115022	-0.728369	-0.073437
23242		9.763391	-0.586882	-0.873672	0.009360	0.001108	-0.014776	-0.756592	0.151855	-0.329590	0.671515	-0.114962	-0.728326	-0.073428
23243		9.755543	-0.545141	-0.886767	0.008020	0.003712	-0.015719	-0.759766	0.158203	-0.326660	0.671538	-0.114901	-0.728318	-0.073391
23244		9.742476	-0.525863	-0.855681	0.009451	0.002308	-0.016173	-0.761719	0.150879	-0.334473	0.671515	-0.114928	-0.728342	-0.073322
23245		9.755447	-0.565214	-0.871258	0.009480	0.002707	-0.016639	-0.765625	0.145508	-0.334473	0.671543	-0.114882	-0.728325	-0.073312
23246		9.760179	-0.548479	-0.912843	0.012931	0.004319	-0.016175	-0.765869	0.153320	-0.336914	0.671571	-0.114750	-0.728323	-0.073276
23247		9.733394	-0.540453	-0.897599	0.013558	0.002957	-0.016563	-0.763916	0.146484	-0.336182	0.671604	-0.114754	-0.728296	-0.073244
23248		9.757887	-0.534853	-0.871200	0.003149	0.003559	-0.014866	-0.755127	0.142578	-0.330566	0.671627	-0.114741	-0.728272	-0.073296
23249		9.761472	-0.529081	-0.851413	-0.000921	0.002290	-0.010956	-0.754883	0.150146	-0.338623	0.671629	-0.114654	-0.728283	-0.073298
23250		9.757447	-0.520358	-0.880686	0.008837	0.003730	-0.014919	-0.760010	0.144775	-0.326416	0.671730	-0.114638	-0.728192	-0.073303
23251		9.742523	-0.547234	-0.892772	0.007151	0.003690	-0.016514	-0.762451	0.144287	-0.338135	0.671686	-0.114472	-0.728264	-0.073249
23252		9.751617	-0.554428	-0.892130	0.006998	0.001355	-0.012853	-0.759766	0.144287	-0.327881	0.671720	-0.114427	-0.728238	-0.073265
23253		9.791874	-0.554254	-0.888124	0.003257	0.003401	-0.010952	-0.748779	0.141846	-0.339355	0.671682	-0.114356	-0.728290	-0.073209
23254		9.756904	-0.527282	-0.874329	0.007479	0.004578	-0.010085	-0.756836	0.151367	-0.334717	0.671838	-0.114236	-0.728167	-0.073186
23255		9.749953	-0.512950	-0.863635	0.009747	0.003535	-0.011068	-0.754639	0.146729	-0.338623	0.671892	-0.114298	-0.728115	-0.073113
23256		9.741317	-0.499558	-0.862824	0.008627	0.001672	-0.013446	-0.767578	0.143799	-0.332520	0.671977	-0.114270	-0.728042	-0.073104
23257		9.764574	-0.512619	-0.894169	0.002751	0.000851	-0.016374	-0.765869	0.153809	-0.332275	0.671900	-0.114213	-0.728117	-0.073150
23258		9.760384	-0.566674	-0.884854	-0.002626	0.002576	-0.013879	-0.761719	0.149170	-0.333496	0.671842	-0.114435	-0.728130	-0.073208
23259		9.751242	-0.580271	-0.870113	0.000722	0.003336	-0.013344	-0.764648	0.141357	-0.336182	0.671834	-0.114525	-0.728120	-0.073243
23260		9.756333	-0.599828	-0.886812	0.008005	0.003774	-0.014851	-0.764404	0.136475	-0.337158	0.671851	-0.114399	-0.728122	-0.073267
23261		9.742004	-0.554782	-0.879149	0.011221	0.003276	-0.013777	-0.760742	0.150635	-0.331055	0.671881	-0.114158	-0.728132	-0.073264
23262		9.755187	-0.549827	-0.860685	0.008771	0.003334	-0.014447	-0.764893	0.147461	-0.332520	0.671858	-0.114204	-0.728153	-0.073196
23263		9.756261	-0.581563	-0.895001	0.003043	0.003089	-0.015258	-0.759277	0.149902	-0.334473	0.671815	-0.114247	-0.728184	-0.073219
23264		9.763559	-0.571890	-0.916232	0.006280	0.003330	-0.015978	-0.759521	0.143799	-0.329102	0.671837	-0.114316	-0.728152	-0.073222
23265		9.758842	-0.563785	-0.825114	0.006217	0.002532	-0.015045	-0.765137	0.151611	-0.333496	0.671785	-0.114195	-0.728226	-0.073156
23266		9.734248	-0.571888	-0.848389	0.011019	0.002633	-0.016753	-0.764404	0.139893	-0.339844	0.671756	-0.114290	-0.728240	-0.073130
23267		9.763732	-0.570366	-0.912260	0.024750	0.002828	-0.017903	-0.759521	0.155518	-0.335205	0.671833	-0.114025	-0.728216	-0.073071
23268		9.740684	-0.531954	-0.891946	0.016807	0.004413	-0.018668	-0.766846	0.148682	-0.335449	0.671883	-0.114159	-0.728156	-0.073004
23269		9.764887	-0.507519	-0.878159	0.003472	0.001070	-0.018621	-0.761475	0.150635	-0.333252	0.671834	-0.114264	-0.728177	-0.073084
23270		9.771996	-0.542664	-0.873024	0.004641	0.003736	-0.017178	-0.753418	0.150879	-0.338867	0.671823	-0.114373	-0.728169	-0.073096
23271		9.751741	-0.555964	-0.865866	0.011149	0.004288	-0.017756	-0.764893	0.144043	-0.332275	0.671951	-0.114475	-0.728033	-0.073117
23272		9.730938	-0.533452	-0.883908	0.010911	0.002505	-0.018472	-0.754150	0.149658	-0.334717	0.671897	-0.114342	-0.728107	-0.073072
23273		9.735232	-0.543610	-0.911827	0.001137	0.002375	-0.019830	-0.758789	0.152344	-0.336426	0.671933	-0.114432	-0.728055	-0.073132
23274		9.766997	-0.548648	-0.894851	0.002372	0.005504	-0.017993	-0.759521	0.146484	-0.327393	0.671985	-0.114643	-0.727965	-0.073212
23275		9.757371	-0.570912	-0.878088	0.008589	0.003482	-0.018352	-0.755615	0.148193	-0.331787	0.671908	-0.114496	-0.728072	-0.073077
23276		9.757710	-0.566422	-0.877237	0.009210	0.002458	-0.020064	-0.760010	0.143066	-0.335693	0.671906	-0.114448	-0.728088	-0.073024
23277		9.756102	-0.545258	-0.898487	0.012506	0.003168	-0.020388	-0.750977	0.145508	-0.331787	0.671934	-0.114305	-0.728084	-0.073026
23278		9.763339	-0.553182	-0.846479	0.009769	0.006549	-0.017377	-0.761230	0.145264	-0.338379	0.672004	-0.114196	-0.728045	-0.072934
23279		9.739227	-0.534041	-0.883151	0.010404	0.004122	-0.014637	-0.761719	0.140137	-0.328857	0.672065	-0.114239	-0.727980	-0.072957
23280		9.761024	-0.521141	-0.877071	0.006272	0.004116	-0.016906	-0.764160	0.148682	-0.329590	0.671991	-0.114005	-0.728095	-0.072866
23281		9.763331	-0.533266	-0.853806	-0.000170	0.005078	-0.019060	-0.758057	0.147461	-0.332764	0.671903	-0.114089	-0.728159	-0.072893
23282		9.747888	-0.551159	-0.876839	0.005980	0.002603	-0.019809	-0.756592	0.144043	-0.325928	0.671891	-0.114111	-0.728167	-0.072902
23283		9.772814	-0.543564	-0.910564	0.008525	0.004150	-0.021003	-0.754883	0.141846	-0.328857	0.671817	-0.113897	-0.728281	-0.072775
23284		9.754946	-0.545415	-0.895442	0.002942	0.003735	-0.017908	-0.759033	0.147461	-0.330078	0.671786	-0.113747	-0.728338	-0.072723
23285		9.770999	-0.518974	-0.870400	0.000768	0.004561	-0.013883	-0.766357	0.147949	-0.339355	0.671747	-0.113868	-0.728356	-0.072714
23286		9.735074	-0.501380	-0.855266	0.005629	0.004076	-0.012068	-0.756348	0.141357	-0.335693	0.671783	-0.114113	-0.728275	-0.072814
23287		9.753529	-0.491460	-0.868648	0.001094	0.001290	-0.016702	-0.753906	0.150635	-0.329346	0.671809	-0.114071	-0.728251	-0.072880
23288		9.770141	-0.509361	-0.877838	-0.002279	0.001175	-0.019895	-0.762695	0.150879	-0.336670	0.671754	-0.114230	-0.728273	-0.072920
23289		9.774336	-0.546682	-0.891957	0.000187	0.001531	-0.019688	-0.761475	0.140625	-0.336670	0.671740	-0.114499	-0.728226	-0.073090
23290		9.741107	-0.589255	-0.889052	0.000992	0.000430	-0.016627	-0.762451	0.137939	-0.332764	0.671734	-0.114465	-0.728227	-0.073191
23291		9.736628	-0.580330	-0.858511	0.002150	0.003104	-0.015187	-0.767090	0.150635	-0.330811	0.671699	-0.114294	-0.728285	-0.073197
23292		9.735767	-0.514053	-0.836694	0.015939	0.003500	-0.014598	-0.761475	0.147705	-0.333984	0.671624	-0.114397	-0.728349	-0.073093
23293		9.758401	-0.518724	-0.878390	0.015716	0.002446	-0.017106	-0.767090	0.154053	-0.334473	0.671621	-0.114424	-0.728352	-0.073043
23294		9.770249	-0.541496	-0.915635	0.005302	0.002895	-0.016297	-0.758057	0.149170	-0.331543	0.671571	-0.114760	-0.728337	-0.073126
23295		9.752926	-0.534394	-0.902387	0.004389	0.002402	-0.017488	-0.763184	0.149170	-0.334473	0.671545	-0.114865	-0.728345	-0.073126
23296		9.738829	-0.524344	-0.870099	0.006854	0.002762	-0.017281	-0.766602	0.144043	-0.324707	0.671526	-0.115014	-0.728334	-0.073179
23297		9.751343	-0.528144	-0.850389	0.003618	0.001770	-0.014770	-0.756592	0.151611	-0.339844	0.671356	-0.114873	-0.728528	-0.073025
23298		9.743864	-0.577186	-0.870477	0.007909	0.003848	-0.013973	-0.760010	0.148926	-0.335938	0.671467	-0.115210	-0.728359	-0.073151
23299		9.759691	-0.561070	-0.903943	0.016971	0.004596	-0.011287	-0.762207	0.149902	-0.333252	0.671527	-0.115337	-0.728290	-0.073088
23300		9.758026	-0.505183	-0.880456	0.011923	0.003345	-0.012955	-0.761963	0.143066	-0.333740	0.671516	-0.115466	-0.728286	-0.073030
23301		9.748087	-0.511081	-0.876338	0.006408	0.004440	-0.012595	-0.756348	0.145752	-0.331299	0.671520	-0.115439	-0.728289	-0.073005
23302		9.768057	-0.527573	-0.865424	0.011296	0.005099	-0.013040	-0.766602	0.150879	-0.335205	0.671545	-0.115386	-0.728287	-0.072877
23303		9.755478	-0.526810	-0.881939	0.015001	0.001955	-0.012658	-0.756348	0.143799	-0.336426	0.671518	-0.115568	-0.728286	-0.072849
23304		9.763134	-0.536029	-0.890724	0.009441	0.002253	-0.011365	-0.757080	0.151123	-0.331299	0.671576	-0.115591	-0.728231	-0.072828
23305		9.741958	-0.543066	-0.894751	0.003328	0.004767	-0.009766	-0.764160	0.149414	-0.331055	0.671578	-0.115793	-0.728204	-0.072764
23306		9.745867	-0.555516	-0.862110	0.010237	0.002220	-0.011426	-0.763184	0.145020	-0.336914	0.671515	-0.115873	-0.728259	-0.072657
23307		9.772871	-0.538678	-0.887905	0.007884	0.003841	-0.013971	-0.758301	0.148438	-0.333496	0.671541	-0.115937	-0.728219	-0.072714
23308		9.763980	-0.552613	-0.873072	0.004436	0.001061	-0.012172	-0.754883	0.139893	-0.325684	0.671528	-0.116067	-0.728212	-0.072698
23309		9.763127	-0.568791	-0.869149	0.005568	0.004800	-0.013861	-0.764404	0.148682	-0.329834	0.671491	-0.115722	-0.728325	-0.072455
23310		9.744156	-0.564335	-0.865044	0.006384	0.003709	-0.010798	-0.770264	0.147217	-0.331787	0.671425	-0.115802	-0.728383	-0.072364
23311		9.753977	-0.562853	-0.865738	0.004694	0.002186	-0.008805	-0.759033	0.145508	-0.337891	0.671331	-0.115918	-0.728455	-0.072326
23312		9.748270	-0.547102	-0.846261	0.004496	0.001523	-0.011778	-0.765869	0.151855	-0.341309	0.671376	-0.116055	-0.728384	-0.072404
23313		9.753875	-0.539314	-0.877444	0.008296	0.001427	-0.016855	-0.770020	0.149170	-0.335449	0.671409	-0.116383	-0.728281	-0.072613
23314		9.778751	-0.559838	-0.897303	0.002719	0.002048	-0.016892	-0.757568	0.157471	-0.331787	0.671346	-0.116561	-0.728297	-0.072744
23315		9.751208	-0.589313	-0.867047	-0.003636	0.001643	-0.013745	-0.760498	0.147217	-0.337402	0.671310	-0.116954	-0.728261	-0.072810
23316		9.744981	-0.554940	-0.860447	0.000382	0.001154	-0.012723	-0.751465	0.148193	-0.336426	0.671326	-0.117152	-0.728201	-0.072940
23317		9.742434	-0.507613	-0.836599	0.008800	-0.000851	-0.018017	-0.764160	0.153076	-0.333496	0.671378	-0.117214	-0.728139	-0.072980
23318		9.761526	-0.551233	-0.882272	0.005640	0.000795	-0.020502	-0.759521	0.148438	-0.330811	0.671320	-0.117373	-0.728159	-0.073057
23319		9.751761	-0.565009	-0.937704	0.002374	-0.000270	-0.018853	-0.773193	0.151855	-0.342529	0.671257	-0.117362	-0.728221	-0.073043
23320		9.765386	-0.576028	-0.907503	0.000772	-0.000208	-0.018730	-0.760986	0.143066	-0.330322	0.671224	-0.117789	-0.728144	-0.073417
23321		9.742638	-0.573223	-0.863074	0.001161	0.002573	-0.016375	-0.762939	0.148193	-0.335693	0.671180	-0.117637	-0.728215	-0.073362
23322		9.753050	-0.560138	-0.865663	0.006512	0.000900	-0.018841	-0.760254	0.147949	-0.331787	0.671165	-0.117717	-0.728207	-0.073456
23323		9.762354	-0.538885	-0.879492	0.014588	0.000727	-0.017733	-0.758789	0.148926	-0.329346	0.671139	-0.117626	-0.728256	-0.073350
23324		9.754709	-0.541886	-0.926770	0.008011	0.000702	-0.020683	-0.759277	0.148682	-0.336670	0.671085	-0.117530	-0.728329	-0.073264
23325		9.746017	-0.553959	-0.912072	-0.001391	0.003182	-0.020566	-0.760498	0.142334	-0.333984	0.671111	-0.117695	-0.728258	-0.073466
23326		9.772543	-0.562387	-0.863592	0.000208	0.002396	-0.018893	-0.763916	0.145020	-0.322266	0.671104	-0.117621	-0.728269	-0.073545
23327		9.758030	-0.571163	-0.888362	0.011474	0.002838	-0.019824	-0.753418	0.156006	-0.338135	0.670977	-0.117245	-0.728476	-0.073253
23328		9.740554	-0.536121	-0.889264	0.015436	0.003018	-0.021456	-0.759277	0.148193	-0.331055	0.671073	-0.117489	-0.728338	-0.073353
23329		9.737288	-0.543890	-0.905737	0.004312	0.003895	-0.020209	-0.757812	0.147461	-0.328857	0.671059	-0.117466	-0.728355	-0.073356
23330		9.766673	-0.568547	-0.895349	0.003906	-0.000011	-0.020297	-0.759277	0.144775	-0.325195	0.670996	-0.117378	-0.728433	-0.073297
23331		9.766142	-0.536614	-0.848925	0.015601	0.003294	-0.018014	-0.760254	0.159180	-0.327637	0.670941	-0.117066	-0.728561	-0.073032
23332		9.759961	-0.511218	-0.900201	0.017275	0.004096	-0.018211	-0.756348	0.147949	-0.336182	0.670903	-0.117214	-0.728585	-0.072899
23333		9.729351	-0.516065	-0.902859	0.008925	0.001270	-0.018625	-0.755615	0.146729	-0.331543	0.670945	-0.117287	-0.728528	-0.072971
23334		9.747758	-0.504956	-0.916470	0.008141	0.001694	-0.019031	-0.755127	0.145020	-0.336914	0.670947	-0.117225	-0.728539	-0.072935
23335		9.768453	-0.510155	-0.907350	0.005367	0.005386	-0.017373	-0.759033	0.144043	-0.332275	0.671036	-0.117268	-0.728440	-0.073032
23336		9.753588	-0.546914	-0.857110	-0.001892	0.004056	-0.014954	-0.762695	0.145508	-0.332520	0.671035	-0.117272	-0.728437	-0.073070
23337		9.738222	-0.576248	-0.878542	-0.001901	0.002936	-0.012689	-0.762451	0.149658	-0.330811	0.671006	-0.117351	-0.728446	-0.073113
23338		9.746570	-0.575165	-0.888551	0.014196	0.004425	-0.015383	-0.762207	0.141602	-0.338867	0.670994	-0.117347	-0.728468	-0.073016
23339		9.749435	-0.514417	-0.896911	0.012782	0.004755	-0.011822	-0.761475	0.150635	-0.329346	0.671072	-0.117333	-0.728396	-0.073043
23340		9.763584	-0.517000	-0.867173	-0.000386	0.003134	-0.014999	-0.758789	0.141846	-0.331299	0.671017	-0.117445	-0.728429	-0.073038
23341		9.753667	-0.559453	-0.847223	0.003777	0.003994	-0.013658	-0.763428	0.149170	-0.336426	0.671019	-0.117331	-0.728451	-0.072979
23342		9.729295	-0.541554	-0.884550	0.014053	0.003499	-0.016163	-0.760986	0.145020	-0.331055	0.671047	-0.117418	-0.728409	-0.073010
23343		9.746563	-0.523172	-0.908732	0.006117	0.003841	-0.014699	-0.764160	0.148193	-0.331787	0.671032	-0.117361	-0.728436	-0.072956
23344		9.757932	-0.555648	-0.883854	0.001136	0.002610	-0.015511	-0.760498	0.151367	-0.332031	0.670985	-0.117447	-0.728462	-0.072996
23345		9.752541	-0.528795	-0.865500	0.010981	0.005658	-0.017401	-0.758057	0.149170	-0.327393	0.671000	-0.117511	-0.728439	-0.072977
23346		9.744770	-0.523193	-0.853097	0.013509	0.004667	-0.012738	-0.766602	0.141846	-0.327881	0.670986	-0.117442	-0.728484	-0.072775
23347		9.726027	-0.529439	-0.907936	0.004521	0.000936	-0.008252	-0.760986	0.149414	-0.332275	0.670892	-0.117325	-0.728605	-0.072617
23348		9.756638	-0.527505	-0.902452	0.005208	0.001492	-0.011828	-0.761719	0.149902	-0.331299	0.670869	-0.117451	-0.728608	-0.072603
23349		9.774610	-0.527177	-0.914006	0.010982	0.004935	-0.015604	-0.756836	0.144287	-0.328369	0.670869	-0.117483	-0.728607	-0.072560
23350		9.762206	-0.543397	-0.857425	0.007645	0.003715	-0.015677	-0.753418	0.144775	-0.338623	0.670856	-0.117332	-0.728655	-0.072439
23351		9.719672	-0.569416	-0.864864	0.000466	0.002835	-0.012871	-0.748047	0.155762	-0.334961	0.670942	-0.117459	-0.728544	-0.072551
23352		9.726488	-0.569721	-0.884572	0.004387	0.003355	-0.015827	-0.757324	0.152344	-0.330078	0.671020	-0.117744	-0.728419	-0.072628
23353		9.765361	-0.568077	-0.889435	0.013041	0.003651	-0.020002	-0.768799	0.152344	-0.327393	0.671016	-0.117744	-0.728429	-0.072570
23354		9.757995	-0.551841	-0.879061	0.013067	0.003325	-0.018674	-0.766602	0.142090	-0.330078	0.670924	-0.117720	-0.728526	-0.072479
23355		9.766031	-0.559884	-0.887273	0.007005	0.004741	-0.013974	-0.758057	0.144043	-0.334717	0.670886	-0.117569	-0.728593	-0.072399
23356		9.731577	-0.532115	-0.864508	0.012646	0.003913	-0.011737	-0.758789	0.148438	-0.330811	0.670938	-0.117521	-0.728560	-0.072327
23357		9.739122	-0.513788	-0.887243	0.010890	0.003357	-0.013726	-0.766846	0.145752	-0.338867	0.670937	-0.117517	-0.728571	-0.072240
23358		9.735129	-0.505417	-0.916680	0.005820	0.001971	-0.016259	-0.762451	0.150146	-0.330811	0.670945	-0.117614	-0.728533	-0.072380
23359		9.767463	-0.537115	-0.885311	0.002645	0.002466	-0.016488	-0.764160	0.145996	-0.329346	0.670900	-0.117701	-0.728558	-0.072407
23360		9.750479	-0.557826	-0.857462	0.001378	0.005239	-0.014884	-0.762451	0.142090	-0.340576	0.670863	-0.117679	-0.728597	-0.072391
23361		9.766285	-0.578249	-0.874752	0.005553	0.005397	-0.011744	-0.759033	0.148682	-0.327637	0.670948	-0.117745	-0.728498	-0.072499
23362		9.765723	-0.557620	-0.886545	0.010735	0.002035	-0.014036	-0.765137	0.141113	-0.333008	0.670904	-0.117685	-0.728562	-0.072351
23363		9.768524	-0.524000	-0.881457	0.008265	0.001248	-0.013779	-0.760986	0.144287	-0.332031	0.670873	-0.117562	-0.728616	-0.072303
23364		9.758451	-0.539159	-0.875947	0.005224	0.004181	-0.015963	-0.766602	0.146973	-0.327393	0.670872	-0.117504	-0.728627	-0.072294
23365		9.763297	-0.597155	-0.885265	0.005444	0.005254	-0.013463	-0.758789	0.148193	-0.333740	0.670813	-0.117470	-0.728694	-0.072217
23366		9.754608	-0.574618	-0.885919	0.012651	0.003600	-0.010403	-0.750732	0.147217	-0.334229	0.670848	-0.117525	-0.728661	-0.072141
23367		9.753288	-0.507825	-0.855421	0.013417	0.002786	-0.009525	-0.765137	0.145752	-0.337646	0.670922	-0.117551	-0.728600	-0.072025
23368		9.751641	-0.516762	-0.862243	0.007895	0.004532	-0.010985	-0.763184	0.145508	-0.337646	0.670959	-0.117641	-0.728547	-0.072066
23369		9.755977	-0.548058	-0.886170	0.006030	0.003433	-0.014224	-0.760254	0.150146	-0.330566	0.670990	-0.117708	-0.728500	-0.072141
23370		9.746282	-0.553609	-0.882204	0.006712	0.002872	-0.015533	-0.760498	0.141357	-0.328125	0.670965	-0.117753	-0.728519	-0.072112
23371		9.739263	-0.565573	-0.858015	0.007251	-0.000523	-0.014417	-0.754883	0.156006	-0.334717	0.670896	-0.117554	-0.728628	-0.071974
23372		9.767201	-0.556512	-0.872958	0.011104	0.004117	-0.009893	-0.764160	0.155273	-0.333740	0.670954	-0.117817	-0.728534	-0.071952
23373		9.754766	-0.556814	-0.889349	0.009474	0.004486	-0.011103	-0.756104	0.147217	-0.340088	0.670958	-0.118053	-0.728492	-0.071961
23374		9.754143	-0.536428	-0.901073	0.006128	0.003969	-0.012974	-0.760498	0.151855	-0.328857	0.671048	-0.118197	-0.728376	-0.072060
23375		9.737797	-0.538944	-0.876703	0.000492	0.002160	-0.010216	-0.756104	0.147949	-0.334961	0.670996	-0.118336	-0.728406	-0.072012
23376		9.746693	-0.566087	-0.872440	0.005438	0.003026	-0.008930	-0.761230	0.146484	-0.333740	0.671035	-0.118448	-0.728354	-0.071992
23377		9.760158	-0.571172	-0.912472	0.007701	0.003529	-0.012622	-0.758545	0.150635	-0.336426	0.671045	-0.118453	-0.728347	-0.071965
23378		9.763430	-0.564891	-0.892655	0.005921	0.002175	-0.013674	-0.763672	0.150146	-0.340576	0.671070	-0.118605	-0.728293	-0.072025
23379		9.757972	-0.575084	-0.858761	0.000948	0.002022	-0.016757	-0.758301	0.155762	-0.329102	0.671092	-0.118837	-0.728212	-0.072248
23380		9.752530	-0.614750	-0.879901	0.006786	0.003014	-0.013812	-0.751221	0.150635	-0.336426	0.671065	-0.118957	-0.728225	-0.072181
23381		9.738953	-0.606283	-0.907654	0.014078	0.004138	-0.014030	-0.758789	0.147705	-0.336426	0.671153	-0.119020	-0.728136	-0.072152
23382		9.763637	-0.580430	-0.884071	0.012644	0.004795	-0.011804	-0.762695	0.153564	-0.331543	0.671212	-0.119054	-0.728079	-0.072122
23383		9.775612	-0.557587	-0.878284	0.010892	0.002724	-0.011058	-0.763672	0.149658	-0.335938	0.671188	-0.119154	-0.728093	-0.072037
23384		9.768281	-0.533402	-0.869833	0.010813	0.003366	-0.013714	-0.762695	0.155029	-0.332764	0.671201	-0.119226	-0.728068	-0.072052
23385		9.747188	-0.549859	-0.872154	0.008324	0.003285	-0.015256	-0.758545	0.151855	-0.335449	0.671183	-0.119360	-0.728061	-0.072059
23386		9.755592	-0.548657	-0.882331	0.005902	0.002170	-0.013672	-0.759521	0.150391	-0.336670	0.671196	-0.119505	-0.728022	-0.072103
23387		9.754334	-0.546993	-0.891227	0.009824	0.001988	-0.014823	-0.757080	0.152588	-0.341309	0.671216	-0.119598	-0.727984	-0.072142
23388		9.743866	-0.581789	-0.881949	0.004698	0.005801	-0.012157	-0.765137	0.145508	-0.336426	0.671309	-0.119899	-0.727831	-0.072321
23389		9.742648	-0.580483	-0.890322	-0.000341	0.003275	-0.012425	-0.766357	0.149902	-0.339355	0.671301	-0.119987	-0.727814	-0.072419
23390		9.757300	-0.563246	-0.864223	0.006638	0.002075	-0.014588	-0.762939	0.156738	-0.335449	0.671303	-0.120163	-0.727769	-0.072565
23391		9.748907	-0.576617	-0.849023	0.011458	0.003915	-0.017285	-0.757568	0.154053	-0.333252	0.671310	-0.120324	-0.727730	-0.072620
23392		9.753152	-0.570413	-0.889213	0.009882	0.002850	-0.014901	-0.758545	0.144531	-0.339844	0.671318	-0.120396	-0.727715	-0.072580
23393		9.743519	-0.576041	-0.885326	0.004256	0.002529	-0.014882	-0.762207	0.145752	-0.331787	0.671361	-0.120471	-0.727649	-0.072715
23394		9.766081	-0.570161	-0.868309	0.007513	0.003700	-0.015664	-0.761719	0.142334	-0.336182	0.671347	-0.120345	-0.727691	-0.072638
23395		9.754745	-0.586983	-0.871945	0.009944	0.003712	-0.014980	-0.759766	0.152588	-0.336182	0.671370	-0.120240	-0.727688	-0.072627
23396		9.745410	-0.582922	-0.869398	0.005194	0.004621	-0.015570	-0.761230	0.145020	-0.329346	0.671397	-0.120381	-0.727632	-0.072704
23397		9.744228	-0.581025	-0.877903	0.005895	0.002954	-0.014608	-0.754883	0.153076	-0.333496	0.671362	-0.120209	-0.727707	-0.072566
23398		9.764297	-0.559455	-0.883134	0.009261	0.004668	-0.014142	-0.760742	0.143555	-0.333252	0.671399	-0.120267	-0.727668	-0.072516
23399		9.764579	-0.556067	-0.882153	0.006623	0.002465	-0.015054	-0.756592	0.150146	-0.336914	0.671390	-0.120146	-0.727702	-0.072463
23400		9.741892	-0.583662	-0.892449	0.003453	0.002938	-0.015292	-0.771729	0.147217	-0.330322	0.671419	-0.120257	-0.727649	-0.072540
23401		9.735273	-0.585450	-0.869606	0.005619	0.002187	-0.018430	-0.757812	0.154785	-0.335449	0.671330	-0.120158	-0.727749	-0.072520
23402		9.773140	-0.565834	-0.887605	0.010524	0.001899	-0.015731	-0.764893	0.150146	-0.333008	0.671343	-0.120276	-0.727717	-0.072531
23403		9.745962	-0.558982	-0.872954	0.005913	0.004524	-0.016486	-0.759766	0.146484	-0.327881	0.671326	-0.120292	-0.727728	-0.072545
23404		9.736807	-0.545504	-0.872311	0.003587	0.002766	-0.012245	-0.765381	0.155273	-0.322998	0.671284	-0.120174	-0.727802	-0.072392
23405		9.757372	-0.560893	-0.861681	0.004138	0.000876	-0.013858	-0.764160	0.150391	-0.325928	0.671161	-0.120149	-0.727936	-0.072223
23406		9.754657	-0.560651	-0.880430	0.009537	0.000517	-0.016838	-0.758789	0.146973	-0.326904	0.671070	-0.120015	-0.728057	-0.072073
23407		9.771502	-0.551243	-0.903500	0.007246	0.002613	-0.018155	-0.761230	0.145020	-0.338867	0.671027	-0.119829	-0.728140	-0.071946
23408		9.741404	-0.613277	-0.886499	0.001826	0.002184	-0.014235	-0.762695	0.151123	-0.332520	0.671050	-0.119897	-0.728097	-0.072051
23409		9.752973	-0.599080	-0.879728	0.001747	0.000931	-0.013684	-0.764160	0.157715	-0.325928	0.671008	-0.119998	-0.728117	-0.072080
23410		9.753632	-0.576308	-0.882640	0.015277	0.002579	-0.017014	-0.759033	0.141602	-0.321533	0.670942	-0.119985	-0.728193	-0.071947
23411		9.752694	-0.564449	-0.892722	0.017009	0.005049	-0.018231	-0.763672	0.150391	-0.330566	0.670902	-0.119525	-0.728337	-0.071620
23412		9.761013	-0.572193	-0.900946	0.004825	0.001486	-0.016570	-0.760986	0.149414	-0.328613	0.670851	-0.119543	-0.728380	-0.071625
23413		9.762233	-0.595296	-0.885432	0.002651	0.004515	-0.017113	-0.755615	0.152344	-0.335449	0.670823	-0.119519	-0.728411	-0.071616
23414		9.748194	-0.556614	-0.858152	0.005926	0.004595	-0.015626	-0.755615	0.154785	-0.332275	0.670871	-0.119627	-0.728344	-0.071666
23415		9.737031	-0.573171	-0.861854	0.004831	0.002271	-0.017509	-0.763916	0.152344	-0.324707	0.670870	-0.119736	-0.728323	-0.071708
23416		9.765036	-0.561958	-0.876635	0.003890	0.002846	-0.020967	-0.763916	0.145264	-0.332275	0.670784	-0.119676	-0.728414	-0.071686
23417		9.745431	-0.594396	-0.865992	0.005485	0.003595	-0.022022	-0.764893	0.151367	-0.338379	0.670765	-0.119551	-0.728448	-0.071727
23418		9.763502	-0.601379	-0.875841	0.009306	0.001395	-0.021674	-0.765625	0.142578	-0.329834	0.670767	-0.119617	-0.728422	-0.071863
23419		9.757418	-0.573565	-0.858298	0.012698	0.002416	-0.019409	-0.765381	0.146729	-0.322754	0.670728	-0.119376	-0.728507	-0.071768
23420		9.775892	-0.552688	-0.873371	0.012792	0.002176	-0.017222	-0.765137	0.142334	-0.333740	0.670639	-0.119160	-0.728642	-0.071588
23421		9.758459	-0.536726	-0.862114	0.009670	0.002319	-0.016134	-0.762695	0.158203	-0.333984	0.670629	-0.119029	-0.728677	-0.071548
23422		9.755840	-0.536160	-0.880408	0.007187	0.002607	-0.018149	-0.762451	0.142334	-0.331299	0.670618	-0.119235	-0.728642	-0.071657
23423		9.743731	-0.525257	-0.899016	0.001640	0.003113	-0.018219	-0.764648	0.148682	-0.334717	0.670596	-0.119119	-0.728680	-0.071669
23424		9.756039	-0.555874	-0.873912	-0.003470	0.000789	-0.020673	-0.761719	0.156982	-0.330811	0.670554	-0.119207	-0.728688	-0.071843
23425		9.756084	-0.570019	-0.870184	-0.001037	0.001210	-0.020456	-0.758789	0.142822	-0.331543	0.670500	-0.119397	-0.728691	-0.071994
23426		9.746365	-0.593406	-0.863258	0.005241	0.000615	-0.021301	-0.766846	0.144775	-0.334717	0.670476	-0.119234	-0.728740	-0.071991
23427		9.752281	-0.574864	-0.896089	0.012670	0.003211	-0.020345	-0.759277	0.147949	-0.331787	0.670476	-0.119115	-0.728759	-0.072001
23428		9.773490	-0.559708	-0.890420	0.004666	0.001719	-0.018751	-0.759766	0.148682	-0.331299	0.670460	-0.119098	-0.728773	-0.072028
23429		9.755819	-0.562255	-0.875773	0.005463	0.002488	-0.019748	-0.751221	0.143066	-0.330811	0.670446	-0.119077	-0.728787	-0.072060
23430		9.749498	-0.543871	-0.856403	0.010108	0.002635	-0.022277	-0.759521	0.157715	-0.330322	0.670473	-0.118856	-0.728805	-0.071993
23431		9.747057	-0.532486	-0.876679	0.006748	0.000503	-0.022270	-0.762939	0.142822	-0.333984	0.670429	-0.118984	-0.728815	-0.072088
23432		9.771829	-0.552983	-0.905504	0.003801	0.001654	-0.019550	-0.762451	0.149658	-0.324707	0.670415	-0.118901	-0.728837	-0.072135
23433		9.763732	-0.565876	-0.890275	0.009745	0.004054	-0.016295	-0.759033	0.146729	-0.330811	0.670369	-0.118838	-0.728898	-0.072046
23434		9.725663	-0.531987	-0.889041	0.009676	0.002801	-0.015741	-0.757812	0.149414	-0.332031	0.670370	-0.118782	-0.728912	-0.071990
23435		9.741400	-0.511946	-0.853632	0.007854	0.000952	-0.017177	-0.760742	0.149170	-0.333496	0.670361	-0.118796	-0.728917	-0.071991
23436		9.777262	-0.531602	-0.874448	-0.000294	0.000388	-0.019569	-0.766113	0.149902	-0.330566	0.670332	-0.118873	-0.728920	-0.072109
23437		9.774525	-0.549468	-0.889726	0.006833	0.000656	-0.020551	-0.762939	0.147217	-0.329102	0.670274	-0.118876	-0.728967	-0.072163
23438		9.760656	-0.578685	-0.911037	0.010282	0.002165	-0.017900	-0.763916	0.148438	-0.331055	0.670243	-0.118799	-0.729013	-0.072119
23439		9.744506	-0.570529	-0.888422	0.006493	0.003640	-0.016454	-0.762451	0.149414	-0.331055	0.670230	-0.118815	-0.729021	-0.072136
23440		9.736609	-0.555185	-0.878671	0.009528	0.000691	-0.015102	-0.762695	0.149658	-0.327881	0.670201	-0.118838	-0.729046	-0.072112
23441		9.736905	-0.551265	-0.877853	0.015937	0.004578	-0.019404	-0.760254	0.156006	-0.334717	0.670191	-0.118737	-0.729078	-0.072039
23442		9.790815	-0.573335	-0.910178	0.009415	0.001707	-0.018228	-0.760254	0.153076	-0.328369	0.670197	-0.118903	-0.729037	-0.072134
23443		9.765018	-0.564592	-0.886028	0.011234	0.005124	-0.018676	-0.763672	0.143555	-0.326904	0.670196	-0.118917	-0.729036	-0.072122
23444		9.743363	-0.534312	-0.906336	0.011113	0.004184	-0.019450	-0.754883	0.154541	-0.333252	0.670171	-0.118717	-0.729101	-0.072029
23445		9.739602	-0.550975	-0.860610	0.005339	0.002782	-0.021072	-0.760498	0.146484	-0.332764	0.670189	-0.118842	-0.729053	-0.072147
23446		9.764680	-0.552479	-0.892367	0.007936	0.003843	-0.018752	-0.763184	0.147217	-0.335205	0.670203	-0.118803	-0.729044	-0.072166
23447		9.744286	-0.549319	-0.897985	0.008780	0.004301	-0.018421	-0.756836	0.145752	-0.333252	0.670228	-0.118807	-0.729015	-0.072219
23448		9.751460	-0.548723	-0.917382	0.006230	0.002926	-0.019412	-0.763428	0.144775	-0.320557	0.670248	-0.118763	-0.729002	-0.072247
23449		9.747790	-0.546191	-0.875105	0.005553	0.005440	-0.020466	-0.755371	0.145264	-0.336914	0.670185	-0.118559	-0.729103	-0.072148
23450		9.751013	-0.519275	-0.858255	0.016170	0.005376	-0.015580	-0.762207	0.146729	-0.331787	0.670274	-0.118492	-0.729037	-0.072089
23451		9.780323	-0.497487	-0.864816	0.015200	0.002805	-0.015270	-0.755371	0.146484	-0.327881	0.670279	-0.118428	-0.729051	-0.072007
23452		9.748781	-0.486759	-0.880868	0.001411	0.001345	-0.018046	-0.762207	0.141602	-0.331055	0.670248	-0.118400	-0.729084	-0.072008
23453		9.744807	-0.535807	-0.899537	-0.000678	0.004901	-0.017359	-0.759521	0.142822	-0.333740	0.670246	-0.118338	-0.729092	-0.072041
23454		9.768649	-0.555791	-0.867303	0.002539	0.003765	-0.015312	-0.760742	0.144043	-0.328369	0.670267	-0.118316	-0.729076	-0.072056
23455		9.757851	-0.534729	-0.878211	0.004965	0.002641	-0.013209	-0.765137	0.156494	-0.333252	0.670243	-0.118272	-0.729112	-0.071993
23456		9.744261	-0.545941	-0.902580	0.003324	0.004535	-0.016310	-0.757568	0.143311	-0.337402	0.670238	-0.118509	-0.729063	-0.072137
23457		9.755676	-0.579140	-0.885853	0.006711	0.005984	-0.014517	-0.759766	0.145020	-0.330078	0.670315	-0.118496	-0.728994	-0.072145
23458		9.747678	-0.535610	-0.880915	0.009082	0.004001	-0.012329	-0.757324	0.158447	-0.333252	0.670323	-0.118453	-0.729001	-0.072057
23459		9.770027	-0.500894	-0.868949	0.003603	0.004933	-0.012022	-0.763916	0.149170	-0.334473	0.670352	-0.118748	-0.728918	-0.072156
23460		9.756474	-0.531721	-0.889564	-0.000579	0.003491	-0.013759	-0.758301	0.147461	-0.333252	0.670349	-0.118899	-0.728885	-0.072258
23461		9.748535	-0.554682	-0.872418	0.003141	0.003121	-0.017468	-0.756592	0.146729	-0.342773	0.670359	-0.118929	-0.728866	-0.072313
23462		9.757085	-0.542906	-0.884455	0.004606	0.001769	-0.017881	-0.761475	0.149170	-0.329102	0.670422	-0.119025	-0.728779	-0.072450
23463		9.767144	-0.577399	-0.877881	0.003982	0.003191	-0.016666	-0.762695	0.145508	-0.339600	0.670396	-0.119047	-0.728797	-0.072464
23464		9.773039	-0.576034	-0.837046	0.005787	0.004664	-0.014761	-0.758789	0.153076	-0.327881	0.670449	-0.119115	-0.728730	-0.072543
23465		9.744240	-0.543469	-0.837044	0.016287	0.005255	-0.012525	-0.752441	0.150635	-0.335938	0.670464	-0.119122	-0.728727	-0.072419
23466		9.752582	-0.494619	-0.856161	0.013465	0.000346	-0.014033	-0.758301	0.147705	-0.329102	0.670499	-0.119178	-0.728689	-0.072387
23467		9.759753	-0.514276	-0.872588	-0.000030	0.001199	-0.014888	-0.761475	0.157959	-0.333984	0.670463	-0.119212	-0.728716	-0.072394
23468		9.771128	-0.528228	-0.860253	0.008767	0.002822	-0.015670	-0.760010	0.156738	-0.331787	0.670465	-0.119418	-0.728672	-0.072482
23469		9.768666	-0.537587	-0.876885	0.010062	0.000450	-0.017711	-0.765625	0.143555	-0.333984	0.670439	-0.119545	-0.728670	-0.072533
23470		9.748430	-0.583297	-0.874166	0.004029	0.001314	-0.013451	-0.760742	0.151123	-0.338867	0.670417	-0.119547	-0.728689	-0.072540
23471		9.745787	-0.564744	-0.896337	0.011249	0.001789	-0.012707	-0.768555	0.157227	-0.335938	0.670450	-0.119693	-0.728629	-0.072593
23472		9.737653	-0.550298	-0.886802	0.015930	0.000878	-0.012954	-0.762939	0.147461	-0.335693	0.670435	-0.119883	-0.728608	-0.072632
23473		9.765423	-0.540521	-0.901602	0.009834	0.002829	-0.010967	-0.764648	0.148193	-0.332520	0.670453	-0.119953	-0.728581	-0.072622
23474		9.775386	-0.547477	-0.900291	0.008075	0.002990	-0.013899	-0.753174	0.158691	-0.333252	0.670445	-0.119977	-0.728586	-0.072611
23475		9.746646	-0.543775	-0.895228	0.011341	0.003900	-0.013349	-0.754395	0.144287	-0.331055	0.670485	-0.120165	-0.728515	-0.072634
23476		9.739983	-0.536707	-0.874018	0.009536	0.002030	-0.014781	-0.756592	0.152832	-0.333008	0.670498	-0.120054	-0.728532	-0.072530
23477		9.756852	-0.537083	-0.894891	0.004783	0.004024	-0.016807	-0.760010	0.148438	-0.334961	0.670518	-0.120155	-0.728490	-0.072598
23478		9.767205	-0.581260	-0.886025	-0.000742	0.003688	-0.015949	-0.758057	0.155029	-0.328613	0.670527	-0.120265	-0.728452	-0.072714
23479		9.758070	-0.606177	-0.878240	0.009580	0.002893	-0.014865	-0.760498	0.148682	-0.327148	0.670516	-0.120315	-0.728459	-0.072667
23480		9.770370	-0.551294	-0.868812	0.012838	0.004585	-0.015259	-0.761230	0.144287	-0.331299	0.670514	-0.120195	-0.728495	-0.072527
23481		9.760909	-0.538229	-0.868094	0.005795	0.004343	-0.013433	-0.755127	0.144775	-0.337402	0.670522	-0.120138	-0.728502	-0.072470
23482		9.761355	-0.554107	-0.863412	0.005626	0.002928	-0.014589	-0.748779	0.151367	-0.340088	0.670566	-0.120164	-0.728453	-0.072505
23483		9.747886	-0.555949	-0.889512	0.009612	0.004532	-0.015894	-0.754150	0.148926	-0.328613	0.670660	-0.120291	-0.728337	-0.072596
23484		9.760572	-0.548612	-0.871042	0.007762	0.001409	-0.016766	-0.757812	0.143799	-0.333008	0.670646	-0.120219	-0.728369	-0.072518
23485		9.771761	-0.533404	-0.864327	0.006970	0.001415	-0.016711	-0.757568	0.151855	-0.333008	0.670645	-0.120135	-0.728388	-0.072484
23486		9.748808	-0.554200	-0.885692	0.004092	0.003411	-0.014093	-0.761475	0.148682	-0.329346	0.670656	-0.120243	-0.728356	-0.072525
23487		9.757566	-0.572096	-0.892310	0.007830	-0.000064	-0.014020	-0.767090	0.147461	-0.331299	0.670611	-0.120218	-0.728408	-0.072454
23488		9.749402	-0.556986	-0.882736	0.007961	0.004074	-0.016169	-0.763184	0.145264	-0.339355	0.670596	-0.120185	-0.728429	-0.072441
23489		9.756655	-0.557128	-0.902173	0.007857	0.002352	-0.015995	-0.756592	0.142578	-0.332031	0.670620	-0.120223	-0.728393	-0.072515
23490		9.771764	-0.527357	-0.868552	0.004994	0.003180	-0.011962	-0.763916	0.151367	-0.336914	0.670636	-0.120161	-0.728397	-0.072434
23491		9.760103	-0.566253	-0.877899	-0.001435	0.003060	-0.013237	-0.761963	0.143066	-0.331299	0.670636	-0.120373	-0.728347	-0.072583
23492		9.728785	-0.575818	-0.890058	0.010379	0.003752	-0.015003	-0.761963	0.153320	-0.335693	0.670642	-0.120244	-0.728373	-0.072487
23493		9.738532	-0.552949	-0.894017	0.013338	0.004256	-0.018737	-0.755859	0.153320	-0.331299	0.670669	-0.120292	-0.728335	-0.072540
23494		9.777535	-0.549211	-0.898572	0.002150	0.001749	-0.017709	-0.762695	0.139648	-0.333496	0.670654	-0.120377	-0.728328	-0.072604
23495		9.759968	-0.552374	-0.883933	0.004560	0.002594	-0.017960	-0.761963	0.144287	-0.331787	0.670648	-0.120245	-0.728357	-0.072591
23496		9.745127	-0.552010	-0.849799	0.005667	0.005811	-0.016178	-0.759766	0.151367	-0.327637	0.670665	-0.120175	-0.728354	-0.072570
23497		9.730502	-0.571328	-0.812339	0.003030	-0.000894	-0.013600	-0.763428	0.149902	-0.333984	0.670602	-0.120223	-0.728408	-0.072537
23498		9.751526	-0.570080	-0.874976	0.006320	0.002058	-0.014553	-0.763428	0.148438	-0.335205	0.670591	-0.120292	-0.728403	-0.072569
23499		9.779292	-0.559536	-0.889751	0.009591	0.002207	-0.013057	-0.761475	0.142822	-0.327881	0.670596	-0.120336	-0.728392	-0.072563
23500		9.762547	-0.533249	-0.871369	0.008637	0.000794	-0.014156	-0.760010	0.143066	-0.333252	0.670558	-0.120189	-0.728465	-0.072426
23501		9.735727	-0.565596	-0.850018	0.002082	0.000881	-0.017620	-0.756836	0.147949	-0.337646	0.670539	-0.120136	-0.728489	-0.072446
23502		9.751824	-0.595874	-0.875122	0.007580	0.001627	-0.018946	-0.757812	0.141602	-0.333984	0.670564	-0.120148	-0.728458	-0.072508
23503		9.745801	-0.547553	-0.852418	0.014740	0.000898	-0.017634	-0.762939	0.150146	-0.331055	0.670575	-0.119970	-0.728487	-0.072404
23504		9.759891	-0.541856	-0.894464	0.005392	0.001890	-0.016211	-0.758057	0.147949	-0.329346	0.670548	-0.120005	-0.728504	-0.072425
23505		9.757007	-0.591545	-0.913021	-0.003329	0.001459	-0.015997	-0.766113	0.150391	-0.332275	0.670512	-0.120051	-0.728525	-0.072472
23506		9.763794	-0.568526	-0.866872	0.003117	0.003624	-0.016224	-0.755615	0.146973	-0.329590	0.670494	-0.120126	-0.728522	-0.072542
23507		9.734703	-0.545379	-0.865844	0.013320	0.001942	-0.015897	-0.758545	0.149902	-0.333496	0.670497	-0.120014	-0.728550	-0.072425
23508		9.747333	-0.531571	-0.918991	0.008254	0.003089	-0.021745	-0.754883	0.149658	-0.332275	0.670507	-0.119986	-0.728540	-0.072480
23509		9.758300	-0.574361	-0.910172	0.001062	0.001783	-0.021552	-0.757324	0.151123	-0.335938	0.670499	-0.120000	-0.728536	-0.072571
23510		9.761715	-0.584608	-0.886633	0.006776	0.004042	-0.020867	-0.763184	0.147217	-0.326416	0.670532	-0.120036	-0.728491	-0.072666
23511		9.762809	-0.549123	-0.881981	0.014560	0.001905	-0.020760	-0.759766	0.145264	-0.336670	0.670493	-0.119859	-0.728565	-0.072571
23512		9.775072	-0.521523	-0.867183	0.013965	0.004575	-0.020114	-0.750000	0.143555	-0.338379	0.670540	-0.119759	-0.728538	-0.072564
23513		9.746398	-0.516537	-0.862147	0.006661	0.002703	-0.021162	-0.763672	0.161621	-0.327881	0.670597	-0.119684	-0.728494	-0.072602
23514		9.734848	-0.534401	-0.875186	0.002712	0.003101	-0.021364	-0.763916	0.146973	-0.325195	0.670549	-0.119855	-0.728496	-0.072755
23515		9.768823	-0.546630	-0.915976	0.003343	0.001291	-0.022097	-0.759766	0.150146	-0.340332	0.670479	-0.119751	-0.728577	-0.072762
23516		9.761266	-0.558460	-0.900786	-0.000508	0.003021	-0.022003	-0.764404	0.145996	-0.339111	0.670504	-0.119878	-0.728511	-0.072980
23517		9.756146	-0.556895	-0.868280	0.002688	0.003488	-0.021835	-0.749756	0.143799	-0.333496	0.670519	-0.119914	-0.728474	-0.073140
23518		9.767939	-0.569471	-0.855514	0.002962	0.002668	-0.016990	-0.755127	0.152588	-0.333496	0.670550	-0.119870	-0.728454	-0.073133
23519		9.738140	-0.576773	-0.858413	0.007627	0.002187	-0.017698	-0.763672	0.144043	-0.338379	0.670562	-0.119930	-0.728429	-0.073173
23520		9.752914	-0.539869	-0.896437	0.013771	0.002782	-0.020788	-0.753662	0.148682	-0.335205	0.670587	-0.119845	-0.728417	-0.073198
23521		9.787000	-0.508288	-0.865707	0.012105	0.001062	-0.020502	-0.757080	0.152100	-0.320801	0.670607	-0.119798	-0.728407	-0.073203
23522		9.756719	-0.495491	-0.872687	0.011900	0.001190	-0.023544	-0.754883	0.140625	-0.334473	0.670545	-0.119631	-0.728500	-0.073112
23523		9.753641	-0.514962	-0.896750	0.009576	0.002051	-0.023471	-0.761963	0.147705	-0.327148	0.670564	-0.119450	-0.728513	-0.073102
23524		9.734600	-0.509567	-0.893813	0.002429	-0.000444	-0.021861	-0.761963	0.149414	-0.329590	0.670492	-0.119403	-0.728583	-0.073144
23525		9.782745	-0.535184	-0.904066	0.001860	0.001063	-0.019800	-0.765137	0.150879	-0.332031	0.670447	-0.119431	-0.728613	-0.073217
23526		9.755853	-0.547861	-0.886358	0.003609	0.001711	-0.017811	-0.760742	0.136719	-0.334229	0.670414	-0.119514	-0.728621	-0.073303
23527		9.738584	-0.511099	-0.869707	0.007726	0.004382	-0.017492	-0.757812	0.145996	-0.332031	0.670442	-0.119355	-0.728626	-0.073249
23528		9.729915	-0.485991	-0.862111	0.009088	0.000078	-0.017151	-0.759766	0.139404	-0.330566	0.670426	-0.119311	-0.728651	-0.073218
23529		9.772326	-0.500847	-0.913905	0.003459	0.001921	-0.019996	-0.766602	0.143311	-0.326660	0.670408	-0.119177	-0.728692	-0.073206
23530		9.790212	-0.528989	-0.929332	0.002833	0.000933	-0.016810	-0.760254	0.142578	-0.326416	0.670341	-0.119125	-0.728762	-0.073195
23531		9.766964	-0.526525	-0.884795	0.007580	0.004208	-0.019204	-0.752686	0.151611	-0.333252	0.670328	-0.118987	-0.728802	-0.073141
23532		9.748527	-0.541274	-0.877417	0.004363	0.002094	-0.018336	-0.761230	0.140137	-0.333984	0.670341	-0.119062	-0.728771	-0.073209
23533		9.727510	-0.559811	-0.889192	0.004270	0.002780	-0.020139	-0.755127	0.148682	-0.338135	0.670344	-0.118964	-0.728782	-0.073231
23534		9.756583	-0.545489	-0.894123	0.015424	0.004225	-0.019740	-0.762451	0.144775	-0.324219	0.670411	-0.118923	-0.728728	-0.073228
23535		9.765946	-0.562121	-0.899863	0.013073	0.003832	-0.019105	-0.756836	0.146729	-0.331543	0.670383	-0.118769	-0.728787	-0.073136
23536		9.746620	-0.548443	-0.898095	0.010788	0.003527	-0.017615	-0.757812	0.140381	-0.333008	0.670402	-0.118720	-0.728782	-0.073103
23537		9.771781	-0.505748	-0.857925	0.011700	0.005725	-0.017466	-0.757324	0.140381	-0.329102	0.670449	-0.118577	-0.728770	-0.073025
23538		9.743384	-0.471524	-0.848902	0.014941	0.004662	-0.015403	-0.760498	0.139648	-0.335938	0.670475	-0.118404	-0.728789	-0.072873
23539		9.742451	-0.464242	-0.928684	0.015395	0.004223	-0.019737	-0.753906	0.145020	-0.324219	0.670518	-0.118223	-0.728787	-0.072796
23540		9.764731	-0.495846	-0.912913	0.007486	0.003722	-0.019586	-0.754395	0.151855	-0.338867	0.670502	-0.118124	-0.728821	-0.072756
23541		9.778931	-0.535611	-0.884576	-0.000801	0.003362	-0.013771	-0.757080	0.143066	-0.335205	0.670544	-0.118321	-0.728739	-0.072868
23542		9.750833	-0.551626	-0.875935	-0.000790	0.002976	-0.013298	-0.760498	0.148926	-0.337158	0.670561	-0.118377	-0.728712	-0.072896
23543		9.742003	-0.527407	-0.868216	0.009466	0.003490	-0.013607	-0.765137	0.146729	-0.331543	0.670595	-0.118446	-0.728669	-0.072899
23544		9.748709	-0.508739	-0.891484	0.015495	0.002774	-0.016984	-0.763428	0.144531	-0.341553	0.670589	-0.118382	-0.728691	-0.072843
23545		9.768321	-0.504908	-0.893362	0.003797	0.002427	-0.014856	-0.756836	0.150146	-0.334229	0.670618	-0.118455	-0.728646	-0.072907
23546		9.767443	-0.543614	-0.903678	-0.001611	0.003738	-0.014192	-0.761963	0.139404	-0.336426	0.670632	-0.118606	-0.728599	-0.073000
23547		9.758425	-0.549439	-0.899423	-0.000204	0.004339	-0.016958	-0.758301	0.141113	-0.337646	0.670651	-0.118587	-0.728579	-0.073051
23548		9.752167	-0.519998	-0.872650	0.006622	0.003245	-0.019913	-0.767090	0.152344	-0.331543	0.670683	-0.118508	-0.728561	-0.073071
23549		9.754479	-0.532405	-0.858495	0.002658	0.002364	-0.019556	-0.763428	0.138916	-0.326904	0.670644	-0.118610	-0.728568	-0.073196
23550		9.769293	-0.575947	-0.899940	0.008279	0.002571	-0.018215	-0.758789	0.148438	-0.330078	0.670609	-0.118454	-0.728632	-0.073124
23551		9.751650	-0.539706	-0.883385	0.014867	0.003436	-0.014831	-0.760010	0.146973	-0.338135	0.670620	-0.118420	-0.728636	-0.073042
23552		9.773156	-0.482246	-0.866748	0.009183	0.001119	-0.015516	-0.759277	0.148193	-0.332764	0.670635	-0.118451	-0.728616	-0.073048
23553		9.752920	-0.449494	-0.869509	0.004915	0.002666	-0.021045	-0.764893	0.146484	-0.332275	0.670630	-0.118455	-0.728614	-0.073121
23554		9.759005	-0.481236	-0.902087	0.008130	0.002389	-0.019926	-0.759766	0.142334	-0.330566	0.670610	-0.118428	-0.728632	-0.073157
23555		9.768004	-0.518907	-0.913816	0.009007	0.001712	-0.018175	-0.758545	0.147461	-0.330566	0.670596	-0.118333	-0.728665	-0.073115
23556		9.766206	-0.497560	-0.927024	-0.004399	-0.000096	-0.017093	-0.758789	0.145508	-0.335205	0.670547	-0.118434	-0.728683	-0.073219
23557		9.756263	-0.489124	-0.855919	-0.005000	0.002185	-0.015985	-0.759766	0.146240	-0.327148	0.670541	-0.118545	-0.728659	-0.073333
23558		9.758940	-0.511980	-0.840192	0.007561	0.000254	-0.015317	-0.759033	0.146240	-0.332031	0.670497	-0.118527	-0.728707	-0.073290
23559		9.752891	-0.518509	-0.887227	0.016218	0.001176	-0.015989	-0.752197	0.148682	-0.336914	0.670498	-0.118454	-0.728727	-0.073200
23560		9.758628	-0.511431	-0.918475	0.010008	0.001220	-0.014711	-0.760498	0.145020	-0.322998	0.670531	-0.118492	-0.728692	-0.073181
23561		9.770146	-0.546488	-0.911465	0.003950	0.001059	-0.011246	-0.758545	0.155518	-0.330811	0.670473	-0.118504	-0.728751	-0.073108
23562		9.764437	-0.537298	-0.881354	0.001278	0.001835	-0.015934	-0.763916	0.145996	-0.333252	0.670450	-0.118680	-0.728732	-0.073221
23563		9.736511	-0.552724	-0.873040	0.012015	0.000788	-0.019148	-0.766357	0.144775	-0.327393	0.670433	-0.118624	-0.728758	-0.073213
23564		9.744837	-0.540179	-0.885300	0.018026	0.001721	-0.023559	-0.761719	0.141113	-0.328857	0.670396	-0.118433	-0.728829	-0.073152
23565		9.751099	-0.541393	-0.914345	0.010587	0.002200	-0.017896	-0.760498	0.147949	-0.331543	0.670379	-0.118307	-0.728872	-0.073080
23566		9.785808	-0.538573	-0.877702	0.006152	0.002524	-0.014157	-0.766113	0.142822	-0.330078	0.670374	-0.118363	-0.728867	-0.073087
23567		9.755763	-0.507013	-0.878595	0.009396	0.006378	-0.015212	-0.764404	0.139648	-0.334961	0.670389	-0.118308	-0.728867	-0.073043
23568		9.745614	-0.514991	-0.883296	0.013041	0.004417	-0.017857	-0.769287	0.141602	-0.334961	0.670417	-0.118175	-0.728869	-0.072979
23569		9.743794	-0.493561	-0.895926	0.015036	0.001106	-0.020685	-0.764160	0.143311	-0.338867	0.670401	-0.118042	-0.728909	-0.072945
23570		9.760966	-0.492832	-0.916733	0.013713	0.003472	-0.018672	-0.762939	0.147217	-0.330566	0.670437	-0.117970	-0.728889	-0.072929
23571		9.762477	-0.486933	-0.906384	0.003768	0.002881	-0.014473	-0.761475	0.135986	-0.333740	0.670420	-0.118037	-0.728891	-0.072958
23572		9.775309	-0.488739	-0.886101	0.002951	0.002013	-0.014327	-0.760498	0.145752	-0.327637	0.670417	-0.117969	-0.728909	-0.072914
23573		9.757134	-0.504502	-0.878660	0.009121	0.003996	-0.017119	-0.760986	0.146240	-0.333984	0.670410	-0.117930	-0.728924	-0.072889
23574		9.754032	-0.485806	-0.900562	0.017052	0.003397	-0.015838	-0.760010	0.145264	-0.338135	0.670437	-0.117869	-0.728917	-0.072811
23575		9.752877	-0.453931	-0.905700	0.005460	0.003077	-0.012866	-0.756592	0.140869	-0.334961	0.670468	-0.117936	-0.728876	-0.072821
23576		9.764649	-0.488592	-0.898266	-0.006471	0.002296	-0.014174	-0.759033	0.150391	-0.330811	0.670469	-0.118013	-0.728856	-0.072893
23577		9.748394	-0.542836	-0.882581	-0.000735	0.005979	-0.013202	-0.762451	0.135742	-0.333984	0.670485	-0.118161	-0.728810	-0.072972
23578		9.749164	-0.549348	-0.879171	0.009498	0.004935	-0.012458	-0.764404	0.145020	-0.332764	0.670517	-0.118052	-0.728809	-0.072859
23579		9.756207	-0.489104	-0.891697	0.009375	0.001492	-0.012083	-0.763428	0.148438	-0.331299	0.670505	-0.118073	-0.728822	-0.072809
23580		9.757631	-0.535858	-0.890102	0.003123	0.005542	-0.013845	-0.758301	0.148438	-0.333740	0.670513	-0.118164	-0.728795	-0.072855
23581		9.749474	-0.531110	-0.877778	0.005773	0.006798	-0.010672	-0.762207	0.141846	-0.330566	0.670563	-0.118259	-0.728734	-0.072848
23582		9.749011	-0.488688	-0.874796	0.009029	0.005773	-0.008601	-0.761230	0.148193	-0.327393	0.670589	-0.118252	-0.728722	-0.072737
23583		9.767606	-0.518928	-0.889081	0.003324	0.002944	-0.009667	-0.761475	0.139160	-0.337891	0.670565	-0.118356	-0.728729	-0.072718
23584		9.768803	-0.535597	-0.884047	0.004878	0.004590	-0.010814	-0.761719	0.149414	-0.327637	0.670607	-0.118352	-0.728697	-0.072664
23585		9.750432	-0.521798	-0.872706	0.011096	0.005430	-0.012179	-0.758057	0.144043	-0.336426	0.670614	-0.118381	-0.728691	-0.072610
23586		9.756037	-0.536536	-0.908474	0.003934	0.004778	-0.012948	-0.767822	0.141357	-0.322510	0.670654	-0.118417	-0.728649	-0.072606
23587		9.767173	-0.531892	-0.898990	0.005196	0.005438	-0.007010	-0.762207	0.147949	-0.331543	0.670623	-0.118427	-0.728687	-0.072496
23588		9.759325	-0.486071	-0.876209	0.015238	0.003745	-0.008351	-0.767822	0.143555	-0.332275	0.670641	-0.118450	-0.728679	-0.072372
23589		9.731861	-0.461625	-0.856791	0.009538	0.000911	-0.009417	-0.759521	0.143311	-0.329102	0.670615	-0.118467	-0.728709	-0.072285
23590		9.748543	-0.505233	-0.888815	-0.000056	0.000518	-0.011363	-0.772217	0.138428	-0.334961	0.670576	-0.118518	-0.728738	-0.072268
23591		9.778571	-0.541914	-0.893681	0.000733	0.001771	-0.011984	-0.766113	0.149170	-0.332520	0.670546	-0.118530	-0.728764	-0.072262
23592		9.770814	-0.546751	-0.880343	0.006254	0.002316	-0.011965	-0.758789	0.157715	-0.325928	0.670530	-0.118618	-0.728764	-0.072268
23593		9.740603	-0.567804	-0.890884	0.002197	0.000836	-0.012849	-0.760010	0.149170	-0.338379	0.670479	-0.118815	-0.728770	-0.072351
23594		9.745956	-0.587287	-0.855961	0.000064	0.002330	-0.010696	-0.762207	0.146240	-0.338623	0.670496	-0.118972	-0.728724	-0.072405
23595		9.754462	-0.607753	-0.871593	0.014083	0.000789	-0.011437	-0.765381	0.143555	-0.339111	0.670515	-0.118971	-0.728715	-0.072318
23596		9.739326	-0.573462	-0.906280	0.016341	0.002353	-0.013492	-0.758057	0.145508	-0.330811	0.670546	-0.118905	-0.728707	-0.072218
23597		9.767922	-0.581505	-0.916766	0.010934	0.002375	-0.012275	-0.765137	0.147949	-0.334717	0.670550	-0.118877	-0.728717	-0.072125
23598		9.760368	-0.565292	-0.897618	0.010252	0.004562	-0.012033	-0.761963	0.154297	-0.331787	0.670573	-0.118912	-0.728694	-0.072089
23599		9.753620	-0.516229	-0.865613	0.020285	0.002882	-0.013368	-0.760498	0.149658	-0.335449	0.670587	-0.118916	-0.728689	-0.072000
23600		9.750943	-0.507778	-0.885710	0.014602	0.002525	-0.015573	-0.759033	0.147461	-0.335205	0.670607	-0.118901	-0.728677	-0.071957
23601		9.771624	-0.522704	-0.883406	0.007497	0.002334	-0.015966	-0.762207	0.148193	-0.332520	0.670618	-0.118913	-0.728665	-0.071961
23602		9.781435	-0.540228	-0.889278	0.003845	0.003042	-0.012762	-0.767822	0.150879	-0.339111	0.670613	-0.118986	-0.728656	-0.071974
23603		9.752643	-0.538020	-0.884619	0.006967	0.003085	-0.012967	-0.753174	0.143066	-0.335205	0.670627	-0.119103	-0.728620	-0.072023
23604		9.743288	-0.514333	-0.877254	0.007860	0.002425	-0.011212	-0.762695	0.149902	-0.329346	0.670658	-0.119089	-0.728602	-0.071936
23605		9.770082	-0.536149	-0.904409	0.010894	0.004000	-0.013320	-0.760986	0.147461	-0.331787	0.670657	-0.119100	-0.728605	-0.071888
23606		9.759468	-0.535453	-0.911728	0.006084	0.002117	-0.013676	-0.762939	0.147461	-0.329834	0.670647	-0.119129	-0.728612	-0.071873
23607		9.754113	-0.535983	-0.879392	0.003949	0.002368	-0.010956	-0.753662	0.144775	-0.334473	0.670626	-0.119193	-0.728623	-0.071850
23608		9.761642	-0.537381	-0.898728	-0.001420	0.004486	-0.010409	-0.762207	0.148926	-0.337891	0.670657	-0.119278	-0.728580	-0.071853
23609		9.754421	-0.573117	-0.888301	-0.002323	0.002658	-0.011021	-0.755371	0.152100	-0.341797	0.670663	-0.119445	-0.728540	-0.071932
23610		9.765459	-0.589087	-0.884599	0.003925	0.003995	-0.012002	-0.763672	0.150879	-0.333252	0.670719	-0.119594	-0.728457	-0.071991
23611		9.756119	-0.565141	-0.876890	0.006151	0.004700	-0.013962	-0.764160	0.144287	-0.340332	0.670730	-0.119661	-0.728434	-0.072015
23612		9.756997	-0.550629	-0.868377	0.001719	0.004149	-0.010138	-0.763428	0.148193	-0.332031	0.670762	-0.119762	-0.728386	-0.072038
23613		9.776021	-0.537815	-0.872032	0.003092	0.003504	-0.012330	-0.761719	0.149902	-0.331055	0.670755	-0.119830	-0.728380	-0.072045
23614		9.776236	-0.556108	-0.876351	0.005480	0.004018	-0.012104	-0.761230	0.156494	-0.326660	0.670757	-0.119889	-0.728370	-0.072032
23615		9.748018	-0.563834	-0.869476	0.007866	0.003290	-0.011305	-0.766846	0.151855	-0.334961	0.670739	-0.119988	-0.728373	-0.072012
23616		9.752670	-0.559872	-0.909759	0.007013	0.003182	-0.012109	-0.755371	0.154053	-0.330078	0.670738	-0.120087	-0.728355	-0.072031
23617		9.765497	-0.583027	-0.894554	0.002211	0.002533	-0.013039	-0.756592	0.142090	-0.328369	0.670730	-0.120196	-0.728342	-0.072062
23618		9.768689	-0.564096	-0.867263	0.010959	0.004966	-0.012556	-0.759033	0.145508	-0.334717	0.670752	-0.120080	-0.728355	-0.071914
23619		9.749567	-0.541105	-0.858369	0.022778	0.002002	-0.010367	-0.760254	0.146973	-0.333252	0.670785	-0.119971	-0.728364	-0.071704
23620		9.746262	-0.524140	-0.880588	0.016460	0.003045	-0.011388	-0.767822	0.152100	-0.339600	0.670807	-0.119917	-0.728365	-0.071569
23621		9.752065	-0.539274	-0.917018	0.002961	0.000436	-0.012421	-0.763916	0.152344	-0.335205	0.670790	-0.120075	-0.728347	-0.071649
23622		9.781927	-0.566076	-0.923429	0.005415	0.003533	-0.012484	-0.759521	0.148193	-0.335449	0.670797	-0.120181	-0.728320	-0.071682
23623		9.769281	-0.583613	-0.875733	0.007705	0.004336	-0.013588	-0.752441	0.146729	-0.334961	0.670825	-0.120203	-0.728292	-0.071666
23624		9.751356	-0.579141	-0.862707	0.009335	0.003217	-0.012261	-0.760254	0.149902	-0.333740	0.670860	-0.120193	-0.728268	-0.071592
23625		9.736039	-0.545190	-0.897286	0.016374	0.002954	-0.012241	-0.757080	0.140381	-0.331787	0.670881	-0.120164	-0.728264	-0.071486
23626		9.782340	-0.545172	-0.921671	0.010086	0.002368	-0.012215	-0.760254	0.149658	-0.334961	0.670890	-0.120063	-0.728287	-0.071347
23627		9.765120	-0.592564	-0.917117	0.001433	0.004606	-0.013660	-0.761719	0.147949	-0.335205	0.670906	-0.120149	-0.728252	-0.071395
23628		9.752506	-0.610141	-0.869216	0.007880	0.005006	-0.011499	-0.754639	0.152588	-0.324707	0.670936	-0.120183	-0.728223	-0.071359
23629		9.757090	-0.564009	-0.898684	0.021865	0.003532	-0.012213	-0.760254	0.145996	-0.338379	0.670948	-0.120077	-0.728249	-0.071159
23630		9.746462	-0.542667	-0.900285	0.011722	0.005835	-0.012705	-0.764404	0.149414	-0.332275	0.671005	-0.120058	-0.728205	-0.071096
23631		9.746249	-0.551278	-0.906029	0.003026	0.006347	-0.013958	-0.755859	0.157715	-0.330811	0.671020	-0.120113	-0.728180	-0.071127
23632		9.773073	-0.597953	-0.866117	0.003077	0.004343	-0.012431	-0.758057	0.146240	-0.336182	0.671028	-0.120255	-0.728144	-0.071174
23633		9.760563	-0.547881	-0.874223	0.006284	0.005357	-0.011875	-0.760986	0.147461	-0.329102	0.671069	-0.120275	-0.728107	-0.071137
23634		9.750649	-0.557090	-0.878934	-0.002314	0.005581	-0.011799	-0.762207	0.148926	-0.341309	0.671067	-0.120346	-0.728096	-0.071156
23635		9.755109	-0.578224	-0.852342	-0.001608	0.005498	-0.012704	-0.761475	0.153564	-0.344238	0.671105	-0.120485	-0.728028	-0.071251
23636		9.753748	-0.588893	-0.868016	-0.000942	0.003694	-0.013414	-0.757324	0.151367	-0.326172	0.671138	-0.120680	-0.727951	-0.071390
23637		9.759660	-0.582298	-0.898799	0.004510	0.003796	-0.013764	-0.751221	0.148193	-0.334473	0.671124	-0.120690	-0.727966	-0.071357
23638		9.750285	-0.579374	-0.896386	0.000652	0.005442	-0.013709	-0.764160	0.152100	-0.331787	0.671163	-0.120736	-0.727921	-0.071372
23639		9.757020	-0.595869	-0.851320	-0.001767	0.001957	-0.013168	-0.760010	0.149414	-0.335449	0.671128	-0.120857	-0.727926	-0.071441
23640		9.754356	-0.587556	-0.871751	0.006848	0.002601	-0.013339	-0.760498	0.143066	-0.336670	0.671135	-0.120888	-0.727917	-0.071426
23641		9.749293	-0.562399	-0.905593	0.013026	0.003484	-0.014692	-0.762207	0.154297	-0.326904	0.671163	-0.120791	-0.727916	-0.071328
23642		9.752947	-0.552459	-0.876487	0.001273	0.001916	-0.014223	-0.761475	0.147949	-0.336914	0.671118	-0.120871	-0.727941	-0.071364
23643		9.755596	-0.565846	-0.862565	-0.004999	0.000072	-0.013628	-0.757812	0.143555	-0.328369	0.671086	-0.120993	-0.727941	-0.071454
23644		9.755352	-0.573864	-0.869723	0.004196	0.001303	-0.016512	-0.753662	0.153564	-0.327148	0.671056	-0.120910	-0.727988	-0.071402
23645		9.752250	-0.576387	-0.897622	0.001803	0.002018	-0.017315	-0.761963	0.155518	-0.327393	0.671029	-0.120940	-0.728004	-0.071440
23646		9.746622	-0.608826	-0.877945	-0.008039	0.002204	-0.013246	-0.762451	0.154785	-0.335205	0.670976	-0.121126	-0.728009	-0.071570
23647		9.776584	-0.613611	-0.879088	0.003527	0.001867	-0.015227	-0.762939	0.154297	-0.330566	0.670964	-0.121226	-0.727997	-0.071640
23648		9.749421	-0.597472	-0.857690	0.008396	0.004740	-0.014110	-0.764648	0.153809	-0.333008	0.670968	-0.121263	-0.727987	-0.071636
23649		9.750146	-0.582693	-0.849343	0.007678	0.002721	-0.012532	-0.761475	0.148682	-0.327148	0.670960	-0.121332	-0.727983	-0.071634
23650		9.755328	-0.566884	-0.882749	0.013735	-0.000306	-0.013870	-0.766602	0.153564	-0.328857	0.670920	-0.121246	-0.728047	-0.071507
23651		9.764092	-0.565355	-0.893292	0.008154	0.000241	-0.015329	-0.758057	0.148438	-0.335938	0.670869	-0.121267	-0.728090	-0.071503
23652		9.756902	-0.557600	-0.872775	0.004193	0.002159	-0.016609	-0.756592	0.158936	-0.332520	0.670874	-0.121274	-0.728083	-0.071525
23653		9.767367	-0.595699	-0.883840	0.001882	0.001728	-0.015983	-0.759521	0.152344	-0.334717	0.670859	-0.121405	-0.728066	-0.071625
23654		9.758895	-0.623384	-0.885235	0.007557	0.000902	-0.013191	-0.757568	0.148682	-0.324219	0.670851	-0.121455	-0.728065	-0.071613
23655		9.728734	-0.602553	-0.885121	0.015345	0.003173	-0.014361	-0.759277	0.152588	-0.332764	0.670844	-0.121325	-0.728109	-0.071457
23656		9.739523	-0.575487	-0.870827	0.014518	0.002676	-0.014690	-0.758789	0.155029	-0.330811	0.670856	-0.121294	-0.728110	-0.071389
23657		9.785532	-0.586021	-0.902614	0.012001	0.000705	-0.016053	-0.755371	0.151855	-0.332520	0.670837	-0.121290	-0.728130	-0.071362
23658		9.769779	-0.576708	-0.871147	0.014481	0.003056	-0.015167	-0.761475	0.146240	-0.326904	0.670859	-0.121241	-0.728126	-0.071285
23659		9.747465	-0.548130	-0.883630	0.011510	0.003185	-0.013258	-0.760498	0.148438	-0.332764	0.670849	-0.121148	-0.728162	-0.071159
23660		9.737255	-0.568464	-0.896331	0.003304	0.001169	-0.017316	-0.757568	0.147217	-0.333740	0.670827	-0.121143	-0.728182	-0.071183
23661		9.768710	-0.591575	-0.893091	0.006501	0.002199	-0.016758	-0.759521	0.156006	-0.338867	0.670829	-0.121103	-0.728189	-0.071163
23662		9.757125	-0.592562	-0.910050	0.011942	0.002325	-0.017105	-0.755615	0.150879	-0.327881	0.670851	-0.121140	-0.728160	-0.071192
23663		9.747363	-0.601049	-0.915346	0.009751	0.002470	-0.015246	-0.752441	0.155273	-0.329590	0.670844	-0.121097	-0.728179	-0.071131
23664		9.760645	-0.590347	-0.887340	0.005890	0.004099	-0.015198	-0.763428	0.147705	-0.324463	0.670856	-0.121142	-0.728159	-0.071146
23665		9.749438	-0.580220	-0.896642	0.012239	0.003586	-0.013784	-0.760010	0.150635	-0.333984	0.670838	-0.121049	-0.728202	-0.071027
23666		9.748993	-0.567780	-0.897585	0.012367	0.005027	-0.012651	-0.763184	0.145264	-0.324707	0.670873	-0.121038	-0.728179	-0.070957
23667		9.757103	-0.556867	-0.909566	0.005794	0.001035	-0.015276	-0.755615	0.148926	-0.330322	0.670822	-0.120964	-0.728244	-0.070889
23668		9.767439	-0.573783	-0.915277	0.004910	0.003394	-0.017236	-0.765869	0.152344	-0.329102	0.670823	-0.120936	-0.728248	-0.070887
23669		9.765780	-0.587340	-0.859485	0.004086	0.002894	-0.017564	-0.759033	0.161865	-0.336670	0.670793	-0.120961	-0.728267	-0.070942
23670		9.774327	-0.596816	-0.876688	0.004186	0.002616	-0.016232	-0.757080	0.149414	-0.334961	0.670798	-0.121126	-0.728222	-0.071074
23671		9.745599	-0.594390	-0.872290	0.004183	0.002615	-0.016232	-0.765869	0.150146	-0.332275	0.670805	-0.121140	-0.728212	-0.071093
23672		9.754508	-0.592485	-0.881865	0.009808	0.005532	-0.015167	-0.765381	0.148682	-0.337891	0.670821	-0.121120	-0.728202	-0.071068
23673		9.765559	-0.586656	-0.872517	0.006908	0.002799	-0.011628	-0.756104	0.148193	-0.333496	0.670832	-0.121166	-0.728187	-0.071043
23674		9.743535	-0.579295	-0.890501	0.003312	0.001632	-0.016937	-0.762451	0.155029	-0.331543	0.670825	-0.121158	-0.728194	-0.071055
23675		9.754595	-0.572590	-0.881552	0.010401	0.003630	-0.016725	-0.755127	0.146729	-0.329834	0.670826	-0.121169	-0.728190	-0.071067
23676		9.763816	-0.559026	-0.883802	0.015249	0.004433	-0.014933	-0.759766	0.155518	-0.334717	0.670854	-0.121044	-0.728198	-0.070930
23677		9.775309	-0.574320	-0.879620	0.002910	0.002975	-0.012714	-0.763184	0.154053	-0.331543	0.670857	-0.121170	-0.728169	-0.070986
23678		9.753734	-0.588784	-0.902501	0.002279	0.003158	-0.010956	-0.758545	0.145508	-0.334473	0.670845	-0.121291	-0.728157	-0.071015
23679		9.735228	-0.563758	-0.884581	0.013194	0.003922	-0.011265	-0.758301	0.150146	-0.330078	0.670878	-0.121225	-0.728150	-0.070878
23680		9.747093	-0.523151	-0.853806	0.005328	0.001897	-0.011428	-0.761719	0.152100	-0.332275	0.670865	-0.121259	-0.728161	-0.070833
23681		9.764664	-0.557183	-0.886929	-0.001514	0.001917	-0.009278	-0.759766	0.151611	-0.328613	0.670844	-0.121405	-0.728154	-0.070864
23682		9.766325	-0.618754	-0.901413	0.001720	0.003442	-0.008343	-0.760742	0.152344	-0.331787	0.670834	-0.121507	-0.728148	-0.070838
23683		9.755569	-0.586391	-0.896626	0.009313	0.001724	-0.010340	-0.760498	0.153809	-0.335938	0.670827	-0.121548	-0.728154	-0.070774
23684		9.728618	-0.592348	-0.880827	0.003547	0.001549	-0.013894	-0.759521	0.154785	-0.326416	0.670820	-0.121637	-0.728142	-0.070817
23685		9.760274	-0.615853	-0.877313	0.004301	0.002808	-0.014522	-0.764648	0.145508	-0.335449	0.670795	-0.121684	-0.728155	-0.070834
23686		9.735232	-0.628996	-0.849516	0.012466	0.003151	-0.010259	-0.753418	0.153320	-0.333984	0.670813	-0.121637	-0.728159	-0.070701
23687		9.749995	-0.613298	-0.884124	0.006774	0.000117	-0.012178	-0.760010	0.154785	-0.334473	0.670807	-0.121692	-0.728158	-0.070673
23688		9.768246	-0.623147	-0.902801	0.003518	0.002784	-0.014473	-0.770752	0.157227	-0.335205	0.670807	-0.121776	-0.728139	-0.070723
23689		9.753455	-0.611571	-0.861813	0.005812	0.003226	-0.015098	-0.757812	0.145264	-0.331055	0.670795	-0.121877	-0.728126	-0.070799
23690		9.745122	-0.606444	-0.850412	0.006682	0.002112	-0.013712	-0.754395	0.153076	-0.331787	0.670791	-0.121817	-0.728148	-0.070715
23691		9.739817	-0.626232	-0.904270	0.001874	0.001777	-0.015129	-0.752930	0.149414	-0.324707	0.670781	-0.121872	-0.728145	-0.070749
23692		9.751144	-0.653090	-0.907629	0.007538	0.003097	-0.013008	-0.760742	0.151611	-0.327148	0.670775	-0.121826	-0.728167	-0.070658
23693		9.764763	-0.619044	-0.865309	0.010555	0.002221	-0.013955	-0.761230	0.156494	-0.340088	0.670756	-0.121793	-0.728196	-0.070589
23694		9.744055	-0.597860	-0.866536	0.012771	0.002562	-0.015434	-0.757812	0.147705	-0.331787	0.670784	-0.121827	-0.728165	-0.070591
23695		9.762651	-0.595503	-0.877415	0.015071	0.003865	-0.016160	-0.758545	0.147705	-0.334229	0.670808	-0.121703	-0.728175	-0.070476
23696		9.750805	-0.563938	-0.881941	0.012646	0.001975	-0.016665	-0.766602	0.149414	-0.335205	0.670816	-0.121607	-0.728191	-0.070393
23697		9.748740	-0.576577	-0.907479	0.004920	0.001374	-0.015700	-0.753662	0.156250	-0.329346	0.670797	-0.121618	-0.728206	-0.070405
23698		9.752773	-0.587315	-0.883637	0.000391	0.002683	-0.014280	-0.768311	0.146484	-0.328857	0.670785	-0.121720	-0.728193	-0.070466
23699		9.752844	-0.595309	-0.890215	0.000938	0.002394	-0.016892	-0.756104	0.147949	-0.332031	0.670745	-0.121700	-0.728232	-0.070487
23700		9.745166	-0.610798	-0.883816	0.007956	0.003081	-0.016953	-0.760742	0.156738	-0.333252	0.670754	-0.121632	-0.728239	-0.070443
23701		9.765663	-0.615429	-0.883167	0.008137	0.002910	-0.014765	-0.756348	0.156494	-0.325928	0.670757	-0.121690	-0.728225	-0.070465
23702		9.760251	-0.615268	-0.850666	0.005143	0.002544	-0.013238	-0.756836	0.157715	-0.330078	0.670737	-0.121757	-0.728231	-0.070475
23703		9.754671	-0.602186	-0.891873	0.008847	0.004548	-0.015873	-0.755859	0.158203	-0.334473	0.670750	-0.121794	-0.728210	-0.070496
23704		9.754355	-0.576897	-0.885766	0.008574	0.003753	-0.018812	-0.757568	0.150635	-0.322510	0.670770	-0.121826	-0.728181	-0.070557
23705		9.756426	-0.591498	-0.880235	0.000127	0.004458	-0.017528	-0.764160	0.143555	-0.336182	0.670745	-0.121814	-0.728203	-0.070590
23706		9.759356	-0.615709	-0.872559	0.003252	0.003315	-0.017140	-0.765625	0.146484	-0.333008	0.670749	-0.121755	-0.728210	-0.070575
23707		9.766091	-0.629854	-0.908237	0.006432	0.004374	-0.016581	-0.759766	0.150879	-0.336670	0.670755	-0.121698	-0.728217	-0.070549
23708		9.767298	-0.635396	-0.905101	0.006374	0.002173	-0.016752	-0.756348	0.157715	-0.322998	0.670761	-0.121696	-0.728211	-0.070557
23709		9.751572	-0.613901	-0.866070	0.008762	0.006165	-0.016931	-0.759766	0.151367	-0.329590	0.670766	-0.121704	-0.728203	-0.070578
23710		9.738739	-0.573082	-0.872422	0.012842	0.004022	-0.014300	-0.764404	0.160400	-0.328613	0.670777	-0.121655	-0.728208	-0.070500
23711		9.762175	-0.582623	-0.850736	0.007944	0.000982	-0.016266	-0.760742	0.155518	-0.327148	0.670737	-0.121735	-0.728226	-0.070564
23712		9.765072	-0.582590	-0.910269	0.001679	0.002399	-0.016941	-0.765869	0.155762	-0.332275	0.670704	-0.121796	-0.728239	-0.070640
23713		9.759556	-0.593005	-0.885075	0.003735	0.002535	-0.020128	-0.758545	0.158691	-0.332275	0.670680	-0.121833	-0.728245	-0.070745
23714		9.753806	-0.626906	-0.874121	0.003925	0.003227	-0.018043	-0.755127	0.149170	-0.321045	0.670676	-0.121915	-0.728225	-0.070848
23715		9.736581	-0.643011	-0.866549	0.004064	0.001718	-0.016128	-0.754395	0.156006	-0.333008	0.670635	-0.121862	-0.728275	-0.070808
23716		9.735224	-0.608467	-0.863042	0.015688	0.003815	-0.017055	-0.759766	0.153076	-0.333984	0.670666	-0.121823	-0.728257	-0.070769
23717		9.741280	-0.601364	-0.893682	0.011657	0.003477	-0.018523	-0.763916	0.160645	-0.336670	0.670681	-0.121778	-0.728251	-0.070761
23718		9.782114	-0.613396	-0.893217	0.003865	0.001879	-0.018316	-0.755615	0.155762	-0.326904	0.670668	-0.121902	-0.728229	-0.070903
23719		9.764046	-0.619899	-0.887547	0.012508	0.005327	-0.017924	-0.763672	0.147705	-0.335205	0.670686	-0.121856	-0.728222	-0.070884
23720		9.742417	-0.577173	-0.883416	0.015745	0.003923	-0.016199	-0.761719	0.152588	-0.334229	0.670712	-0.121745	-0.728226	-0.070782
23721		9.735192	-0.557417	-0.855086	0.008584	0.003853	-0.017956	-0.759521	0.152344	-0.332275	0.670724	-0.121731	-0.728216	-0.070799
23722		9.755547	-0.596709	-0.875556	0.002356	0.004880	-0.018156	-0.764404	0.150391	-0.333984	0.670732	-0.121754	-0.728198	-0.070866
23723		9.755858	-0.604068	-0.881402	0.010787	0.005062	-0.019536	-0.762695	0.151367	-0.336182	0.670752	-0.121682	-0.728192	-0.070862
23724		9.766897	-0.596798	-0.872037	0.008647	0.003100	-0.016997	-0.765137	0.151123	-0.335205	0.670762	-0.121673	-0.728184	-0.070868
23725		9.748961	-0.580066	-0.852004	0.004857	0.004792	-0.016112	-0.759766	0.146484	-0.330322	0.670775	-0.121698	-0.728165	-0.070902
23726		9.747350	-0.569622	-0.862199	0.009074	0.006694	-0.012662	-0.762451	0.150879	-0.332275	0.670811	-0.121641	-0.728150	-0.070806
23727		9.745705	-0.559507	-0.872529	0.013549	0.003205	-0.014240	-0.760742	0.151123	-0.329834	0.670820	-0.121594	-0.728157	-0.070728
23728		9.753692	-0.548194	-0.884761	0.003990	0.001218	-0.016502	-0.760986	0.145996	-0.329834	0.670790	-0.121602	-0.728182	-0.070746
23729		9.744250	-0.568270	-0.896986	-0.003891	0.005886	-0.018361	-0.764404	0.151855	-0.335449	0.670790	-0.121597	-0.728176	-0.070813
23730		9.753314	-0.613471	-0.853941	-0.005330	0.003844	-0.016724	-0.759521	0.150146	-0.334717	0.670780	-0.121709	-0.728153	-0.070948
23731		9.761264	-0.625530	-0.880427	0.004178	0.001917	-0.014418	-0.761475	0.149170	-0.334473	0.670776	-0.121738	-0.728152	-0.070949
