// Start Time: Unknown
// Update Rate: 40.0Hz
// Filter Profile: human (46.1)
// Firmware Version: 4.6.0
PacketCounter	SampleTimeFine	Acc_X	Acc_Y	Acc_Z	Gyr_X	Gyr_Y	Gyr_Z	Mag_X	Mag_Y	Mag_Z	Quat_q0	Quat_q1	Quat_q2	Quat_q3
23208		5.473717	-0.242426	8.029505	0.000123	-0.003334	0.000249	-0.691162	0.351318	-0.311035	0.323317	-0.281672	-0.087415	-0.899158
23209		5.465746	-0.250256	8.036307	-0.000306	-0.004372	0.000183	-0.683594	0.352783	-0.307129	0.323313	-0.281723	-0.087429	-0.899143
23210		5.465762	-0.242753	8.029599	-0.000265	-0.005140	0.000450	-0.683350	0.352783	-0.308105	0.323316	-0.281784	-0.087441	-0.899121
23211		5.466005	-0.235292	8.022734	-0.000182	-0.006675	0.000985	-0.686035	0.354004	-0.308350	0.323319	-0.281860	-0.087462	-0.899094
23212		5.467944	-0.242986	8.028106	0.000123	-0.003333	0.000249	-0.678711	0.348633	-0.311523	0.323319	-0.281896	-0.087476	-0.899081
23213		5.467804	-0.248983	8.020049	0.001020	-0.004085	-0.000460	-0.677979	0.351318	-0.310547	0.323313	-0.281936	-0.087506	-0.899068
23214		5.460828	-0.250496	8.034344	-0.000349	-0.004634	-0.000640	-0.681152	0.352783	-0.309082	0.323300	-0.281987	-0.087522	-0.899055
23215		5.471179	-0.222890	8.035527	-0.000860	-0.003107	-0.000687	-0.678223	0.348145	-0.312012	0.323287	-0.282020	-0.087524	-0.899049
23216		5.480855	-0.242739	8.024625	-0.000692	-0.005146	0.000938	-0.680420	0.355957	-0.311523	0.323289	-0.282075	-0.087533	-0.899031
23217		5.464440	-0.231235	8.041489	-0.003045	-0.006499	-0.000731	-0.681885	0.354736	-0.312500	0.323264	-0.282152	-0.087527	-0.899016
23218		5.474554	-0.237370	8.031745	0.000675	-0.006657	0.000008	-0.687256	0.349854	-0.312988	0.323259	-0.282212	-0.087562	-0.898995
23219		5.465269	-0.243931	8.024594	-0.001975	-0.006199	0.001848	-0.685303	0.353271	-0.310303	0.323263	-0.282277	-0.087561	-0.898973
23220		5.460341	-0.233874	8.053812	-0.001119	-0.005153	0.001425	-0.680908	0.356689	-0.306152	0.323270	-0.282326	-0.087564	-0.898956
23221		5.456832	-0.251068	8.016849	-0.001247	-0.004910	-0.000486	-0.678467	0.351318	-0.310547	0.323257	-0.282366	-0.087567	-0.898947
23222		5.472282	-0.248065	8.049503	-0.002532	-0.006993	-0.000131	-0.680420	0.350586	-0.315918	0.323241	-0.282428	-0.087563	-0.898934
23223		5.470995	-0.239372	8.028808	-0.001079	-0.007978	0.000583	-0.689697	0.357178	-0.313232	0.323239	-0.282482	-0.087576	-0.898917
23224		5.473258	-0.247107	8.033961	0.000164	-0.005128	-0.000040	-0.678467	0.344482	-0.306396	0.323238	-0.282502	-0.087592	-0.898909
23225		5.464687	-0.247184	8.034505	0.000634	-0.005887	-0.000262	-0.679932	0.358643	-0.316162	0.323216	-0.282542	-0.087620	-0.898901
23226		5.475119	-0.246859	8.032701	-0.000516	-0.001562	-0.001710	-0.677002	0.346436	-0.309082	0.323220	-0.282510	-0.087611	-0.898911
23227		5.460032	-0.263735	8.060657	0.001535	-0.003549	0.000693	-0.687012	0.353271	-0.310547	0.323219	-0.282513	-0.087633	-0.898908
23228		5.449095	-0.248459	8.049422	0.000466	-0.002818	-0.001331	-0.679932	0.347656	-0.314697	0.323203	-0.282500	-0.087639	-0.898917
23229		5.478088	-0.226444	8.040327	-0.000778	-0.006697	-0.001263	-0.679443	0.353516	-0.312012	0.323178	-0.282512	-0.087649	-0.898922
23230		5.459057	-0.246661	8.033073	-0.000819	-0.004900	-0.000975	-0.681641	0.347900	-0.311035	0.323178	-0.282518	-0.087643	-0.898921
23231		5.469590	-0.246527	8.031188	-0.000346	-0.003600	-0.000087	-0.684570	0.345459	-0.306885	0.323157	-0.282508	-0.087645	-0.898931
23232		5.471233	-0.253953	8.036776	0.002434	-0.003270	0.000537	-0.678711	0.353271	-0.306885	0.323123	-0.282507	-0.087681	-0.898940
23233		5.452329	-0.240138	8.040554	0.002350	-0.001736	0.000003	-0.680664	0.355469	-0.321045	0.323147	-0.282495	-0.087685	-0.898935
23234		5.452867	-0.239778	8.040200	0.000508	-0.003584	-0.001064	-0.687500	0.353027	-0.319092	0.323196	-0.282419	-0.087689	-0.898941
23235		5.476063	-0.234803	8.058017	-0.000091	-0.007171	0.002071	-0.681641	0.346191	-0.307861	0.323232	-0.282400	-0.087703	-0.898933
23236		5.470645	-0.250195	8.007457	0.001450	-0.003043	-0.000397	-0.681396	0.349365	-0.316650	0.323180	-0.282398	-0.087728	-0.898949
23237		5.455506	-0.253239	8.036953	0.000468	-0.001788	-0.000776	-0.680420	0.361084	-0.307617	0.323180	-0.282324	-0.087740	-0.898971
23238		5.465446	-0.239218	8.036936	-0.000473	-0.001299	-0.000888	-0.685059	0.345459	-0.309570	0.323257	-0.282334	-0.087692	-0.898945
23239		5.459114	-0.234705	8.059011	0.000124	-0.004358	-0.000308	-0.683105	0.345703	-0.308105	0.323174	-0.282348	-0.087720	-0.898968
23240		5.454670	-0.230308	8.017415	0.000337	-0.007161	0.001582	-0.675781	0.356445	-0.313965	0.323114	-0.282404	-0.087751	-0.898969
23241		5.459011	-0.253429	8.034567	-0.002016	-0.007483	0.000470	-0.679443	0.354492	-0.317139	0.323215	-0.282419	-0.087718	-0.898931
23242		5.461794	-0.241110	8.049018	0.001277	-0.002034	-0.002576	-0.679932	0.357666	-0.305908	0.323272	-0.282324	-0.087729	-0.898940
23243		5.467590	-0.243763	8.012432	0.000680	-0.005619	0.000558	-0.679443	0.356934	-0.308838	0.323349	-0.282399	-0.087707	-0.898890
23244		5.462658	-0.247218	8.040262	-0.002011	-0.004396	0.002135	-0.683838	0.355469	-0.314209	0.323444	-0.282440	-0.087651	-0.898849
23245		5.452998	-0.240145	8.034850	-0.000305	-0.005393	-0.000375	-0.685547	0.348633	-0.316650	0.323494	-0.282428	-0.087651	-0.898835
23246		5.475365	-0.227740	8.046508	-0.001587	-0.006445	0.000536	-0.687744	0.356445	-0.312744	0.323449	-0.282397	-0.087677	-0.898858
23247		5.457330	-0.242117	8.046772	-0.000689	-0.006166	0.000380	-0.684570	0.350342	-0.316406	0.323495	-0.282424	-0.087679	-0.898833
23248		5.474049	-0.238951	8.016158	-0.000260	-0.005130	0.000446	-0.676025	0.346924	-0.310791	0.323484	-0.282373	-0.087708	-0.898850
23249		5.468277	-0.234613	8.037875	-0.000217	-0.005895	0.000713	-0.674072	0.352539	-0.320312	0.323444	-0.282376	-0.087727	-0.898861
23250		5.479926	-0.242188	8.041913	-0.001288	-0.004137	-0.000754	-0.681396	0.347900	-0.308105	0.323554	-0.282232	-0.087718	-0.898868
23251		5.471090	-0.256185	8.041193	-0.001375	-0.003633	-0.001843	-0.683838	0.347168	-0.317871	0.323442	-0.282270	-0.087730	-0.898895
23252		5.452739	-0.229156	8.046098	-0.000690	-0.007193	-0.000176	-0.680664	0.347656	-0.309082	0.323373	-0.282210	-0.087790	-0.898933
23253		5.464962	-0.250652	8.048271	-0.002957	-0.008018	-0.000197	-0.671143	0.343018	-0.320557	0.323278	-0.282289	-0.087797	-0.898942
23254		5.461761	-0.240674	8.013948	-0.002440	-0.007485	0.000957	-0.678955	0.350586	-0.313965	0.323285	-0.282129	-0.087838	-0.898985
23255		5.465972	-0.236541	8.034136	-0.001585	-0.006441	0.000534	-0.677734	0.350830	-0.319824	0.323323	-0.282108	-0.087843	-0.898978
23256		5.476603	-0.236597	8.032146	-0.000859	-0.003099	-0.000688	-0.687256	0.347900	-0.310791	0.323418	-0.281942	-0.087862	-0.898994
23257		5.449365	-0.244872	8.041633	-0.001244	-0.004901	-0.000488	-0.686768	0.356689	-0.312500	0.323260	-0.281988	-0.087897	-0.899033
23258		5.451251	-0.252649	8.047055	-0.001287	-0.004135	-0.000755	-0.683350	0.350830	-0.309814	0.323328	-0.282013	-0.087880	-0.899002
23259		5.458988	-0.243495	8.025436	-0.001289	-0.005162	-0.001310	-0.687256	0.343262	-0.315430	0.323272	-0.282065	-0.087886	-0.899005
23260		5.461253	-0.237677	8.032070	-0.000939	-0.008205	0.002488	-0.685547	0.338135	-0.317627	0.323077	-0.282055	-0.087976	-0.899070
23261		5.461784	-0.244334	8.023508	-0.002011	-0.006446	0.001023	-0.682861	0.354736	-0.309814	0.322792	-0.281967	-0.088093	-0.899188
23262		5.475481	-0.239797	8.042504	-0.000303	-0.005387	-0.000379	-0.686035	0.349854	-0.314209	0.322858	-0.282030	-0.088073	-0.899147
23263		5.465813	-0.232187	8.037136	0.000977	-0.004336	-0.001291	-0.680664	0.353271	-0.311035	0.322805	-0.281996	-0.088130	-0.899171
23264		5.465004	-0.244337	8.021315	-0.000686	-0.006160	0.000377	-0.680664	0.348877	-0.308350	0.322893	-0.282031	-0.088117	-0.899130
23265		5.470094	-0.247525	8.047642	-0.001157	-0.006429	0.000044	-0.687012	0.354736	-0.314453	0.322840	-0.282108	-0.088121	-0.899124
23266		5.469386	-0.246126	8.033221	0.000683	-0.005612	0.000552	-0.687500	0.343994	-0.317627	0.322915	-0.282104	-0.088141	-0.899096
23267		5.462406	-0.234100	8.049111	-0.000342	-0.002566	0.000466	-0.679688	0.356201	-0.312500	0.322754	-0.281982	-0.088237	-0.899183
23268		5.469785	-0.238446	8.026239	0.001451	-0.003038	-0.000403	-0.688232	0.351318	-0.313232	0.322953	-0.281946	-0.088214	-0.899125
23269		5.460857	-0.238495	8.027083	-0.000301	-0.004358	0.000176	-0.684326	0.353271	-0.312012	0.322913	-0.281957	-0.088245	-0.899133
23270		5.454969	-0.234038	8.048950	0.000640	-0.004846	0.000286	-0.676514	0.352783	-0.318604	0.322969	-0.281975	-0.088253	-0.899106
23271		5.461893	-0.244673	8.018186	-0.001200	-0.005662	-0.000223	-0.685303	0.347900	-0.312500	0.323172	-0.281830	-0.088251	-0.899079
23272		5.467637	-0.227810	8.053755	0.001584	-0.004306	0.000951	-0.675781	0.350830	-0.314941	0.323090	-0.281823	-0.088315	-0.899105
23273		5.474157	-0.238409	8.023259	-0.000296	-0.002303	0.001288	-0.681152	0.356445	-0.315918	0.323242	-0.281702	-0.088302	-0.899089
23274		5.467793	-0.233920	8.045459	0.000421	-0.002046	-0.001602	-0.680664	0.347168	-0.303711	0.323445	-0.281606	-0.088284	-0.899048
23275		5.458694	-0.234128	8.046422	-0.001195	-0.003608	0.000889	-0.675049	0.355225	-0.312012	0.323305	-0.281755	-0.088268	-0.899053
23276		5.467399	-0.246416	8.029335	0.000258	-0.005617	0.001041	-0.682373	0.348633	-0.312988	0.323551	-0.281735	-0.088226	-0.898975
23277		5.459775	-0.240600	8.037486	-0.000728	-0.005391	0.000109	-0.677002	0.349121	-0.312012	0.323498	-0.281725	-0.088258	-0.898994
23278		5.450367	-0.246987	8.030468	0.000256	-0.006643	0.000484	-0.680908	0.349121	-0.315186	0.323532	-0.281712	-0.088278	-0.898984
23279		5.459175	-0.245422	8.014786	-0.000254	-0.004094	0.000998	-0.682617	0.343994	-0.312988	0.323547	-0.281633	-0.088306	-0.899001
23280		5.473483	-0.248417	8.040086	-0.000769	-0.003599	0.000399	-0.683350	0.352051	-0.309326	0.323358	-0.281595	-0.088364	-0.899075
23281		5.462627	-0.247189	8.027339	-0.000389	-0.003852	-0.000913	-0.682861	0.354492	-0.311523	0.323355	-0.281661	-0.088356	-0.899056
23282		5.454807	-0.241432	8.035631	-0.001108	-0.005136	0.001421	-0.674805	0.346436	-0.307861	0.323474	-0.281703	-0.088325	-0.899003
23283		5.467394	-0.242941	8.047193	-0.000346	-0.004617	-0.000647	-0.674561	0.345703	-0.307617	0.323415	-0.281730	-0.088328	-0.899016
23284		5.467390	-0.262592	8.037524	0.000977	-0.004331	-0.001294	-0.678711	0.349854	-0.313721	0.323337	-0.281748	-0.088351	-0.899036
23285		5.468186	-0.234839	8.039953	0.000552	-0.004339	-0.000805	-0.686768	0.350586	-0.323975	0.323393	-0.281681	-0.088376	-0.899034
23286		5.458339	-0.240727	8.033253	0.001831	-0.003289	-0.001718	-0.678223	0.347900	-0.313965	0.323442	-0.281445	-0.088479	-0.899080
23287		5.469601	-0.234029	8.039014	0.001026	-0.003043	0.000084	-0.676514	0.353516	-0.308350	0.323458	-0.281359	-0.088512	-0.899098
23288		5.471096	-0.255142	8.043244	0.000939	-0.001514	-0.000448	-0.683838	0.355225	-0.315918	0.323615	-0.281377	-0.088468	-0.899040
23289		5.452052	-0.241699	8.047258	-0.000384	-0.001799	0.000200	-0.682373	0.344971	-0.316895	0.323784	-0.281304	-0.088453	-0.899004
23290		5.441975	-0.247775	8.040713	0.001359	-0.003558	-0.002051	-0.685303	0.342041	-0.312012	0.323634	-0.281187	-0.088544	-0.899086
23291		5.461267	-0.212297	8.034249	-0.002052	-0.006699	0.000200	-0.686523	0.354492	-0.312988	0.323324	-0.281236	-0.088611	-0.899175
23292		5.472139	-0.253614	8.027615	-0.000252	-0.004092	0.000997	-0.682373	0.350830	-0.314697	0.323412	-0.281270	-0.088600	-0.899134
23293		5.464140	-0.247745	8.036047	0.000601	-0.003050	0.000573	-0.689209	0.357422	-0.314453	0.323469	-0.281214	-0.088619	-0.899129
23294		5.445298	-0.234244	8.039936	0.000983	-0.002278	-0.000182	-0.681641	0.355957	-0.314209	0.323609	-0.281219	-0.088612	-0.899078
23295		5.464431	-0.253578	8.027658	0.000642	-0.004840	0.000283	-0.684082	0.354492	-0.315674	0.323805	-0.281205	-0.088594	-0.899014
23296		5.463563	-0.238361	8.014805	-0.000729	-0.006412	-0.000448	-0.686523	0.346191	-0.304932	0.323921	-0.281196	-0.088597	-0.898974
23297		5.466499	-0.239665	8.027734	0.001405	-0.003295	-0.001229	-0.676514	0.356689	-0.323242	0.323694	-0.281347	-0.088651	-0.899003
23298		5.447756	-0.239865	8.030087	-0.000340	-0.002562	0.000465	-0.681885	0.352783	-0.318115	0.324033	-0.281102	-0.088616	-0.898961
23299		5.463275	-0.236597	8.062779	0.000775	-0.007132	0.001080	-0.685547	0.357422	-0.313965	0.324158	-0.281035	-0.088645	-0.898934
23300		5.453046	-0.249209	8.048133	-0.001579	-0.006427	0.000532	-0.683838	0.348633	-0.313965	0.324335	-0.281087	-0.088617	-0.898857
23301		5.462932	-0.228060	8.041353	-0.001107	-0.006157	0.000864	-0.678223	0.350830	-0.311035	0.324280	-0.281098	-0.088648	-0.898870
23302		5.452653	-0.240895	8.026731	-0.002523	-0.006964	-0.000132	-0.686768	0.354004	-0.315186	0.324308	-0.281149	-0.088620	-0.898847
23303		5.459062	-0.238430	8.060416	-0.003801	-0.008013	0.000782	-0.677979	0.349121	-0.315186	0.324374	-0.281199	-0.088608	-0.898809
23304		5.466410	-0.236109	8.030728	-0.002812	-0.008237	0.001711	-0.681396	0.354004	-0.312744	0.324392	-0.281180	-0.088598	-0.898809
23305		5.460448	-0.238727	8.044497	-0.004653	-0.009052	0.001205	-0.687012	0.351318	-0.310303	0.324491	-0.281256	-0.088549	-0.898754
23306		5.449625	-0.244667	8.023499	-0.005641	-0.008824	0.000275	-0.686523	0.346680	-0.319336	0.324440	-0.281402	-0.088532	-0.898729
23307		5.470782	-0.231729	8.020931	-0.004608	-0.009813	0.001469	-0.678955	0.349121	-0.313232	0.324332	-0.281371	-0.088580	-0.898773
23308		5.476810	-0.235670	8.046671	-0.002725	-0.010786	0.001682	-0.676758	0.345215	-0.305664	0.324330	-0.281417	-0.088583	-0.898759
23309		5.457356	-0.248804	8.033099	-0.001580	-0.007446	-0.000028	-0.686523	0.351562	-0.307861	0.324183	-0.281533	-0.088585	-0.898775
23310		5.458741	-0.235529	8.033639	-0.002474	-0.006697	0.000687	-0.689453	0.348877	-0.313965	0.324141	-0.281675	-0.088578	-0.898747
23311		5.454420	-0.252980	8.059772	-0.003038	-0.006462	-0.000732	-0.680664	0.348145	-0.317139	0.324031	-0.281710	-0.088620	-0.898771
23312		5.481857	-0.243872	8.034952	-0.002949	-0.007989	-0.000202	-0.687256	0.359863	-0.317871	0.324014	-0.281650	-0.088644	-0.898794
23313		5.472484	-0.264215	8.026427	-0.000297	-0.004347	0.000171	-0.690430	0.353271	-0.317139	0.324244	-0.281598	-0.088624	-0.898729
23314		5.474460	-0.230844	8.036291	-0.002141	-0.006184	-0.000891	-0.679688	0.360596	-0.311279	0.324264	-0.281588	-0.088658	-0.898722
23315		5.465188	-0.251300	8.027696	-0.001956	-0.007189	0.001283	-0.681396	0.352783	-0.313232	0.324530	-0.281653	-0.088570	-0.898614
23316		5.476315	-0.251486	8.025280	-0.001155	-0.007434	-0.000521	-0.674072	0.352295	-0.316162	0.324580	-0.281668	-0.088570	-0.898591
23317		5.476332	-0.257516	8.017045	0.000935	-0.002535	-0.001009	-0.686768	0.357178	-0.310303	0.324683	-0.281527	-0.088550	-0.898600
23318		5.478610	-0.231109	8.033454	0.001742	-0.000732	-0.001698	-0.683105	0.350586	-0.306641	0.324804	-0.281547	-0.088553	-0.898550
23319		5.458565	-0.250740	8.027057	0.001787	-0.001495	-0.001433	-0.695312	0.354004	-0.321289	0.324768	-0.281602	-0.088577	-0.898543
23320		5.461028	-0.238086	8.041840	0.000980	-0.003298	-0.000745	-0.683105	0.344238	-0.308105	0.324817	-0.281505	-0.088669	-0.898547
23321		5.471764	-0.237700	8.039706	0.000732	-0.007382	0.000248	-0.681885	0.352539	-0.314453	0.324649	-0.281591	-0.088743	-0.898573
23322		5.469026	-0.248428	8.010172	-0.000251	-0.005108	0.000435	-0.683594	0.350098	-0.310547	0.324710	-0.281562	-0.088746	-0.898560
23323		5.463018	-0.257508	8.030781	0.001270	-0.001000	-0.002030	-0.681396	0.350342	-0.311523	0.324674	-0.281547	-0.088775	-0.898575
23324		5.457717	-0.246452	8.060642	0.001360	-0.002526	-0.001501	-0.681885	0.351318	-0.316162	0.324663	-0.281522	-0.088797	-0.898585
23325		5.464903	-0.236824	8.039245	0.001028	-0.003037	0.000078	-0.683838	0.343994	-0.315186	0.324708	-0.281436	-0.088819	-0.898593
23326		5.465575	-0.250304	8.037299	0.000980	-0.003297	-0.000745	-0.686279	0.349365	-0.305664	0.324565	-0.281362	-0.088900	-0.898660
23327		5.473824	-0.234576	8.023397	0.001453	-0.003028	-0.000414	-0.674072	0.358398	-0.321289	0.324493	-0.281467	-0.088934	-0.898650
23328		5.464400	-0.248119	8.023168	0.001276	0.001047	-0.000915	-0.676514	0.349854	-0.310059	0.324760	-0.281231	-0.088871	-0.898633
23329		5.454777	-0.233993	8.026069	0.003201	-0.001712	-0.000997	-0.681396	0.351074	-0.306152	0.324770	-0.281197	-0.088884	-0.898639
23330		5.458114	-0.228933	8.046988	0.000514	-0.001518	0.000039	-0.683105	0.346924	-0.308838	0.324766	-0.281264	-0.088868	-0.898621
23331		5.457740	-0.234991	8.039022	-0.000343	-0.004605	-0.000652	-0.682373	0.356934	-0.311768	0.324658	-0.281321	-0.088899	-0.898639
23332		5.468377	-0.234778	8.036942	0.000174	-0.005099	-0.000056	-0.678467	0.350586	-0.318115	0.324797	-0.281356	-0.088873	-0.898581
23333		5.459596	-0.248668	8.036271	0.000132	-0.003312	0.000237	-0.675537	0.348633	-0.311279	0.324850	-0.281236	-0.088878	-0.898599
23334		5.452685	-0.236523	8.052272	0.001592	-0.004293	0.000938	-0.676514	0.351807	-0.311768	0.324855	-0.281212	-0.088884	-0.898604
23335		5.461324	-0.248559	8.035100	-0.000722	-0.005375	0.000104	-0.681885	0.346924	-0.316406	0.324912	-0.281214	-0.088858	-0.898585
23336		5.453712	-0.242681	8.043353	0.000175	-0.005098	-0.000056	-0.684326	0.349609	-0.311279	0.324851	-0.281153	-0.088907	-0.898621
23337		5.464656	-0.228882	8.042549	-0.002097	-0.007965	-0.001183	-0.680664	0.351807	-0.313232	0.324789	-0.281230	-0.088927	-0.898618
23338		5.464401	-0.227942	8.027746	-0.002712	-0.009747	0.002238	-0.681885	0.345947	-0.315674	0.324844	-0.281289	-0.088911	-0.898581
23339		5.458451	-0.243989	8.040098	-0.002045	-0.006680	0.000196	-0.679688	0.354980	-0.311523	0.324758	-0.281262	-0.088944	-0.898617
23340		5.478171	-0.236355	8.030223	-0.000585	-0.007660	0.000896	-0.683350	0.345459	-0.310059	0.324874	-0.281315	-0.088922	-0.898561
23341		5.467881	-0.235352	8.017107	-0.001572	-0.006411	0.000527	-0.684082	0.352051	-0.314697	0.324742	-0.281374	-0.088951	-0.898587
23342		5.452822	-0.245096	8.038766	-0.000721	-0.005372	0.000102	-0.681396	0.350830	-0.311768	0.324778	-0.281365	-0.088965	-0.898576
23343		5.470966	-0.243243	8.021730	0.000557	-0.003302	-0.000256	-0.683838	0.351562	-0.308350	0.324790	-0.281356	-0.088974	-0.898573
23344		5.466581	-0.260395	8.048005	-0.002377	-0.008211	0.001216	-0.682129	0.356201	-0.312256	0.324783	-0.281479	-0.088960	-0.898539
23345		5.466977	-0.239648	8.042484	-0.001995	-0.006417	0.001018	-0.677979	0.352051	-0.311523	0.324905	-0.281523	-0.088921	-0.898485
23346		5.458408	-0.253750	8.041675	-0.000437	-0.004098	-0.001741	-0.687500	0.345947	-0.304688	0.324935	-0.281511	-0.088907	-0.898479
23347		5.459276	-0.226428	8.044083	-0.001095	-0.005118	0.001415	-0.682617	0.354004	-0.313965	0.324783	-0.281647	-0.088934	-0.898489
23348		5.479800	-0.254075	8.037361	-0.002418	-0.006424	0.001509	-0.682861	0.353516	-0.311523	0.324868	-0.281661	-0.088909	-0.898456
23349		5.471604	-0.254999	8.037784	-0.002799	-0.008215	0.001706	-0.677490	0.348145	-0.308594	0.324925	-0.281732	-0.088884	-0.898415
23350		5.464426	-0.235880	8.047268	-0.001620	-0.006667	-0.000297	-0.677002	0.344482	-0.315918	0.324871	-0.281782	-0.088875	-0.898420
23351		5.483144	-0.248007	8.028295	-0.000583	-0.007654	0.000893	-0.671387	0.360352	-0.318115	0.324808	-0.281723	-0.088917	-0.898458
23352		5.475647	-0.256040	8.034998	0.000278	-0.003550	0.002143	-0.677246	0.358154	-0.310547	0.325138	-0.281596	-0.088848	-0.898385
23353		5.476304	-0.242206	8.036058	0.001404	-0.003284	-0.001241	-0.689209	0.357178	-0.306152	0.325305	-0.281590	-0.088818	-0.898329
23354		5.468485	-0.222527	8.046005	-0.001094	-0.005115	0.001415	-0.687988	0.345459	-0.310059	0.325390	-0.281730	-0.088803	-0.898256
23355		5.476967	-0.262057	8.025857	0.001453	-0.003024	-0.000419	-0.677490	0.347656	-0.312988	0.325248	-0.281745	-0.088878	-0.898295
23356		5.471010	-0.257200	8.048025	0.001877	-0.003016	-0.000910	-0.678711	0.354736	-0.310303	0.325207	-0.281676	-0.088909	-0.898328
23357		5.469534	-0.241837	8.035560	-0.001281	-0.003089	-0.000200	-0.686279	0.351562	-0.317139	0.325289	-0.281682	-0.088866	-0.898301
23358		5.470361	-0.255845	8.033483	-0.001662	-0.004881	-0.000003	-0.682373	0.356445	-0.311523	0.325302	-0.281641	-0.088888	-0.898307
23359		5.478872	-0.240669	8.019325	-0.000766	-0.004605	-0.000164	-0.680908	0.343994	-0.311035	0.325404	-0.281664	-0.088865	-0.898265
23360		5.452873	-0.256517	8.035141	0.000180	-0.004069	0.000498	-0.681885	0.345703	-0.321777	0.325271	-0.281652	-0.088903	-0.898313
23361		5.460220	-0.233703	8.015037	-0.001139	-0.004352	0.001150	-0.680664	0.349854	-0.306641	0.325230	-0.281513	-0.088947	-0.898368
23362		5.463264	-0.249027	8.026438	0.000600	-0.005082	-0.000553	-0.688721	0.345459	-0.312256	0.325184	-0.281582	-0.088955	-0.898362
23363		5.466204	-0.250322	8.039428	0.001549	-0.003525	0.000667	-0.682373	0.346436	-0.311768	0.325064	-0.281580	-0.089027	-0.898399
23364		5.465760	-0.242662	8.032993	-0.000335	-0.002553	0.000461	-0.687744	0.351807	-0.303467	0.324989	-0.281555	-0.089046	-0.898432
23365		5.449173	-0.244640	8.049042	-0.000812	-0.003842	-0.000428	-0.676758	0.352051	-0.310547	0.324914	-0.281691	-0.089032	-0.898418
23366		5.467399	-0.229238	8.033376	-0.000104	-0.006360	0.001781	-0.673340	0.348389	-0.312988	0.324980	-0.281713	-0.089014	-0.898389
23367		5.460171	-0.251096	8.038408	-0.001523	-0.007163	0.000788	-0.685547	0.345947	-0.320801	0.325002	-0.281693	-0.089004	-0.898388
23368		5.468948	-0.249712	8.022545	-0.001238	-0.004870	-0.000495	-0.681641	0.351318	-0.316650	0.324947	-0.281589	-0.089066	-0.898434
23369		5.462410	-0.251487	8.036875	-0.000296	-0.005356	-0.000393	-0.679443	0.351807	-0.312744	0.324990	-0.281539	-0.089088	-0.898432
23370		5.462204	-0.243990	8.030272	-0.001280	-0.003087	-0.000200	-0.683350	0.345947	-0.311279	0.325030	-0.281510	-0.089068	-0.898429
23371		5.454482	-0.252154	8.037154	-0.002037	-0.005647	0.000752	-0.676514	0.359863	-0.310547	0.324930	-0.281539	-0.089079	-0.898455
23372		5.467487	-0.240218	8.049895	-0.001522	-0.007161	0.000788	-0.689209	0.354492	-0.313477	0.325125	-0.281591	-0.089018	-0.898374
23373		5.456270	-0.245553	8.029169	-0.002844	-0.008464	0.000882	-0.674805	0.347900	-0.318848	0.325157	-0.281666	-0.089018	-0.898339
23374		5.467541	-0.232215	8.028094	-0.001475	-0.007921	0.001050	-0.682617	0.352783	-0.309570	0.325192	-0.281588	-0.089033	-0.898349
23375		5.468993	-0.246277	8.025580	-0.001145	-0.006390	0.000031	-0.677246	0.350586	-0.313721	0.325205	-0.281650	-0.089025	-0.898326
23376		5.461609	-0.254293	8.032245	-0.001191	-0.005629	-0.000233	-0.681152	0.349854	-0.315918	0.325232	-0.281625	-0.089019	-0.898325
23377		5.450958	-0.253070	8.019402	-0.000296	-0.005353	-0.000395	-0.681152	0.353760	-0.313965	0.325238	-0.281580	-0.089044	-0.898334
23378		5.464859	-0.248549	8.038280	-0.002036	-0.005643	0.000751	-0.683350	0.349854	-0.318359	0.325310	-0.281579	-0.089025	-0.898310
23379		5.466140	-0.249087	8.037393	-0.001943	-0.007165	0.001278	-0.680176	0.358643	-0.309082	0.325327	-0.281543	-0.089045	-0.898314
23380		5.456734	-0.242135	8.031951	-0.002087	-0.005902	-0.000072	-0.674316	0.354248	-0.314697	0.325456	-0.281610	-0.088996	-0.898250
23381		5.465346	-0.254442	8.014648	-0.000764	-0.004598	-0.000167	-0.680908	0.346436	-0.315430	0.325568	-0.281557	-0.088972	-0.898229
23382		5.469373	-0.249926	8.035166	0.000182	-0.004064	0.000494	-0.684326	0.353516	-0.311768	0.325505	-0.281498	-0.089001	-0.898267
23383		5.459470	-0.242441	8.030082	0.000605	-0.004056	0.000002	-0.686523	0.355469	-0.316650	0.325542	-0.281507	-0.089014	-0.898250
23384		5.470039	-0.242104	8.027977	0.000601	-0.005076	-0.000558	-0.682861	0.357910	-0.312012	0.325624	-0.281481	-0.089045	-0.898225
23385		5.461541	-0.242300	8.028678	-0.001144	-0.006386	0.000029	-0.681152	0.352539	-0.314697	0.325745	-0.281523	-0.089030	-0.898170
23386		5.489688	-0.254178	8.008227	-0.000150	-0.006612	0.000953	-0.681396	0.355957	-0.318359	0.325794	-0.281517	-0.089043	-0.898152
23387		5.454164	-0.242718	8.028614	-0.000435	-0.003068	-0.001186	-0.681885	0.356934	-0.320068	0.325901	-0.281434	-0.089044	-0.898139
23388		5.453962	-0.235181	8.022006	-0.000146	-0.005591	0.001512	-0.684814	0.346680	-0.316895	0.326057	-0.281368	-0.089052	-0.898103
23389		5.476376	-0.236493	8.031907	-0.000290	-0.004329	0.000163	-0.689941	0.349609	-0.317139	0.325974	-0.281317	-0.089088	-0.898145
23390		5.477259	-0.250376	8.029779	-0.000712	-0.004337	0.000655	-0.682129	0.359619	-0.313721	0.325945	-0.281288	-0.089128	-0.898161
23391		5.465278	-0.241581	8.011099	-0.000290	-0.004329	0.000163	-0.682617	0.352295	-0.315430	0.326112	-0.281287	-0.089114	-0.898102
23392		5.459622	-0.250879	8.031632	0.000085	-0.003560	-0.000593	-0.679688	0.349854	-0.318115	0.326135	-0.281246	-0.089129	-0.898105
23393		5.472297	-0.252318	8.043084	-0.001139	-0.005364	0.000588	-0.683350	0.348877	-0.309082	0.326133	-0.281188	-0.089134	-0.898123
23394		5.468914	-0.235751	8.016879	-0.000337	-0.003568	-0.000101	-0.684814	0.343262	-0.319336	0.326072	-0.281217	-0.089141	-0.898136
23395		5.465601	-0.260477	8.049308	-0.002137	-0.006157	-0.000895	-0.682373	0.352295	-0.313477	0.325921	-0.281163	-0.089180	-0.898204
23396		5.463431	-0.237890	8.030541	-0.000712	-0.004336	0.000655	-0.681885	0.344727	-0.309082	0.325951	-0.281158	-0.089179	-0.898194
23397		5.465491	-0.259505	8.034353	-0.001138	-0.005363	0.000588	-0.676270	0.353271	-0.312256	0.325819	-0.281199	-0.089184	-0.898229
23398		5.465427	-0.238405	8.029167	-0.001237	-0.004861	-0.000498	-0.683838	0.344727	-0.311035	0.325869	-0.281195	-0.089161	-0.898214
23399		5.468553	-0.253686	8.040530	0.000653	-0.004812	0.000262	-0.676758	0.349365	-0.317139	0.325743	-0.281207	-0.089194	-0.898253
23400		5.467431	-0.252204	8.026276	-0.000716	-0.005354	0.000095	-0.691650	0.350830	-0.308105	0.325760	-0.281148	-0.089202	-0.898265
23401		5.457684	-0.244867	8.021099	-0.001335	-0.004360	-0.001584	-0.679199	0.359131	-0.317383	0.325668	-0.281230	-0.089212	-0.898271
23402		5.454394	-0.241958	8.056590	0.000700	-0.005572	0.000524	-0.686035	0.351074	-0.314209	0.325852	-0.281192	-0.089214	-0.898216
23403		5.480468	-0.238365	8.023980	-0.000157	-0.008644	-0.000170	-0.681885	0.350098	-0.307129	0.325840	-0.281233	-0.089253	-0.898204
23404		5.462462	-0.252466	8.024596	0.000185	-0.004059	0.000491	-0.687012	0.358154	-0.303467	0.325803	-0.281282	-0.089247	-0.898202
23405		5.459815	-0.243096	8.004633	0.001308	-0.001756	-0.001776	-0.685303	0.350586	-0.307861	0.325846	-0.281366	-0.089234	-0.898162
23406		5.465692	-0.253604	8.037431	-0.001279	-0.003080	-0.000201	-0.678955	0.350342	-0.304688	0.325802	-0.281411	-0.089222	-0.898165
23407		5.464386	-0.252283	8.023291	-0.000715	-0.005352	0.000094	-0.682373	0.348145	-0.317627	0.325759	-0.281491	-0.089197	-0.898158
23408		5.458178	-0.253981	8.037489	-0.000303	-0.007382	-0.001519	-0.682861	0.349854	-0.312744	0.325719	-0.281460	-0.089243	-0.898178
23409		5.469031	-0.226520	8.038199	-0.002079	-0.004874	0.000487	-0.685303	0.356445	-0.304199	0.325699	-0.281466	-0.089233	-0.898184
23410		5.460607	-0.254535	8.035821	-0.000046	-0.007104	0.002034	-0.679443	0.342529	-0.304688	0.325746	-0.281600	-0.089212	-0.898127
23411		5.471464	-0.240966	8.034996	-0.002131	-0.005132	-0.000336	-0.684814	0.349121	-0.312744	0.325572	-0.281665	-0.089196	-0.898171
23412		5.453228	-0.241517	8.037311	-0.000293	-0.005343	-0.000400	-0.683594	0.352783	-0.310303	0.325532	-0.281670	-0.089218	-0.898182
23413		5.466093	-0.243047	8.048624	-0.002131	-0.005132	-0.000336	-0.679688	0.354004	-0.315186	0.325528	-0.281708	-0.089196	-0.898174
23414		5.465104	-0.241802	8.034261	-0.000145	-0.006602	0.000948	-0.677246	0.353516	-0.312988	0.325606	-0.281696	-0.089200	-0.898149
23415		5.464254	-0.240520	8.019801	-0.000566	-0.006609	0.001441	-0.687988	0.352539	-0.305420	0.325676	-0.281700	-0.089187	-0.898123
23416		5.468418	-0.236076	8.040275	0.000090	-0.002537	-0.000035	-0.686768	0.346924	-0.312500	0.325640	-0.281761	-0.089177	-0.898118
23417		5.468028	-0.242056	8.032263	0.000555	-0.004307	-0.000827	-0.688721	0.353271	-0.318115	0.325562	-0.281753	-0.089217	-0.898145
23418		5.469920	-0.249729	8.037725	-0.002226	-0.003611	-0.000861	-0.685303	0.344238	-0.309570	0.325589	-0.281710	-0.089224	-0.898148
23419		5.458864	-0.234618	8.026712	0.001450	-0.004032	-0.000991	-0.685547	0.349365	-0.301514	0.325468	-0.281714	-0.089269	-0.898187
23420		5.470629	-0.255891	8.028958	-0.001929	-0.006131	0.001835	-0.683105	0.346191	-0.315186	0.325378	-0.281850	-0.089230	-0.898180
23421		5.462132	-0.256391	8.029697	-0.000292	-0.005340	-0.000401	-0.683838	0.359131	-0.317383	0.325333	-0.281816	-0.089266	-0.898204
23422		5.464264	-0.250266	8.036531	0.000182	-0.005073	-0.000072	-0.686768	0.344971	-0.310547	0.325460	-0.281785	-0.089267	-0.898167
23423		5.463072	-0.234939	8.023839	-0.000393	-0.004839	-0.001486	-0.686523	0.350586	-0.314453	0.325343	-0.281799	-0.089299	-0.898202
23424		5.468619	-0.237863	8.050144	0.000225	-0.006850	-0.000370	-0.683350	0.358398	-0.312988	0.325334	-0.281807	-0.089335	-0.898199
23425		5.456723	-0.242658	8.029888	-0.000282	-0.003303	0.000720	-0.678467	0.344971	-0.311768	0.325432	-0.281799	-0.089307	-0.898169
23426		5.457418	-0.242748	8.029413	-0.001384	-0.003594	-0.001847	-0.687256	0.345215	-0.316162	0.325347	-0.281768	-0.089309	-0.898209
23427		5.469026	-0.250270	8.033291	0.000810	-0.005047	0.002165	-0.679199	0.348389	-0.310547	0.325317	-0.281731	-0.089360	-0.898227
23428		5.460065	-0.250339	8.034369	0.000885	-0.001761	-0.001285	-0.680420	0.349854	-0.312988	0.325281	-0.281691	-0.089363	-0.898252
23429		5.460418	-0.249999	8.034139	0.001934	-0.001728	0.000458	-0.671631	0.346924	-0.316406	0.325298	-0.281632	-0.089378	-0.898263
23430		5.469360	-0.241848	8.026332	0.001407	-0.002254	-0.000694	-0.682861	0.360596	-0.311035	0.325329	-0.281517	-0.089400	-0.898285
23431		5.450579	-0.241969	8.029076	0.001087	-0.002762	0.000885	-0.683594	0.347168	-0.312256	0.325453	-0.281524	-0.089372	-0.898241
23432		5.449233	-0.226973	8.016473	-0.001453	-0.005861	0.002164	-0.683105	0.352539	-0.304443	0.325418	-0.281541	-0.089369	-0.898249
23433		5.473091	-0.249646	8.030542	0.000646	-0.006839	-0.000865	-0.677246	0.350098	-0.310059	0.325368	-0.281640	-0.089360	-0.898237
23434		5.462292	-0.248074	8.017833	0.001556	-0.003512	0.000653	-0.679443	0.353516	-0.311768	0.325378	-0.281623	-0.089361	-0.898238
23435		5.466038	-0.243411	8.038620	-0.000426	-0.001025	-0.000067	-0.682373	0.353271	-0.310791	0.325419	-0.281584	-0.089331	-0.898239
23436		5.458962	-0.258780	8.051936	0.000512	-0.002527	-0.000530	-0.684814	0.353516	-0.309814	0.325433	-0.281574	-0.089322	-0.898238
23437		5.456453	-0.249483	8.031845	0.000129	-0.005329	-0.000896	-0.683350	0.352051	-0.312256	0.325424	-0.281613	-0.089320	-0.898229
23438		5.488905	-0.250607	8.039848	-0.001462	-0.007894	0.001042	-0.680664	0.350342	-0.313232	0.325434	-0.281659	-0.089315	-0.898212
23439		5.448435	-0.242494	8.025520	-0.000664	-0.006102	0.000353	-0.683838	0.352783	-0.314941	0.325438	-0.281661	-0.089318	-0.898209
23440		5.460273	-0.236467	8.030759	-0.001655	-0.004859	-0.000006	-0.685547	0.354736	-0.308105	0.325464	-0.281650	-0.089310	-0.898204
23441		5.454827	-0.259801	8.049725	-0.001229	-0.003833	0.000061	-0.682373	0.357666	-0.317383	0.325463	-0.281697	-0.089276	-0.898193
23442		5.465245	-0.232391	8.050706	-0.000232	-0.004059	0.000981	-0.682617	0.353271	-0.311523	0.325579	-0.281655	-0.089269	-0.898165
23443		5.465166	-0.252477	8.040926	-0.001084	-0.006109	0.000847	-0.686279	0.344727	-0.308105	0.325601	-0.281686	-0.089255	-0.898148
23444		5.464144	-0.237467	8.028097	-0.000189	-0.005834	0.000682	-0.677002	0.355713	-0.315430	0.325495	-0.281732	-0.089269	-0.898171
23445		5.467276	-0.252777	8.039482	0.000140	-0.003292	0.000225	-0.683105	0.350586	-0.314453	0.325588	-0.281679	-0.089256	-0.898155
23446		5.458167	-0.252818	8.040682	0.001460	-0.001993	0.000127	-0.685059	0.350830	-0.315430	0.325600	-0.281622	-0.089274	-0.898167
23447		5.456504	-0.237464	8.028298	-0.000334	-0.003558	-0.000104	-0.680176	0.350342	-0.314453	0.325604	-0.281587	-0.089284	-0.898176
23448		5.471373	-0.254035	8.051759	0.000135	-0.004309	-0.000336	-0.683838	0.352051	-0.301270	0.325610	-0.281554	-0.089293	-0.898183
23449		5.450687	-0.238950	8.042320	0.001504	-0.003768	-0.000172	-0.676514	0.346191	-0.317627	0.325549	-0.281638	-0.089274	-0.898180
23450		5.450521	-0.245146	8.034136	-0.002026	-0.005622	0.000749	-0.681885	0.351562	-0.312500	0.325547	-0.281584	-0.089276	-0.898198
23451		5.459008	-0.243757	8.018293	-0.000237	-0.005074	0.000419	-0.674072	0.350098	-0.307617	0.325555	-0.281586	-0.089274	-0.898194
23452		5.454903	-0.233439	8.047738	-0.000609	-0.005840	0.001175	-0.681396	0.343750	-0.313232	0.325551	-0.281619	-0.089245	-0.898189
23453		5.464523	-0.239559	8.037886	-0.000237	-0.005074	0.000419	-0.681396	0.344971	-0.317383	0.325476	-0.281598	-0.089263	-0.898220
23454		5.454898	-0.246273	8.031131	-0.003395	-0.006161	0.000585	-0.683350	0.348389	-0.307617	0.325437	-0.281568	-0.089262	-0.898244
23455		5.456128	-0.260468	8.028743	-0.000662	-0.006097	0.000351	-0.685303	0.357910	-0.312256	0.325363	-0.281623	-0.089249	-0.898255
23456		5.457195	-0.233174	8.031089	-0.000759	-0.004581	-0.000172	-0.683838	0.347900	-0.314697	0.325416	-0.281643	-0.089229	-0.898231
23457		5.460582	-0.248953	8.042294	-0.003765	-0.006925	0.001341	-0.679688	0.348877	-0.310303	0.325389	-0.281659	-0.089210	-0.898238
23458		5.467404	-0.232899	8.014025	-0.002676	-0.009683	0.002222	-0.679688	0.362549	-0.314941	0.325369	-0.281731	-0.089188	-0.898225
23459		5.459246	-0.247259	8.013033	-0.001288	-0.005104	-0.001325	-0.686035	0.353271	-0.315674	0.325502	-0.281728	-0.089164	-0.898180
23460		5.457352	-0.252170	8.054534	-0.000656	-0.005079	0.000911	-0.680176	0.351562	-0.313477	0.325538	-0.281716	-0.089168	-0.898171
23461		5.453784	-0.249115	8.026829	0.001030	-0.004032	-0.000504	-0.678955	0.350342	-0.320557	0.325554	-0.281685	-0.089182	-0.898173
23462		5.456912	-0.250678	8.039769	-0.000601	-0.004820	0.001734	-0.681396	0.351318	-0.309570	0.325627	-0.281607	-0.089198	-0.898169
23463		5.462520	-0.240446	8.067623	-0.001976	-0.006375	0.001010	-0.682129	0.350342	-0.319336	0.325613	-0.281653	-0.089170	-0.898163
23464		5.477350	-0.243493	8.029032	-0.000710	-0.005336	0.000088	-0.680908	0.354004	-0.311035	0.325643	-0.281599	-0.089191	-0.898167
23465		5.460321	-0.265184	8.035885	0.000653	-0.005812	-0.000311	-0.672852	0.354980	-0.315674	0.325667	-0.281618	-0.089195	-0.898152
23466		5.460085	-0.243725	8.030831	0.000616	-0.003023	0.000551	-0.676514	0.351318	-0.306885	0.325778	-0.281550	-0.089191	-0.898133
23467		5.471251	-0.251034	8.034975	0.000414	-0.001008	-0.001056	-0.680664	0.361816	-0.317627	0.325757	-0.281535	-0.089163	-0.898149
23468		5.452491	-0.251212	8.037799	0.000610	-0.004038	-0.000011	-0.681396	0.359619	-0.312500	0.325923	-0.281494	-0.089170	-0.898100
23469		5.463195	-0.223527	8.038580	0.000283	-0.006576	0.000445	-0.687256	0.346191	-0.313721	0.326031	-0.281523	-0.089171	-0.898052
23470		5.463382	-0.243356	8.028599	0.000283	-0.006576	0.000444	-0.682373	0.354492	-0.322021	0.325956	-0.281533	-0.089198	-0.898073
23471		5.445257	-0.257524	8.029447	-0.001233	-0.004842	-0.000502	-0.689697	0.361816	-0.313477	0.326029	-0.281465	-0.089213	-0.898067
23472		5.456973	-0.237601	8.036298	-0.000339	-0.004569	-0.000668	-0.682617	0.351807	-0.315918	0.326135	-0.281487	-0.089215	-0.898021
23473		5.438596	-0.238285	8.038861	-0.001962	-0.004341	0.002133	-0.686768	0.350830	-0.314697	0.326168	-0.281465	-0.089195	-0.898018
23474		5.448396	-0.230829	8.030386	-0.000148	-0.008613	-0.000186	-0.675537	0.364502	-0.312012	0.326149	-0.281498	-0.089225	-0.898012
23475		5.451155	-0.252510	8.033722	-0.002874	-0.007659	0.000613	-0.679443	0.348145	-0.312500	0.326316	-0.281552	-0.089183	-0.897938
23476		5.465520	-0.234328	8.053844	0.000709	-0.005551	0.000510	-0.679688	0.354980	-0.310547	0.326278	-0.281544	-0.089192	-0.897954
23477		5.464517	-0.246620	8.037896	-0.001085	-0.007112	0.000281	-0.681885	0.349365	-0.317627	0.326313	-0.281587	-0.089181	-0.897929
23478		5.465635	-0.246837	8.037129	-0.000228	-0.004051	0.000977	-0.678223	0.356934	-0.311279	0.326310	-0.281533	-0.089187	-0.897946
23479		5.459201	-0.235019	8.053178	-0.001708	-0.005105	-0.000831	-0.680908	0.352539	-0.310791	0.326363	-0.281550	-0.089163	-0.897924
23480		5.468952	-0.241211	8.043175	-0.001559	-0.007376	-0.000048	-0.683594	0.345703	-0.310059	0.326358	-0.281594	-0.089153	-0.897912
23481		5.457478	-0.246166	8.022620	-0.000091	-0.008351	0.000635	-0.675537	0.348145	-0.317383	0.326266	-0.281643	-0.089166	-0.897929
23482		5.465518	-0.237099	8.063959	-0.000332	-0.003551	-0.000108	-0.672119	0.353516	-0.318359	0.326250	-0.281570	-0.089166	-0.897958
23483		5.461711	-0.247886	8.034821	-0.000227	-0.004050	0.000976	-0.674805	0.350342	-0.310303	0.326332	-0.281498	-0.089162	-0.897951
23484		5.446761	-0.243781	8.058503	0.000242	-0.004799	0.000742	-0.679199	0.349365	-0.313477	0.326328	-0.281495	-0.089151	-0.897955
23485		5.464714	-0.228371	8.042642	-0.001652	-0.004846	-0.000008	-0.681885	0.355957	-0.315674	0.326297	-0.281482	-0.089134	-0.897972
23486		5.463538	-0.254572	8.025240	-0.001133	-0.006351	0.000018	-0.682129	0.350342	-0.308838	0.326360	-0.281484	-0.089138	-0.897948
23487		5.458487	-0.250420	8.047138	-0.000652	-0.005071	0.000908	-0.690430	0.351562	-0.311035	0.326329	-0.281514	-0.089122	-0.897952
23488		5.457274	-0.235626	8.034413	-0.002440	-0.005617	0.001242	-0.686279	0.347900	-0.316162	0.326298	-0.281559	-0.089100	-0.897950
23489		5.462945	-0.252737	8.059177	-0.000289	-0.005320	-0.000410	-0.679688	0.348633	-0.312744	0.326243	-0.281537	-0.089118	-0.897976
23490		5.448741	-0.242383	8.026943	-0.002132	-0.006124	-0.000899	-0.686523	0.353760	-0.318604	0.326187	-0.281544	-0.089103	-0.897995
23491		5.474970	-0.253174	8.055920	-0.002970	-0.006138	0.000091	-0.682861	0.345947	-0.311523	0.326216	-0.281535	-0.089097	-0.897988
23492		5.464253	-0.238466	8.044725	-0.000183	-0.005818	0.000673	-0.683594	0.354004	-0.312988	0.326135	-0.281544	-0.089097	-0.898015
23493		5.454408	-0.244905	8.038158	-0.000751	-0.003556	0.000386	-0.678467	0.354492	-0.312500	0.326162	-0.281532	-0.089086	-0.898010
23494		5.457610	-0.232967	8.052628	-0.001126	-0.005334	0.000579	-0.681396	0.343994	-0.311279	0.326207	-0.281537	-0.089071	-0.897993
23495		5.465241	-0.251550	8.027372	-0.001770	-0.009388	0.002049	-0.685547	0.346924	-0.311279	0.326110	-0.281590	-0.089061	-0.898013
23496		5.457418	-0.252259	8.027748	-0.002458	-0.008655	-0.000447	-0.679932	0.358887	-0.308838	0.326009	-0.281646	-0.089051	-0.898033
23497		5.468357	-0.238767	8.026781	-0.001119	-0.004319	0.001141	-0.685547	0.350098	-0.313965	0.326090	-0.281676	-0.089019	-0.897998
23498		5.452094	-0.240904	8.043086	-0.000325	-0.002534	0.000453	-0.686035	0.349121	-0.315918	0.326070	-0.281640	-0.089013	-0.898017
23499		5.452658	-0.240930	8.042703	-0.000438	-0.003048	-0.001193	-0.685059	0.343018	-0.306152	0.326028	-0.281594	-0.089021	-0.898046
23500		5.453661	-0.241059	8.042019	-0.002082	-0.006876	-0.000640	-0.681396	0.345703	-0.312744	0.325855	-0.281658	-0.088992	-0.898091
23501		5.466009	-0.235107	8.046867	-0.000981	-0.008614	0.000796	-0.679199	0.354492	-0.319092	0.325790	-0.281687	-0.088999	-0.898105
23502		5.456718	-0.241645	8.039928	-0.001131	-0.006345	0.000015	-0.680908	0.345215	-0.313721	0.325871	-0.281654	-0.089016	-0.898084
23503		5.466277	-0.247666	8.030007	-0.000338	-0.004560	-0.000673	-0.685303	0.357178	-0.314209	0.325797	-0.281624	-0.089020	-0.898120
23504		5.458653	-0.241724	8.038612	0.000669	-0.003772	0.000806	-0.678955	0.349121	-0.311523	0.325868	-0.281609	-0.089026	-0.898099
23505		5.458458	-0.233995	8.031976	0.000656	-0.005799	-0.000320	-0.684570	0.355225	-0.312744	0.325840	-0.281608	-0.089036	-0.898108
23506		5.459555	-0.234097	8.031228	-0.002125	-0.005104	-0.000338	-0.676758	0.346436	-0.308350	0.325858	-0.281624	-0.089015	-0.898099
23507		5.462948	-0.235937	8.044020	-0.000123	-0.005556	0.001493	-0.678711	0.352783	-0.312256	0.325805	-0.281639	-0.088998	-0.898115
23508		5.455493	-0.243996	8.050947	-0.001174	-0.004574	0.000317	-0.674316	0.354492	-0.313232	0.325829	-0.281633	-0.088983	-0.898109
23509		5.445573	-0.236770	8.046008	-0.000224	-0.004044	0.000973	-0.677734	0.351807	-0.316162	0.325911	-0.281605	-0.088977	-0.898089
23510		5.464664	-0.242692	8.034497	-0.000655	-0.006077	0.000342	-0.681396	0.349121	-0.310059	0.325952	-0.281583	-0.088988	-0.898080
23511		5.477917	-0.244168	8.045498	-0.000187	-0.006825	0.000106	-0.682373	0.347656	-0.316406	0.325902	-0.281613	-0.088985	-0.898089
23512		5.469485	-0.244496	8.046323	-0.000648	-0.005064	0.000905	-0.670410	0.349609	-0.317627	0.325881	-0.281581	-0.088991	-0.898106
23513		5.459536	-0.237093	8.041412	0.000563	-0.003272	-0.000279	-0.685547	0.364014	-0.310791	0.325946	-0.281493	-0.089014	-0.898108
23514		5.460183	-0.264349	8.037845	0.001564	-0.003498	0.000636	-0.683105	0.348877	-0.308838	0.326082	-0.281507	-0.089021	-0.898053
23515		5.452579	-0.230859	8.049595	-0.000338	-0.004557	-0.000674	-0.679688	0.353027	-0.319580	0.326006	-0.281523	-0.089006	-0.898077
23516		5.461770	-0.250463	8.038339	0.000620	-0.003015	0.000544	-0.686768	0.353027	-0.317383	0.326082	-0.281445	-0.089029	-0.898072
23517		5.469656	-0.248551	8.022764	0.001456	-0.002999	-0.000447	-0.673584	0.347412	-0.316650	0.326104	-0.281392	-0.089056	-0.898078
23518		5.450925	-0.234938	8.027279	0.001045	-0.001994	0.000612	-0.676514	0.357178	-0.314697	0.326117	-0.281303	-0.089066	-0.898100
23519		5.454781	-0.243912	8.046556	0.000937	-0.001496	-0.000472	-0.682373	0.348877	-0.318115	0.326222	-0.281243	-0.089076	-0.898080
23520		5.462607	-0.228341	8.032584	0.000671	-0.003770	0.000804	-0.674561	0.352539	-0.315918	0.326219	-0.281186	-0.089092	-0.898097
23521		5.457451	-0.237729	8.053088	-0.000179	-0.005810	0.000669	-0.675537	0.355225	-0.301514	0.326281	-0.281162	-0.089104	-0.898081
23522		5.456129	-0.249970	8.037303	-0.000338	-0.004556	-0.000674	-0.675537	0.343506	-0.317627	0.326281	-0.281227	-0.089070	-0.898064
23523		5.459154	-0.237630	8.051937	0.001463	-0.001986	0.000115	-0.680664	0.347656	-0.308350	0.326225	-0.281130	-0.089083	-0.898113
23524		5.459532	-0.237465	8.051685	0.000044	-0.001768	-0.000303	-0.680420	0.352539	-0.313232	0.326142	-0.281115	-0.089053	-0.898151
23525		5.449402	-0.230012	8.046907	0.000246	-0.004789	0.000736	-0.684814	0.356201	-0.314453	0.326166	-0.281108	-0.089055	-0.898144
23526		5.459005	-0.235983	8.036924	-0.000185	-0.006821	0.000105	-0.682129	0.341064	-0.317871	0.326213	-0.281130	-0.089069	-0.898119
23527		5.457787	-0.234400	8.022631	0.001140	-0.004516	0.000567	-0.678955	0.347412	-0.312744	0.326103	-0.281072	-0.089085	-0.898176
23528		5.453355	-0.251199	8.049443	0.000944	-0.000483	0.000091	-0.682129	0.343506	-0.312500	0.326064	-0.281006	-0.089074	-0.898211
23529		5.453630	-0.251072	8.049261	0.000570	-0.002258	0.000284	-0.688232	0.346436	-0.310059	0.325953	-0.280965	-0.089059	-0.898266
23530		5.444459	-0.237486	8.052178	-0.000432	-0.002032	-0.000631	-0.681885	0.347412	-0.305664	0.325815	-0.280958	-0.089023	-0.898322
23531		5.442975	-0.235866	8.038069	-0.000351	-0.006579	-0.001801	-0.673828	0.353760	-0.312988	0.325676	-0.281018	-0.088998	-0.898356
23532		5.454069	-0.222021	8.036976	-0.001027	-0.007846	0.000533	-0.679199	0.347900	-0.316650	0.325749	-0.281042	-0.089005	-0.898321
23533		5.455266	-0.236149	8.034586	-0.001532	-0.004319	0.001636	-0.674805	0.352539	-0.317871	0.325760	-0.281006	-0.088996	-0.898329
23534		5.446299	-0.236550	8.035797	0.000570	-0.002257	0.000283	-0.682373	0.348877	-0.308838	0.325860	-0.280928	-0.089019	-0.898315
23535		5.449171	-0.251668	8.047410	0.001039	-0.003005	0.000047	-0.676025	0.350586	-0.313232	0.325789	-0.280926	-0.089001	-0.898343
23536		5.453560	-0.233181	8.069477	0.000607	-0.005036	-0.000584	-0.677734	0.347168	-0.315674	0.325806	-0.280910	-0.089016	-0.898341
23537		5.449815	-0.230115	8.041769	-0.000170	-0.004794	0.001231	-0.678223	0.346680	-0.312256	0.325806	-0.280878	-0.089021	-0.898351
23538		5.438775	-0.256492	8.026129	-0.002124	-0.005097	-0.000337	-0.680176	0.344727	-0.320068	0.325743	-0.280878	-0.088994	-0.898376
23539		5.460374	-0.222959	8.032668	-0.001070	-0.006077	0.000836	-0.674561	0.348145	-0.303223	0.325724	-0.280837	-0.089009	-0.898394
23540		5.443298	-0.244911	8.039739	-0.000221	-0.004038	0.000971	-0.675293	0.353760	-0.318115	0.325654	-0.280874	-0.088961	-0.898413
23541		5.443091	-0.251296	8.031523	-0.002072	-0.005851	-0.000078	-0.679443	0.348145	-0.315918	0.325760	-0.280849	-0.088976	-0.898381
23542		5.437193	-0.239864	8.047352	-0.002805	-0.007375	0.001434	-0.682861	0.354248	-0.317871	0.325752	-0.280861	-0.088959	-0.898381
23543		5.468755	-0.234036	8.048831	-0.003280	-0.007638	0.001106	-0.685547	0.353271	-0.316162	0.325808	-0.280880	-0.088950	-0.898356
23544		5.438949	-0.247388	8.037773	-0.002497	-0.006868	-0.000146	-0.678223	0.349854	-0.324219	0.325807	-0.280900	-0.088938	-0.898351
23545		5.452355	-0.235588	8.050219	-0.002914	-0.006875	0.000350	-0.677979	0.354736	-0.319336	0.325883	-0.280851	-0.088961	-0.898337
23546		5.462022	-0.241925	8.040143	-0.001179	-0.005576	-0.000248	-0.680908	0.345459	-0.319336	0.325986	-0.280819	-0.088986	-0.898307
23547		5.454523	-0.236437	8.048726	-0.001998	-0.003569	0.001872	-0.680176	0.345215	-0.314941	0.325957	-0.280763	-0.088965	-0.898337
23548		5.462661	-0.235090	8.032905	0.000300	-0.005538	0.000991	-0.687744	0.354980	-0.309814	0.325893	-0.280746	-0.088965	-0.898366
23549		5.453925	-0.249124	8.032404	-0.000747	-0.003546	0.000383	-0.686279	0.343506	-0.308105	0.325865	-0.280771	-0.088930	-0.898371
23550		5.447531	-0.237064	8.048614	0.001559	-0.004504	0.000066	-0.677979	0.353760	-0.310791	0.325680	-0.280789	-0.088903	-0.898435
23551		5.458061	-0.236802	8.046317	-0.000754	-0.004556	-0.000181	-0.682373	0.349854	-0.321533	0.325705	-0.280798	-0.088891	-0.898425
23552		5.467255	-0.242783	8.036559	0.000146	-0.003274	0.000213	-0.676025	0.351562	-0.316406	0.325745	-0.280723	-0.088917	-0.898431
23553		5.456991	-0.248846	8.030330	0.000343	-0.002271	-0.002448	-0.683838	0.351074	-0.310547	0.325783	-0.280657	-0.088940	-0.898436
23554		5.451510	-0.244101	8.052718	0.002519	-0.002964	0.001283	-0.680664	0.346680	-0.312744	0.325756	-0.280646	-0.088938	-0.898449
23555		5.441210	-0.236175	8.048099	0.001236	-0.001999	-0.002618	-0.679199	0.351562	-0.312744	0.325665	-0.280600	-0.088940	-0.898496
23556		5.450332	-0.241765	8.038402	0.000191	-0.005038	-0.000091	-0.679443	0.351562	-0.315918	0.325672	-0.280599	-0.088942	-0.898494
23557		5.463387	-0.229357	8.051100	0.000191	-0.005038	-0.000092	-0.683350	0.349609	-0.308838	0.325704	-0.280578	-0.088958	-0.898487
23558		5.443752	-0.249341	8.044822	0.000981	-0.003258	-0.000780	-0.681641	0.350098	-0.313721	0.325617	-0.280583	-0.088937	-0.898519
23559		5.444483	-0.235529	8.045905	0.000258	-0.003771	0.001296	-0.668701	0.356445	-0.319092	0.325611	-0.280566	-0.088929	-0.898527
23560		5.453713	-0.255182	8.034543	0.000667	-0.004773	0.000235	-0.677734	0.348877	-0.303711	0.325825	-0.280508	-0.088989	-0.898462
23561		5.447651	-0.243223	8.050541	-0.002189	-0.006357	-0.001725	-0.679688	0.357178	-0.310547	0.325705	-0.280580	-0.088935	-0.898489
23562		5.459841	-0.237186	8.055457	-0.001074	-0.007080	0.000269	-0.683838	0.353760	-0.315918	0.325760	-0.280630	-0.088928	-0.898454
23563		5.467243	-0.241830	8.031747	-0.000011	-0.007049	0.002005	-0.686035	0.349854	-0.307617	0.325805	-0.280647	-0.088938	-0.898431
23564		5.450319	-0.249795	8.040360	-0.000031	-0.004041	-0.002257	-0.680420	0.344238	-0.308594	0.325675	-0.280674	-0.088907	-0.898473
23565		5.461794	-0.243340	8.045769	0.000572	-0.002254	0.000280	-0.680176	0.355225	-0.308350	0.325556	-0.280658	-0.088872	-0.898524
23566		5.460140	-0.227863	8.033325	0.001025	-0.005021	-0.001086	-0.681152	0.348145	-0.312012	0.325554	-0.280686	-0.088870	-0.898517
23567		5.452500	-0.249187	8.038900	0.000624	-0.003008	0.000539	-0.682129	0.342529	-0.319092	0.325510	-0.280664	-0.088857	-0.898541
23568		5.461671	-0.241356	8.030714	0.000727	-0.004515	0.001057	-0.685791	0.348389	-0.315918	0.325457	-0.280610	-0.088874	-0.898575
23569		5.446760	-0.236958	8.054706	0.001405	-0.002239	-0.000714	-0.684570	0.348633	-0.319336	0.325402	-0.280561	-0.088879	-0.898610
23570		5.446017	-0.215427	8.050004	0.000632	-0.001997	0.001103	-0.686035	0.354980	-0.313721	0.325408	-0.280492	-0.088887	-0.898628
23571		5.450131	-0.252077	8.066001	-0.000328	-0.003535	-0.000114	-0.683838	0.341553	-0.314209	0.325404	-0.280489	-0.088870	-0.898632
23572		5.447324	-0.242706	8.045973	0.001977	-0.004492	-0.000434	-0.680176	0.348877	-0.309326	0.325276	-0.280461	-0.088879	-0.898686
23573		5.457851	-0.228543	8.045234	0.000140	-0.004281	-0.000352	-0.679443	0.352539	-0.316162	0.325211	-0.280472	-0.088857	-0.898709
23574		5.446852	-0.240903	8.031150	-0.000708	-0.006316	-0.000487	-0.679932	0.351807	-0.318359	0.325250	-0.280471	-0.088872	-0.898694
23575		5.446996	-0.233664	8.024251	-0.002322	-0.007099	0.001760	-0.676270	0.343750	-0.315430	0.325315	-0.280475	-0.088872	-0.898669
23576		5.450711	-0.235617	8.036874	-0.000172	-0.005795	0.000662	-0.680664	0.355469	-0.315918	0.325292	-0.280453	-0.088883	-0.898683
23577		5.433749	-0.243896	8.045539	-0.002061	-0.004830	0.000486	-0.681396	0.341553	-0.314697	0.325358	-0.280450	-0.088872	-0.898661
23578		5.451748	-0.215172	8.030933	-0.002850	-0.006608	0.001174	-0.686523	0.350098	-0.317871	0.325251	-0.280461	-0.088835	-0.898700
23579		5.457871	-0.246138	8.053925	-0.000120	-0.006547	0.000920	-0.684082	0.350098	-0.313965	0.325234	-0.280462	-0.088843	-0.898705
23580		5.460247	-0.240286	8.060676	-0.001645	-0.004821	-0.000011	-0.677734	0.351318	-0.315430	0.325189	-0.280467	-0.088816	-0.898723
23581		5.449488	-0.239259	8.048001	-0.000432	-0.008060	0.001934	-0.682129	0.347168	-0.314697	0.325250	-0.280486	-0.088832	-0.898693
23582		5.459376	-0.245705	8.037709	-0.002321	-0.007095	0.001759	-0.681885	0.349365	-0.310547	0.325211	-0.280509	-0.088807	-0.898702
23583		5.452447	-0.240368	8.045963	-0.001964	-0.007343	0.000438	-0.681885	0.342529	-0.319580	0.325146	-0.280559	-0.088773	-0.898713
23584		5.450268	-0.231723	8.025473	-0.002380	-0.007350	0.000935	-0.679443	0.352295	-0.311279	0.325101	-0.280547	-0.088773	-0.898734
23585		5.466294	-0.235078	8.049714	-0.001019	-0.007824	0.000524	-0.678467	0.347412	-0.318115	0.325101	-0.280594	-0.088764	-0.898720
23586		5.455647	-0.247631	8.035382	-0.001184	-0.006574	-0.000816	-0.691650	0.347656	-0.304199	0.325112	-0.280575	-0.088785	-0.898720
23587		5.439125	-0.228415	8.046960	-0.000958	-0.007567	0.001347	-0.683594	0.352051	-0.310303	0.324893	-0.280677	-0.088704	-0.898775
23588		5.462490	-0.244007	8.054256	-0.004120	-0.009651	0.000970	-0.685303	0.345459	-0.312500	0.324833	-0.280769	-0.088650	-0.898773
23589		5.461748	-0.229270	8.041163	-0.000655	-0.007061	-0.000233	-0.681641	0.348145	-0.311279	0.324721	-0.280796	-0.088634	-0.898807
23590		5.473749	-0.250478	8.043008	0.000193	-0.005028	-0.000097	-0.690918	0.344727	-0.314697	0.324664	-0.280801	-0.088623	-0.898827
23591		5.455633	-0.237175	8.047312	-0.001176	-0.005562	-0.000252	-0.687500	0.353516	-0.313232	0.324516	-0.280809	-0.088592	-0.898881
23592		5.478509	-0.238819	8.056520	-0.002370	-0.006337	0.001499	-0.681152	0.361328	-0.306152	0.324474	-0.280849	-0.088546	-0.898888
23593		5.459414	-0.245516	8.051518	-0.000300	-0.007308	-0.001554	-0.682373	0.355469	-0.314941	0.324449	-0.280930	-0.088515	-0.898875
23594		5.451397	-0.231978	8.053768	-0.001078	-0.008075	-0.000301	-0.685547	0.348633	-0.321289	0.324476	-0.280964	-0.088522	-0.898854
23595		5.463506	-0.253148	8.055535	0.000609	-0.005019	-0.000596	-0.685791	0.347168	-0.319824	0.324495	-0.280914	-0.088564	-0.898859
23596		5.462053	-0.251537	8.041345	-0.001289	-0.005064	-0.001334	-0.678223	0.346191	-0.308105	0.324469	-0.280878	-0.088577	-0.898878
23597		5.464505	-0.245513	8.048063	-0.000177	-0.006794	0.000091	-0.687500	0.351074	-0.315430	0.324404	-0.280912	-0.088564	-0.898892
23598		5.463270	-0.244166	8.033716	-0.001590	-0.005567	0.000245	-0.680664	0.356201	-0.312012	0.324360	-0.280920	-0.088541	-0.898907
23599		5.454856	-0.244477	8.034645	-0.000291	-0.006297	-0.000990	-0.682861	0.354980	-0.316162	0.324376	-0.280945	-0.088541	-0.898894
23600		5.477655	-0.231880	8.045495	0.000142	-0.004273	-0.000357	-0.681396	0.351318	-0.316406	0.324417	-0.280925	-0.088552	-0.898885
23601		5.448240	-0.252192	8.041160	0.000688	-0.002746	0.001357	-0.681152	0.350342	-0.314209	0.324470	-0.280876	-0.088562	-0.898880
23602		5.468024	-0.251844	8.037276	0.000627	-0.003002	0.000534	-0.686523	0.352783	-0.321289	0.324484	-0.280841	-0.088565	-0.898885
23603		5.449749	-0.224820	8.043321	-0.001174	-0.005558	-0.000253	-0.674316	0.347412	-0.315674	0.324517	-0.280816	-0.088581	-0.898880
23604		5.450790	-0.252465	8.039423	-0.001174	-0.005558	-0.000253	-0.687500	0.353760	-0.311768	0.324568	-0.280791	-0.088601	-0.898867
23605		5.454334	-0.240531	8.053791	-0.001166	-0.004550	0.000312	-0.683350	0.351807	-0.314453	0.324515	-0.280812	-0.088562	-0.898883
23606		5.466380	-0.248244	8.057171	-0.000538	-0.007551	0.000845	-0.682617	0.349121	-0.312012	0.324516	-0.280839	-0.088563	-0.898875
23607		5.454496	-0.239368	8.038485	-0.000176	-0.006791	0.000090	-0.675049	0.348877	-0.315430	0.324472	-0.280863	-0.088558	-0.898883
23608		5.446279	-0.239916	8.039288	-0.002313	-0.007083	0.001756	-0.683105	0.353760	-0.318848	0.324543	-0.280866	-0.088562	-0.898856
23609		5.465749	-0.232425	8.028785	-0.001015	-0.007812	0.000519	-0.676758	0.353760	-0.320068	0.324597	-0.280875	-0.088583	-0.898832
23610		5.459985	-0.234538	8.043115	-0.002004	-0.005571	0.000742	-0.681641	0.356201	-0.315430	0.324722	-0.280845	-0.088605	-0.898794
23611		5.461062	-0.248460	8.040780	-0.000344	-0.005540	-0.001250	-0.687256	0.345459	-0.320068	0.324765	-0.280843	-0.088621	-0.898778
23612		5.455021	-0.236550	8.056912	-0.001165	-0.004548	0.000312	-0.681885	0.350586	-0.310791	0.324718	-0.280804	-0.088617	-0.898807
23613		5.463135	-0.235141	8.040958	-0.001588	-0.005562	0.000244	-0.681152	0.353027	-0.311035	0.324682	-0.280828	-0.088588	-0.898816
23614		5.458484	-0.244828	8.061343	-0.000528	-0.006540	0.001409	-0.683838	0.359131	-0.312500	0.324692	-0.280860	-0.088575	-0.898803
23615		5.473713	-0.255210	8.028517	0.000142	-0.004269	-0.000360	-0.687012	0.351562	-0.314697	0.324729	-0.280867	-0.088571	-0.898788
23616		5.459178	-0.237264	8.054075	-0.000865	-0.004043	-0.001268	-0.678711	0.356934	-0.314209	0.324680	-0.280857	-0.088556	-0.898810
23617		5.448354	-0.222503	8.043068	-0.002797	-0.008349	0.000863	-0.678711	0.345459	-0.308105	0.324752	-0.280902	-0.088548	-0.898771
23618		5.460948	-0.258074	8.042843	-0.001682	-0.010077	0.002285	-0.680664	0.347656	-0.313232	0.324695	-0.280979	-0.088523	-0.898770
23619		5.460032	-0.243084	8.029859	0.000726	-0.005508	0.000479	-0.679932	0.350098	-0.312500	0.324677	-0.280972	-0.088532	-0.898778
23620		5.460741	-0.243058	8.029378	-0.000963	-0.001532	-0.001217	-0.690918	0.352539	-0.318359	0.324659	-0.280931	-0.088512	-0.898799
23621		5.463821	-0.244561	8.042488	0.000619	-0.004005	-0.000035	-0.682129	0.352051	-0.316162	0.324635	-0.280903	-0.088517	-0.898816
23622		5.456496	-0.252343	8.049518	-0.000705	-0.006296	-0.000496	-0.681885	0.352051	-0.312256	0.324648	-0.280903	-0.088527	-0.898810
23623		5.464913	-0.237071	8.034941	-0.001596	-0.006565	-0.000323	-0.676025	0.347900	-0.312012	0.324631	-0.280930	-0.088513	-0.898809
23624		5.465048	-0.243695	8.026428	-0.003263	-0.007601	0.001103	-0.681396	0.350830	-0.312500	0.324634	-0.280962	-0.088489	-0.898801
23625		5.448276	-0.252117	8.035123	-0.000272	-0.004274	0.000137	-0.678711	0.344971	-0.311035	0.324626	-0.280954	-0.088480	-0.898807
23626		5.459902	-0.259644	8.038765	-0.000325	-0.003523	-0.000120	-0.682373	0.350830	-0.317627	0.324575	-0.280932	-0.088465	-0.898834
23627		5.464679	-0.241826	8.060727	-0.002830	-0.005580	0.001738	-0.684082	0.350098	-0.315674	0.324607	-0.280926	-0.088446	-0.898826
23628		5.461007	-0.253010	8.031181	-0.001435	-0.008817	0.000447	-0.675293	0.354248	-0.303711	0.324588	-0.280961	-0.088448	-0.898822
23629		5.465187	-0.255146	8.043532	-0.003262	-0.007598	0.001103	-0.682861	0.347168	-0.315674	0.324588	-0.281044	-0.088395	-0.898801
23630		5.454664	-0.254462	8.030714	-0.001786	-0.008567	0.001768	-0.686035	0.350586	-0.313477	0.324570	-0.281072	-0.088389	-0.898800
23631		5.476745	-0.248564	8.033570	-0.001956	-0.007320	0.000430	-0.679932	0.356934	-0.310059	0.324524	-0.281106	-0.088366	-0.898808
23632		5.461361	-0.264616	8.048147	-0.002063	-0.005817	-0.000084	-0.679199	0.347412	-0.314453	0.324550	-0.281140	-0.088342	-0.898790
23633		5.468737	-0.242025	8.027446	-0.002802	-0.009345	0.000293	-0.682861	0.348633	-0.307861	0.324535	-0.281179	-0.088337	-0.898784
23634		5.480077	-0.256023	8.022835	-0.000956	-0.008550	0.000769	-0.686279	0.346436	-0.319092	0.324462	-0.281243	-0.088313	-0.898792
23635		5.462390	-0.243108	8.027001	-0.001882	-0.006057	0.001820	-0.682861	0.357178	-0.321289	0.324444	-0.281228	-0.088303	-0.898804
23636		5.467103	-0.252740	8.045803	-0.001270	-0.003039	-0.000205	-0.678711	0.352783	-0.302979	0.324541	-0.281173	-0.088319	-0.898785
23637		5.473655	-0.243615	8.024046	-0.001162	-0.004540	0.000309	-0.675293	0.351318	-0.317383	0.324501	-0.281217	-0.088271	-0.898791
23638		5.466217	-0.251855	8.031164	-0.001990	-0.004554	0.001306	-0.684326	0.352783	-0.311035	0.324593	-0.281183	-0.088277	-0.898767
23639		5.449284	-0.246608	8.041634	-0.001044	-0.005035	0.001388	-0.679688	0.348877	-0.312744	0.324580	-0.281200	-0.088249	-0.898769
23640		5.457299	-0.258941	8.024057	-0.001108	-0.005290	0.000565	-0.681641	0.343506	-0.314453	0.324572	-0.281198	-0.088238	-0.898774
23641		5.469463	-0.239297	8.030538	-0.001000	-0.006791	0.001078	-0.683594	0.359863	-0.307129	0.324519	-0.281200	-0.088231	-0.898793
23642		5.466975	-0.230184	8.010200	0.000719	-0.006506	-0.000095	-0.681152	0.349121	-0.316650	0.324530	-0.281253	-0.088225	-0.898773
23643		5.480079	-0.259026	8.017988	-0.000207	-0.004014	0.000957	-0.677979	0.345215	-0.308105	0.324551	-0.281216	-0.088231	-0.898776
23644		5.468575	-0.243922	8.007486	-0.000019	-0.002010	-0.001134	-0.676270	0.352295	-0.311035	0.324481	-0.281186	-0.088208	-0.898813
23645		5.457674	-0.248859	8.051144	-0.000389	-0.003773	-0.000946	-0.683350	0.357666	-0.307129	0.324507	-0.281170	-0.088209	-0.898809
23646		5.466870	-0.241119	8.042803	-0.000152	-0.004764	0.001214	-0.683838	0.355469	-0.315674	0.324515	-0.281206	-0.088182	-0.898798
23647		5.465304	-0.239800	8.028633	-0.001107	-0.005288	0.000564	-0.686035	0.353760	-0.312256	0.324551	-0.281205	-0.088178	-0.898785
23648		5.460730	-0.249468	8.049053	-0.001594	-0.006554	-0.000328	-0.688721	0.354004	-0.309326	0.324518	-0.281237	-0.088158	-0.898789
23649		5.477064	-0.253608	8.023715	0.001512	-0.003729	-0.000216	-0.683350	0.351074	-0.307373	0.324462	-0.281244	-0.088145	-0.898808
23650		5.466694	-0.245996	8.019256	-0.001497	-0.001040	-0.001797	-0.687012	0.353271	-0.309326	0.324384	-0.281229	-0.088094	-0.898846
23651		5.461204	-0.241723	8.041933	-0.000423	-0.001012	-0.000068	-0.679199	0.349365	-0.316650	0.324330	-0.281210	-0.088049	-0.898876
23652		5.483214	-0.256564	8.049996	0.001468	-0.001974	0.000095	-0.676758	0.359375	-0.312744	0.324370	-0.281140	-0.088074	-0.898881
23653		5.459626	-0.253731	8.026158	-0.001171	-0.005541	-0.000260	-0.682129	0.355469	-0.318604	0.324455	-0.281151	-0.088079	-0.898847
23654		5.463323	-0.241500	8.040500	0.001025	-0.004995	-0.001108	-0.679443	0.349121	-0.305664	0.324507	-0.281121	-0.088117	-0.898833
23655		5.471491	-0.239731	8.024420	-0.000520	-0.006525	0.001401	-0.681885	0.353271	-0.309082	0.324468	-0.281166	-0.088091	-0.898836
23656		5.454499	-0.247725	8.033369	0.000448	-0.002752	-0.001378	-0.678955	0.352295	-0.310547	0.324441	-0.281155	-0.088079	-0.898850
23657		5.468762	-0.229071	8.053665	0.000557	-0.004252	-0.000865	-0.678467	0.352539	-0.315674	0.324442	-0.281148	-0.088084	-0.898852
23658		5.458681	-0.248909	8.045773	-0.000334	-0.004521	-0.000691	-0.683105	0.346924	-0.308350	0.324481	-0.281123	-0.088099	-0.898844
23659		5.466850	-0.247281	8.029682	-0.001061	-0.007040	0.000252	-0.680664	0.349121	-0.309570	0.324400	-0.281165	-0.088074	-0.898863
23660		5.458486	-0.247510	8.030668	0.001209	-0.005235	0.000794	-0.679688	0.345947	-0.312256	0.324379	-0.281171	-0.088076	-0.898868
23661		5.459335	-0.247441	8.030093	0.000154	-0.003254	0.000201	-0.680176	0.353760	-0.321045	0.324351	-0.281139	-0.088070	-0.898889
23662		5.455607	-0.250843	8.058403	-0.000737	-0.003523	0.000376	-0.676270	0.349609	-0.307129	0.324434	-0.281084	-0.088090	-0.898874
23663		5.473258	-0.249157	8.040549	-0.001061	-0.007038	0.000252	-0.677490	0.356689	-0.311279	0.324418	-0.281125	-0.088076	-0.898868
23664		5.455574	-0.235903	8.044805	-0.000712	-0.007285	-0.001071	-0.681152	0.347900	-0.303955	0.324460	-0.281157	-0.088089	-0.898842
23665		5.462449	-0.240337	8.021149	-0.000149	-0.004760	0.001212	-0.681152	0.351807	-0.314697	0.324392	-0.281190	-0.088051	-0.898860
23666		5.455002	-0.248335	8.028324	-0.000204	-0.004010	0.000956	-0.685303	0.345947	-0.305420	0.324419	-0.281168	-0.088050	-0.898857
23667		5.458500	-0.249743	8.041193	0.002513	-0.004957	0.000118	-0.679199	0.346680	-0.312012	0.324309	-0.281187	-0.088041	-0.898892
23668		5.460841	-0.243385	8.048044	-0.000876	-0.005034	-0.001839	-0.684082	0.351074	-0.311279	0.324262	-0.281178	-0.088039	-0.898912
23669		5.460543	-0.249507	8.039813	0.000384	-0.005247	0.001792	-0.678711	0.361084	-0.317383	0.324249	-0.281188	-0.088028	-0.898914
23670		5.467302	-0.240435	8.017839	-0.001517	-0.005290	0.001063	-0.678711	0.350586	-0.315674	0.324375	-0.281183	-0.088037	-0.898870
23671		5.462581	-0.236407	8.040034	-0.000204	-0.004009	0.000955	-0.684570	0.351807	-0.312012	0.324416	-0.281151	-0.088045	-0.898864
23672		5.463354	-0.236553	8.039505	0.000274	-0.003747	0.001279	-0.685791	0.346436	-0.316162	0.324406	-0.281143	-0.088031	-0.898872
23673		5.472307	-0.242441	8.029663	0.000567	-0.003245	-0.000300	-0.678955	0.345459	-0.310303	0.324354	-0.281101	-0.088031	-0.898903
23674		5.445599	-0.250353	8.040599	0.000492	-0.004502	-0.001691	-0.683594	0.353760	-0.311035	0.324294	-0.281088	-0.088035	-0.898929
23675		5.467236	-0.230213	8.045310	-0.001049	-0.006030	0.000819	-0.676758	0.348633	-0.312988	0.324285	-0.281116	-0.088016	-0.898925
23676		5.467013	-0.264001	8.033765	-0.001114	-0.006284	-0.000005	-0.680420	0.355713	-0.313965	0.324296	-0.281120	-0.088020	-0.898920
23677		5.447778	-0.243164	8.032300	-0.000691	-0.005273	0.000063	-0.684814	0.353271	-0.309814	0.324339	-0.281122	-0.088023	-0.898903
23678		5.461268	-0.244745	8.043048	-0.000526	-0.007520	0.000830	-0.676270	0.346924	-0.313232	0.324313	-0.281171	-0.088009	-0.898899
23679		5.469555	-0.257097	8.025196	-0.001939	-0.006298	0.000994	-0.682373	0.349365	-0.308838	0.324323	-0.281175	-0.088001	-0.898894
23680		5.462345	-0.251682	8.033851	-0.002104	-0.004050	0.000227	-0.685303	0.347412	-0.310547	0.324271	-0.281186	-0.087958	-0.898914
23681		5.447925	-0.247870	8.057999	-0.001214	-0.003781	0.000051	-0.682861	0.349365	-0.311768	0.324194	-0.281184	-0.087921	-0.898946
23682		5.454692	-0.238583	8.036002	-0.000233	-0.007016	-0.000750	-0.680420	0.352051	-0.308594	0.324149	-0.281207	-0.087923	-0.898955
23683		5.454859	-0.244866	8.027441	-0.001893	-0.008048	0.000681	-0.683594	0.355469	-0.312744	0.324132	-0.281264	-0.087901	-0.898945
23684		5.459083	-0.246874	8.039812	-0.002492	-0.007814	-0.000723	-0.682617	0.352539	-0.309082	0.324122	-0.281310	-0.087886	-0.898936
23685		5.448457	-0.245835	8.027108	-0.001480	-0.008039	0.000180	-0.685303	0.347168	-0.315186	0.324091	-0.281366	-0.087868	-0.898931
23686		5.469266	-0.245992	8.022265	-0.002783	-0.008315	0.000856	-0.673584	0.353516	-0.315186	0.324045	-0.281399	-0.087848	-0.898940
23687		5.469315	-0.238948	8.015398	-0.002526	-0.005057	0.000158	-0.683594	0.353760	-0.312012	0.324131	-0.281384	-0.087851	-0.898913
23688		5.455498	-0.262778	8.035899	-0.002259	-0.009803	0.000866	-0.693848	0.360840	-0.316406	0.324124	-0.281452	-0.087839	-0.898895
23689		5.461470	-0.246136	8.007593	-0.001112	-0.006278	-0.000008	-0.680420	0.343506	-0.313965	0.324112	-0.281480	-0.087824	-0.898892
23690		5.478824	-0.256821	8.037780	-0.000343	-0.005514	-0.001264	-0.675049	0.354980	-0.310791	0.324060	-0.281462	-0.087833	-0.898916
23691		5.463609	-0.246077	8.006135	0.000624	-0.003990	-0.000048	-0.674561	0.349609	-0.306396	0.324126	-0.281446	-0.087850	-0.898895
23692		5.468415	-0.241524	8.026582	0.000212	-0.003997	0.000452	-0.683350	0.351807	-0.307373	0.324137	-0.281445	-0.087843	-0.898892
23693		5.471893	-0.243145	8.039479	-0.000267	-0.004258	0.000128	-0.683350	0.355713	-0.319336	0.324098	-0.281459	-0.087819	-0.898905
23694		5.463442	-0.243474	8.040572	-0.001056	-0.007025	0.000247	-0.679443	0.345459	-0.311768	0.324149	-0.281460	-0.087838	-0.898884
23695		5.472900	-0.249495	8.030332	-0.000277	-0.005259	-0.000440	-0.681152	0.345947	-0.315430	0.324111	-0.281451	-0.087838	-0.898900
23696		5.465366	-0.257195	8.037628	0.000991	-0.002231	-0.000235	-0.685791	0.347656	-0.312500	0.324095	-0.281390	-0.087849	-0.898924
23697		5.451269	-0.254009	8.012040	0.000669	-0.005739	-0.000362	-0.676270	0.354492	-0.306885	0.324033	-0.281392	-0.087851	-0.898946
23698		5.464642	-0.255420	8.022857	-0.001167	-0.005527	-0.000264	-0.688965	0.341309	-0.309570	0.324055	-0.281419	-0.087839	-0.898930
23699		5.468380	-0.243362	8.037219	-0.000332	-0.004510	-0.000696	-0.678711	0.348145	-0.313721	0.323903	-0.281420	-0.087805	-0.898988
23700		5.450023	-0.243789	8.040419	-0.000734	-0.003515	0.000373	-0.680420	0.357178	-0.312988	0.323916	-0.281389	-0.087802	-0.898994
23701		5.460344	-0.257572	8.036395	-0.001156	-0.004524	0.000305	-0.677979	0.356201	-0.307129	0.323966	-0.281388	-0.087795	-0.898976
23702		5.462758	-0.238144	8.044837	-0.001512	-0.005280	0.001060	-0.683838	0.357178	-0.311279	0.324002	-0.281419	-0.087772	-0.898956
23703		5.459853	-0.243023	8.023073	-0.001044	-0.006020	0.000814	-0.682373	0.358887	-0.313721	0.324021	-0.281448	-0.087758	-0.898942
23704		5.452775	-0.251162	8.030058	-0.001044	-0.006020	0.000814	-0.678223	0.348877	-0.302002	0.324075	-0.281466	-0.087756	-0.898917
23705		5.453927	-0.237692	8.030909	-0.001222	-0.004777	-0.000520	-0.683838	0.346436	-0.318359	0.324016	-0.281500	-0.087719	-0.898931
23706		5.472401	-0.243658	8.019146	-0.001257	-0.002025	0.000363	-0.687500	0.349609	-0.311768	0.324000	-0.281438	-0.087705	-0.898957
23707		5.467816	-0.239823	8.041350	-0.001755	-0.007530	0.002324	-0.681885	0.347168	-0.314941	0.323957	-0.281481	-0.087674	-0.898963
23708		5.455594	-0.244881	8.021284	-0.001177	-0.006525	-0.000834	-0.677979	0.357910	-0.302734	0.323925	-0.281481	-0.087678	-0.898974
23709		5.466608	-0.244905	8.018415	-0.000998	-0.007767	0.000499	-0.681396	0.351074	-0.310059	0.323939	-0.281558	-0.087659	-0.898946
23710		5.460915	-0.260630	8.031285	-0.000621	-0.005009	0.000882	-0.685547	0.361084	-0.308838	0.323933	-0.281566	-0.087645	-0.898947
23711		5.459152	-0.231749	8.020490	-0.000377	-0.002758	-0.000383	-0.682373	0.355469	-0.306885	0.323942	-0.281571	-0.087620	-0.898945
23712		5.465150	-0.248900	8.045317	-0.001499	-0.004275	0.001628	-0.687012	0.354004	-0.310547	0.323945	-0.281596	-0.087581	-0.898940
23713		5.464670	-0.255327	8.037170	-0.000142	-0.004748	0.001204	-0.680664	0.355469	-0.313965	0.323924	-0.281608	-0.087560	-0.898945
23714		5.481010	-0.245976	8.013193	-0.001054	-0.007018	0.000243	-0.674805	0.348633	-0.299316	0.323958	-0.281628	-0.087567	-0.898926
23715		5.458984	-0.236001	8.046520	-0.000343	-0.005507	-0.001267	-0.676270	0.355225	-0.313721	0.323908	-0.281670	-0.087547	-0.898933
23716		5.479153	-0.249550	8.040388	-0.001510	-0.005275	0.001058	-0.681885	0.351807	-0.312256	0.323981	-0.281667	-0.087548	-0.898908
23717		5.478449	-0.269444	8.030749	0.000991	-0.002228	-0.000238	-0.685059	0.359863	-0.318848	0.323984	-0.281628	-0.087552	-0.898919
23718		5.460137	-0.242254	8.037268	0.000270	-0.004739	0.000703	-0.675293	0.353271	-0.307129	0.324048	-0.281609	-0.087569	-0.898900
23719		5.459753	-0.234762	8.030706	-0.001155	-0.004520	0.000303	-0.686279	0.343994	-0.314453	0.324077	-0.281619	-0.087556	-0.898888
23720		5.459347	-0.254920	8.020855	-0.001453	-0.006022	0.001313	-0.681885	0.351074	-0.315186	0.324014	-0.281620	-0.087534	-0.898912
23721		5.462036	-0.235480	8.029132	-0.001109	-0.006267	-0.000012	-0.679199	0.350586	-0.312500	0.324015	-0.281622	-0.087538	-0.898911
23722		5.472665	-0.249487	8.024850	-0.001852	-0.005028	0.002383	-0.686279	0.352539	-0.312012	0.324046	-0.281622	-0.087517	-0.898902
23723		5.465407	-0.257693	8.031982	-0.001290	-0.005025	-0.001345	-0.685791	0.348633	-0.314697	0.323997	-0.281631	-0.087500	-0.898918
23724		5.458405	-0.238352	8.042249	-0.001452	-0.006020	0.001312	-0.687256	0.348389	-0.315674	0.323968	-0.281636	-0.087484	-0.898928
23725		5.473249	-0.262801	8.007465	-0.002410	-0.006541	0.000666	-0.681152	0.346924	-0.310059	0.323921	-0.281649	-0.087460	-0.898944
23726		5.440430	-0.245704	8.036769	-0.001588	-0.006526	-0.000336	-0.687500	0.350586	-0.310547	0.323874	-0.281669	-0.087445	-0.898956
23727		5.458230	-0.244038	8.018571	-0.001052	-0.007012	0.000241	-0.682617	0.353027	-0.309570	0.323815	-0.281705	-0.087426	-0.898968
23728		5.482739	-0.253396	8.033200	-0.002341	-0.006286	0.001489	-0.685059	0.344238	-0.310547	0.323810	-0.281740	-0.087394	-0.898962
23729		5.460765	-0.244881	8.016819	-0.001233	-0.005770	-0.001092	-0.684814	0.351318	-0.316162	0.323719	-0.281748	-0.087376	-0.898994
23730		5.465830	-0.254014	8.035491	0.001572	-0.004461	0.000021	-0.683594	0.349854	-0.315430	0.323721	-0.281719	-0.087400	-0.899000
23731		5.456080	-0.246355	8.030711	0.000852	-0.006970	0.000961	-0.685059	0.346924	-0.315674	0.323725	-0.281720	-0.087423	-0.898995
