// Start Time: Unknown
// Update Rate: 40.0Hz
// Filter Profile: human (46.1)
// Firmware Version: 4.6.0
PacketCounter	SampleTimeFine	Acc_X	Acc_Y	Acc_Z	Gyr_X	Gyr_Y	Gyr_Z	Mag_X	Mag_Y	Mag_Z	Quat_q0	Quat_q1	Quat_q2	Quat_q3
23208		9.466633	-1.532796	-1.965957	0.011196	-0.002861	-0.010465	-0.819092	0.278076	-0.283936	0.629902	-0.187712	-0.751778	-0.053077
23209		9.466034	-1.552615	-1.988236	0.009574	-0.003246	-0.009771	-0.811279	0.280029	-0.278809	0.629887	-0.187547	-0.751833	-0.053056
23210		9.469741	-1.545489	-1.976146	0.005511	-0.002568	-0.012902	-0.812256	0.281738	-0.280273	0.629865	-0.187390	-0.751888	-0.053098
23211		9.485353	-1.530270	-1.954961	0.008089	-0.001301	-0.009131	-0.812256	0.279785	-0.280518	0.629865	-0.187242	-0.751925	-0.053090
23212		9.479299	-1.518666	-1.934040	0.010452	-0.000676	-0.008514	-0.809814	0.272949	-0.279541	0.629878	-0.187081	-0.751957	-0.053057
23213		9.460714	-1.502779	-1.965013	0.010404	-0.002264	-0.007683	-0.802979	0.278809	-0.279785	0.629880	-0.186927	-0.751997	-0.053015
23214		9.450661	-1.515636	-2.002860	0.004672	-0.003559	-0.009295	-0.812744	0.279541	-0.277832	0.629854	-0.186802	-0.752048	-0.053039
23215		9.470018	-1.525900	-1.996378	0.002660	-0.003644	-0.010058	-0.806396	0.275635	-0.283203	0.629817	-0.186687	-0.752104	-0.053088
23216		9.489187	-1.570571	-1.968907	0.002132	-0.003243	-0.008210	-0.808105	0.283203	-0.282227	0.629780	-0.186594	-0.752155	-0.053127
23217		9.449604	-1.569784	-1.957945	0.007346	-0.001548	-0.010430	-0.809814	0.284424	-0.281738	0.629772	-0.186445	-0.752199	-0.053130
23218		9.452227	-1.552703	-1.965054	0.014384	-0.006113	-0.008565	-0.814209	0.278320	-0.284668	0.629740	-0.186268	-0.752276	-0.053033
23219		9.475123	-1.524464	-1.966801	0.010100	-0.001222	-0.008357	-0.813477	0.284180	-0.281738	0.629746	-0.186126	-0.752310	-0.052981
23220		9.468303	-1.500559	-1.989125	0.004427	-0.002568	-0.005939	-0.810303	0.284424	-0.277344	0.629728	-0.186056	-0.752344	-0.052958
23221		9.475573	-1.487211	-1.988597	0.001126	-0.003291	-0.008586	-0.805420	0.280518	-0.281006	0.629687	-0.185986	-0.752393	-0.052989
23222		9.483937	-1.550526	-1.950818	0.003207	-0.003258	-0.009471	-0.811035	0.277832	-0.285645	0.629652	-0.185880	-0.752447	-0.053016
23223		9.455707	-1.561313	-1.976881	0.002024	-0.002356	-0.008156	-0.817383	0.284668	-0.284912	0.629633	-0.185795	-0.752482	-0.053042
23224		9.466834	-1.540668	-1.987409	0.003339	-0.000929	-0.009526	-0.807129	0.271729	-0.277344	0.629626	-0.185707	-0.752509	-0.053055
23225		9.482399	-1.525596	-1.966204	0.001259	-0.000963	-0.008640	-0.809326	0.285889	-0.289551	0.629604	-0.185619	-0.752547	-0.053085
23226		9.495228	-1.493879	-1.935856	0.000599	-0.002891	-0.006737	-0.803955	0.275391	-0.278564	0.629592	-0.185589	-0.752564	-0.053092
23227		9.475637	-1.533785	-1.968324	0.006293	-0.003182	-0.009970	-0.814209	0.281250	-0.278809	0.629573	-0.185448	-0.752614	-0.053085
23228		9.475863	-1.531587	-1.968951	0.011942	-0.005060	-0.012372	-0.811279	0.275391	-0.281982	0.629541	-0.185270	-0.752689	-0.053030
23229		9.465575	-1.545871	-1.983198	0.001545	-0.002807	-0.010377	-0.805664	0.279541	-0.283203	0.629520	-0.185165	-0.752730	-0.053068
23230		9.454995	-1.562486	-1.973349	-0.002552	-0.000493	-0.007014	-0.808594	0.275146	-0.279785	0.629524	-0.185145	-0.752728	-0.053111
23231		9.451324	-1.534995	-1.959474	0.007521	-0.002502	-0.012109	-0.811768	0.272461	-0.279053	0.629512	-0.184986	-0.752779	-0.053095
23232		9.468552	-1.525536	-1.967189	0.011618	-0.004817	-0.015467	-0.804199	0.280518	-0.280029	0.629478	-0.184751	-0.752867	-0.053064
23233		9.460974	-1.556313	-1.990981	0.003845	-0.004564	-0.011347	-0.806396	0.283203	-0.289307	0.629451	-0.184670	-0.752910	-0.053056
23234		9.472370	-1.567102	-2.004758	-0.000050	-0.002413	-0.012931	-0.816650	0.279785	-0.288330	0.629478	-0.184617	-0.752897	-0.053096
23235		9.461120	-1.554487	-1.944422	0.002269	-0.000941	-0.013918	-0.809326	0.272217	-0.276123	0.629498	-0.184523	-0.752902	-0.053132
23236		9.466517	-1.553438	-1.960784	0.012576	-0.003919	-0.011009	-0.811279	0.277588	-0.286377	0.629457	-0.184327	-0.752990	-0.053045
23237		9.449903	-1.489613	-1.995782	0.017606	-0.001271	-0.011531	-0.808838	0.285889	-0.276855	0.629518	-0.184125	-0.752998	-0.052912
23238		9.465715	-1.472487	-1.998425	0.004018	-0.003079	-0.009795	-0.813965	0.274658	-0.277832	0.629471	-0.184138	-0.753037	-0.052862
23239		9.482917	-1.497473	-1.985090	-0.003247	-0.001610	-0.012375	-0.814697	0.272949	-0.280273	0.629407	-0.184068	-0.753102	-0.052947
23240		9.478281	-1.527353	-1.948480	-0.000927	-0.002561	-0.010929	-0.803467	0.283936	-0.287109	0.629355	-0.183970	-0.753164	-0.053009
23241		9.472398	-1.547584	-1.931365	0.005948	-0.006157	-0.007367	-0.809570	0.280518	-0.287842	0.629381	-0.183973	-0.753148	-0.052936
23242		9.454158	-1.561942	-1.989758	0.010846	-0.003413	-0.010264	-0.806641	0.282471	-0.277588	0.629436	-0.183874	-0.753131	-0.052861
23243		9.467041	-1.529831	-1.958989	0.005541	0.001424	-0.010450	-0.808105	0.286133	-0.280518	0.629441	-0.183851	-0.753136	-0.052817
23244		9.473049	-1.507652	-1.953339	0.005530	-0.004224	-0.007999	-0.810791	0.281738	-0.282959	0.629418	-0.183910	-0.753146	-0.052739
23245		9.474935	-1.546652	-1.961336	0.009577	-0.003258	-0.009720	-0.814209	0.275146	-0.283936	0.629429	-0.183861	-0.753154	-0.052665
23246		9.474058	-1.534347	-1.980947	0.010498	-0.003960	-0.010107	-0.814941	0.282227	-0.286377	0.629434	-0.183712	-0.753190	-0.052611
23247		9.458681	-1.513244	-1.999947	0.008723	-0.002617	-0.010974	-0.813477	0.278564	-0.286133	0.629469	-0.183679	-0.753172	-0.052569
23248		9.468122	-1.520449	-1.961067	0.000603	-0.002910	-0.006715	-0.808105	0.273438	-0.279541	0.629485	-0.183698	-0.753153	-0.052580
23249		9.480048	-1.510896	-1.952711	0.000509	-0.001212	-0.004255	-0.804688	0.281250	-0.286621	0.629467	-0.183645	-0.753182	-0.052559
23250		9.479116	-1.499034	-1.972164	0.006380	-0.002450	-0.009168	-0.811035	0.273682	-0.279297	0.629542	-0.183638	-0.753125	-0.052508
23251		9.453605	-1.527085	-2.007616	0.008446	-0.005640	-0.010031	-0.812012	0.273438	-0.289062	0.629481	-0.183475	-0.753219	-0.052456
23252		9.460674	-1.549877	-1.962304	0.006161	-0.003084	-0.006645	-0.807373	0.276367	-0.279297	0.629554	-0.183370	-0.753185	-0.052441
23253		9.487431	-1.547057	-1.978115	0.002476	-0.000283	-0.005092	-0.800293	0.272217	-0.286377	0.629544	-0.183356	-0.753200	-0.052394
23254		9.476032	-1.500182	-1.962395	0.004752	-0.000393	-0.005249	-0.807373	0.281738	-0.282715	0.629660	-0.183252	-0.753132	-0.052343
23255		9.458570	-1.493356	-1.997944	0.007443	-0.000017	-0.007201	-0.807617	0.280273	-0.291504	0.629703	-0.183291	-0.753092	-0.052254
23256		9.465524	-1.482262	-1.973215	0.010827	-0.004198	-0.006998	-0.819580	0.273682	-0.283447	0.629829	-0.183285	-0.752995	-0.052161
23257		9.482929	-1.506338	-1.983635	0.001563	-0.002033	-0.007929	-0.814453	0.283936	-0.282227	0.629789	-0.183202	-0.753045	-0.052210
23258		9.466466	-1.545815	-1.955569	-0.002774	-0.001154	-0.004476	-0.812500	0.278076	-0.282959	0.629754	-0.183384	-0.753030	-0.052201
23259		9.477974	-1.556007	-1.992994	0.001525	-0.003617	-0.007095	-0.816162	0.274414	-0.284668	0.629726	-0.183397	-0.753051	-0.052194
23260		9.452928	-1.564204	-1.982693	0.002899	-0.002249	-0.010109	-0.812988	0.266113	-0.285400	0.629720	-0.183301	-0.753077	-0.052238
23261		9.459966	-1.552492	-1.958078	0.008937	-0.001961	-0.007821	-0.808838	0.281494	-0.281006	0.629759	-0.183017	-0.753114	-0.052236
23262		9.475569	-1.536011	-1.960921	0.010715	-0.003304	-0.006950	-0.816895	0.277100	-0.283447	0.629743	-0.183047	-0.753130	-0.052094
23263		9.462745	-1.532599	-1.989367	0.004150	-0.003184	-0.007398	-0.808838	0.279541	-0.281738	0.629710	-0.183032	-0.753161	-0.052080
23264		9.479148	-1.581884	-1.973908	-0.000845	-0.001844	-0.010136	-0.808594	0.276367	-0.281006	0.629691	-0.183086	-0.753163	-0.052087
23265		9.471657	-1.561039	-1.949028	0.003012	-0.003148	-0.010147	-0.814697	0.281494	-0.280762	0.629662	-0.183045	-0.753200	-0.052065
23266		9.446682	-1.569024	-1.938659	0.014309	-0.004435	-0.011694	-0.815430	0.274170	-0.287842	0.629610	-0.183012	-0.753259	-0.051944
23267		9.454396	-1.551472	-1.985691	0.020875	-0.004555	-0.011240	-0.812012	0.285889	-0.283203	0.629679	-0.182791	-0.753263	-0.051830
23268		9.456425	-1.501711	-1.989983	0.010752	-0.001761	-0.013428	-0.812988	0.278076	-0.283447	0.629692	-0.182879	-0.753238	-0.051734
23269		9.489306	-1.511297	-1.978952	0.001347	-0.002710	-0.011052	-0.812012	0.280029	-0.283203	0.629675	-0.182894	-0.753247	-0.051753
23270		9.484931	-1.541308	-1.942127	0.002964	-0.002323	-0.011739	-0.805420	0.280518	-0.288818	0.629666	-0.182934	-0.753245	-0.051748
23271		9.477093	-1.540345	-1.962606	0.010338	-0.002244	-0.011630	-0.813965	0.277588	-0.282227	0.629797	-0.182957	-0.753134	-0.051681
23272		9.438719	-1.513734	-1.977310	0.009512	-0.003251	-0.013692	-0.804688	0.278809	-0.285156	0.629767	-0.182868	-0.753184	-0.051638
23273		9.470408	-1.512720	-1.985783	-0.001013	-0.003359	-0.011657	-0.808838	0.283447	-0.286865	0.629808	-0.182932	-0.753134	-0.051653
23274		9.477514	-1.554300	-1.985683	0.000195	-0.000228	-0.010576	-0.807617	0.275146	-0.276367	0.629882	-0.183107	-0.753029	-0.051664
23275		9.468100	-1.546767	-1.977483	0.006594	-0.001840	-0.011656	-0.804688	0.281006	-0.280762	0.629801	-0.182965	-0.753137	-0.051565
23276		9.463666	-1.540638	-1.985604	0.007697	-0.003497	-0.013722	-0.811523	0.273438	-0.284180	0.629789	-0.182976	-0.753151	-0.051473
23277		9.467427	-1.532729	-1.973668	0.009776	-0.003460	-0.014599	-0.806885	0.275146	-0.282227	0.629800	-0.182801	-0.753185	-0.051460
23278		9.471589	-1.559286	-1.940270	0.006792	-0.001987	-0.010926	-0.812256	0.275879	-0.286865	0.629815	-0.182722	-0.753196	-0.051404
23279		9.457152	-1.512480	-1.984809	0.009647	-0.000110	-0.011340	-0.811035	0.274658	-0.281250	0.629896	-0.182659	-0.753144	-0.051386
23280		9.487297	-1.505333	-1.964037	0.004401	-0.000990	-0.010727	-0.813232	0.280273	-0.279053	0.629873	-0.182583	-0.753183	-0.051362
23281		9.467285	-1.516535	-1.945512	-0.000235	-0.001534	-0.011182	-0.809082	0.279053	-0.283691	0.629787	-0.182664	-0.753236	-0.051355
23282		9.468996	-1.522338	-1.950806	0.007666	-0.005085	-0.012875	-0.805176	0.275635	-0.277832	0.629783	-0.182672	-0.753241	-0.051307
23283		9.479963	-1.555071	-1.986215	0.006428	-0.003350	-0.013172	-0.802490	0.270508	-0.276855	0.629726	-0.182573	-0.753319	-0.051222
23284		9.459300	-1.533838	-1.965272	0.000655	-0.000592	-0.010756	-0.806641	0.279541	-0.283447	0.629687	-0.182418	-0.753392	-0.051178
23285		9.469238	-1.538518	-1.949896	-0.002758	-0.000413	-0.007702	-0.816895	0.279541	-0.291748	0.629720	-0.182591	-0.753321	-0.051196
23286		9.450355	-1.466732	-1.980548	0.004763	0.000367	-0.008467	-0.805908	0.275391	-0.285156	0.629848	-0.182716	-0.753179	-0.051256
23287		9.498582	-1.461353	-1.972045	0.001086	-0.002524	-0.010111	-0.803955	0.281738	-0.280273	0.629896	-0.182730	-0.753135	-0.051269
23288		9.476379	-1.487974	-1.947014	-0.002314	-0.001581	-0.010295	-0.813232	0.281982	-0.285156	0.629875	-0.182901	-0.753113	-0.051251
23289		9.488747	-1.529570	-1.987071	0.004255	-0.004907	-0.009813	-0.810059	0.272217	-0.286621	0.629862	-0.183044	-0.753089	-0.051245
23290		9.454959	-1.562882	-1.994817	-0.001506	-0.001388	-0.010636	-0.812012	0.269531	-0.281738	0.629915	-0.182992	-0.753051	-0.051336
23291		9.446538	-1.567675	-1.943740	-0.002958	-0.000275	-0.008421	-0.816650	0.279297	-0.280273	0.629891	-0.182867	-0.753098	-0.051389
23292		9.458537	-1.501169	-1.934730	0.012551	-0.002281	-0.010114	-0.809082	0.278809	-0.285889	0.629831	-0.182835	-0.753163	-0.051285
23293		9.486202	-1.528142	-1.977162	0.017769	-0.006204	-0.009858	-0.819092	0.284180	-0.285889	0.629874	-0.182810	-0.753143	-0.051145
23294		9.476576	-1.521327	-1.969332	0.003789	-0.001336	-0.009645	-0.808350	0.284180	-0.282959	0.629871	-0.183005	-0.753096	-0.051171
23295		9.463919	-1.516993	-1.997502	0.000373	-0.001212	-0.012232	-0.811279	0.278320	-0.284424	0.629875	-0.183189	-0.753047	-0.051174
23296		9.463885	-1.518007	-1.950311	0.003743	-0.003735	-0.011209	-0.814209	0.276367	-0.275146	0.629872	-0.183225	-0.753041	-0.051181
23297		9.476661	-1.539482	-1.944683	0.002092	-0.002480	-0.009719	-0.803711	0.282715	-0.290039	0.629730	-0.183141	-0.753186	-0.051100
23298		9.465050	-1.546548	-1.953894	0.008581	-0.003269	-0.004392	-0.810059	0.281006	-0.286377	0.629870	-0.183379	-0.753015	-0.051036
23299		9.452332	-1.541586	-2.006092	0.013394	-0.003736	-0.011249	-0.810791	0.282471	-0.285156	0.629923	-0.183420	-0.752965	-0.050966
23300		9.476592	-1.499306	-1.991322	0.008764	-0.004231	-0.006066	-0.812012	0.275635	-0.283691	0.629938	-0.183565	-0.752923	-0.050880
23301		9.484711	-1.498442	-1.947690	0.003395	-0.001000	-0.005448	-0.806396	0.278809	-0.283203	0.629948	-0.183574	-0.752914	-0.050852
23302		9.468255	-1.502446	-1.964473	0.008646	-0.003338	-0.006025	-0.814941	0.278320	-0.284912	0.629969	-0.183609	-0.752896	-0.050735
23303		9.469316	-1.531906	-1.991160	0.013001	-0.003397	-0.007053	-0.807861	0.275879	-0.284424	0.629977	-0.183598	-0.752898	-0.050648
23304		9.471264	-1.517625	-1.974585	0.009706	-0.004112	-0.004044	-0.808594	0.282715	-0.280762	0.630003	-0.183587	-0.752887	-0.050533
23305		9.454716	-1.522057	-1.991486	0.001517	-0.001184	-0.003847	-0.813721	0.278076	-0.281982	0.629979	-0.183747	-0.752874	-0.050437
23306		9.460930	-1.534773	-1.964824	0.007177	-0.003045	-0.006210	-0.817139	0.273926	-0.286377	0.629943	-0.183741	-0.752911	-0.050355
23307		9.463957	-1.550498	-1.974470	0.007786	-0.002710	-0.007275	-0.805176	0.276611	-0.284424	0.629956	-0.183680	-0.752915	-0.050362
23308		9.474362	-1.532173	-1.961584	0.003894	-0.003001	-0.006436	-0.805664	0.275391	-0.274414	0.629990	-0.183705	-0.752884	-0.050311
23309		9.477245	-1.549627	-1.947411	0.002043	-0.001603	-0.005673	-0.814453	0.279785	-0.279297	0.629897	-0.183602	-0.752998	-0.050149
23310		9.465631	-1.556937	-1.956491	0.004438	-0.002597	-0.005864	-0.817139	0.276367	-0.280762	0.629822	-0.183633	-0.753059	-0.050064
23311		9.467772	-1.540675	-1.963698	0.006188	-0.002279	-0.004189	-0.810059	0.277100	-0.288818	0.629765	-0.183602	-0.753119	-0.049987
23312		9.456551	-1.526331	-1.951151	0.004637	-0.002738	-0.005140	-0.817871	0.285645	-0.286377	0.629842	-0.183683	-0.753034	-0.049995
23313		9.462265	-1.502510	-1.970074	0.003941	-0.003895	-0.010467	-0.820068	0.280029	-0.284424	0.629826	-0.183868	-0.752999	-0.050034
23314		9.500384	-1.569959	-1.975762	0.002144	-0.003323	-0.008106	-0.805420	0.285400	-0.284668	0.629780	-0.183944	-0.753016	-0.050073
23315		9.467651	-1.558387	-1.963999	-0.003544	-0.003043	-0.004908	-0.809082	0.276855	-0.286865	0.629798	-0.184225	-0.752933	-0.050072
23316		9.455814	-1.508944	-1.973086	-0.000968	-0.001016	-0.010044	-0.801514	0.277344	-0.286377	0.629852	-0.184275	-0.752870	-0.050158
23317		9.480885	-1.499637	-1.936995	0.005475	-0.004259	-0.011909	-0.815430	0.281250	-0.284424	0.629918	-0.184267	-0.752817	-0.050149
23318		9.478745	-1.532723	-1.976582	0.007526	-0.005797	-0.011946	-0.810547	0.279297	-0.276611	0.629879	-0.184286	-0.752846	-0.050140
23319		9.467229	-1.538685	-1.986275	0.004931	-0.004667	-0.012476	-0.825195	0.281250	-0.291992	0.629774	-0.184180	-0.752967	-0.050036
23320		9.462054	-1.556454	-1.992780	-0.001156	-0.004109	-0.010723	-0.808838	0.271729	-0.280518	0.629782	-0.184373	-0.752898	-0.050252
23321		9.452349	-1.550512	-1.961581	-0.004559	-0.003175	-0.010910	-0.813477	0.279297	-0.282227	0.629733	-0.184259	-0.752965	-0.050293
23322		9.452502	-1.549507	-1.938607	0.005738	-0.004471	-0.012815	-0.810303	0.279053	-0.281738	0.629691	-0.184223	-0.753009	-0.050280
23323		9.481324	-1.528007	-1.986101	0.017336	-0.008323	-0.012816	-0.810303	0.280518	-0.284180	0.629650	-0.184092	-0.753086	-0.050129
23324		9.461401	-1.537390	-1.992471	0.006159	-0.007230	-0.014556	-0.810791	0.278564	-0.286133	0.629621	-0.184095	-0.753109	-0.050129
23325		9.460171	-1.525819	-1.989039	-0.003490	-0.003198	-0.012158	-0.811523	0.272705	-0.283936	0.629632	-0.184182	-0.753071	-0.050244
23326		9.481289	-1.546491	-1.939682	-0.002563	-0.003897	-0.012536	-0.813965	0.278076	-0.274658	0.629612	-0.184117	-0.753098	-0.050339
23327		9.480201	-1.533306	-1.959809	0.010554	-0.004877	-0.014023	-0.803955	0.286133	-0.288574	0.629491	-0.183925	-0.753255	-0.050195
23328		9.456228	-1.513493	-1.999272	0.012774	-0.004151	-0.015770	-0.805908	0.278809	-0.282227	0.629587	-0.184032	-0.753150	-0.050169
23329		9.444407	-1.542786	-2.006296	0.002134	-0.003410	-0.013710	-0.807373	0.277588	-0.276855	0.629585	-0.184023	-0.753154	-0.050170
23330		9.475940	-1.544642	-1.967195	0.000943	-0.002502	-0.012417	-0.811279	0.276855	-0.275391	0.629522	-0.183944	-0.753230	-0.050112
23331		9.478301	-1.526139	-1.974636	0.012030	-0.004420	-0.017052	-0.807373	0.286621	-0.278076	0.629432	-0.183711	-0.753371	-0.049988
23332		9.467399	-1.508272	-1.985984	0.015206	-0.003485	-0.011166	-0.808838	0.279541	-0.286865	0.629407	-0.183746	-0.753395	-0.049804
23333		9.433357	-1.486301	-1.992974	0.009382	-0.003147	-0.010326	-0.806152	0.275879	-0.282471	0.629469	-0.183790	-0.753333	-0.049790
23334		9.474775	-1.490468	-2.009820	0.006019	-0.003869	-0.011308	-0.807617	0.278076	-0.285400	0.629478	-0.183731	-0.753343	-0.049752
23335		9.486209	-1.505003	-1.975584	0.001424	-0.002032	-0.010208	-0.809570	0.275146	-0.281250	0.629519	-0.183793	-0.753291	-0.049792
23336		9.457796	-1.540590	-1.998633	-0.003698	0.000227	-0.007287	-0.814209	0.276367	-0.281982	0.629517	-0.183812	-0.753285	-0.049821
23337		9.449206	-1.567765	-1.969076	-0.001985	-0.001852	-0.007169	-0.809326	0.276855	-0.281494	0.629488	-0.183848	-0.753299	-0.049853
23338		9.458132	-1.538994	-1.975373	0.011413	-0.002197	-0.007173	-0.811768	0.272217	-0.287354	0.629502	-0.183788	-0.753310	-0.049735
23339		9.470523	-1.503295	-1.993074	0.008919	-0.002799	-0.010130	-0.811035	0.281250	-0.280762	0.629559	-0.183690	-0.753286	-0.049742
23340		9.473621	-1.521807	-1.954941	-0.002449	-0.001506	-0.006978	-0.807861	0.271973	-0.280762	0.629529	-0.183816	-0.753280	-0.049746
23341		9.470509	-1.524957	-1.967619	0.002309	-0.001082	-0.009788	-0.812500	0.279297	-0.288330	0.629531	-0.183701	-0.753307	-0.049726
23342		9.445842	-1.533285	-1.956749	0.009646	-0.003359	-0.011226	-0.811523	0.277588	-0.282959	0.629586	-0.183729	-0.753254	-0.049737
23343		9.471103	-1.519127	-1.992139	0.007386	-0.002436	-0.008684	-0.811523	0.277344	-0.280762	0.629592	-0.183713	-0.753256	-0.049689
23344		9.463419	-1.496979	-1.990969	-0.001502	-0.000630	-0.008191	-0.811523	0.282471	-0.282471	0.629572	-0.183743	-0.753265	-0.049702
23345		9.479852	-1.514836	-1.948655	0.003299	-0.001857	-0.011792	-0.809570	0.279785	-0.280762	0.629565	-0.183813	-0.753253	-0.049711
23346		9.458152	-1.540741	-1.946943	0.011211	-0.002804	-0.004661	-0.815674	0.272461	-0.274902	0.629563	-0.183824	-0.753262	-0.049564
23347		9.458662	-1.514598	-1.973273	0.007341	-0.001530	-0.004662	-0.810791	0.277100	-0.280762	0.629482	-0.183659	-0.753379	-0.049416
23348		9.465984	-1.476254	-1.998763	0.004521	-0.001848	-0.005077	-0.810303	0.281982	-0.281250	0.629472	-0.183671	-0.753389	-0.049349
23349		9.478918	-1.498488	-1.992960	0.005818	-0.004486	-0.008786	-0.805420	0.278320	-0.279785	0.629442	-0.183733	-0.753402	-0.049297
23350		9.465053	-1.546289	-1.969181	0.004969	-0.003031	-0.007651	-0.804443	0.273438	-0.288574	0.629431	-0.183739	-0.753415	-0.049220
23351		9.467078	-1.531175	-1.952467	0.000791	0.000107	-0.005953	-0.798584	0.285645	-0.286377	0.629537	-0.183777	-0.753314	-0.049258
23352		9.442820	-1.514443	-1.967584	0.003236	-0.001788	-0.010155	-0.806396	0.281494	-0.280518	0.629620	-0.183977	-0.753195	-0.049268
23353		9.482419	-1.533760	-1.977356	0.013659	-0.003955	-0.012081	-0.815430	0.284912	-0.275391	0.629617	-0.183926	-0.753219	-0.049150
23354		9.475996	-1.541697	-2.002492	0.010979	-0.003594	-0.013368	-0.817139	0.271729	-0.279297	0.629522	-0.183881	-0.753316	-0.049039
23355		9.487627	-1.556283	-1.967717	0.004276	0.000680	-0.008226	-0.806152	0.276123	-0.283203	0.629497	-0.183727	-0.753377	-0.049003
23356		9.463971	-1.493916	-1.963414	0.011213	-0.002061	-0.007874	-0.810791	0.280518	-0.281250	0.629541	-0.183667	-0.753361	-0.048907
23357		9.470668	-1.501011	-2.008211	0.011259	-0.003716	-0.008662	-0.814453	0.278320	-0.285889	0.629528	-0.183656	-0.753381	-0.048810
23358		9.449389	-1.502928	-2.008785	0.005854	-0.001341	-0.010451	-0.810547	0.281250	-0.280762	0.629558	-0.183662	-0.753353	-0.048836
23359		9.482493	-1.513776	-1.973904	-0.000110	-0.001693	-0.008745	-0.811768	0.277588	-0.280762	0.629534	-0.183745	-0.753352	-0.048845
23360		9.472504	-1.532552	-1.939680	0.000107	-0.000992	-0.005641	-0.810059	0.270508	-0.292480	0.629516	-0.183785	-0.753358	-0.048831
23361		9.467484	-1.550120	-1.969250	0.006520	-0.002565	-0.006694	-0.806641	0.281250	-0.276855	0.629621	-0.183745	-0.753278	-0.048865
23362		9.456216	-1.535519	-1.956654	0.009804	-0.002592	-0.006464	-0.818115	0.275635	-0.280518	0.629589	-0.183741	-0.753316	-0.048713
23363		9.458518	-1.496646	-1.942231	0.008069	-0.001355	-0.008969	-0.809082	0.273193	-0.283936	0.629559	-0.183636	-0.753369	-0.048660
23364		9.479923	-1.514955	-1.939973	0.004088	-0.003997	-0.008049	-0.814697	0.281006	-0.275879	0.629563	-0.183578	-0.753381	-0.048640
23365		9.469393	-1.576744	-1.972808	0.003515	-0.001916	-0.005444	-0.805420	0.281250	-0.283691	0.629487	-0.183612	-0.753442	-0.048559
23366		9.464634	-1.572347	-1.980744	0.010950	-0.001850	-0.006956	-0.802734	0.280518	-0.282715	0.629536	-0.183659	-0.753395	-0.048471
23367		9.467125	-1.511769	-1.944682	0.009960	-0.001075	-0.004951	-0.814209	0.274414	-0.289551	0.629590	-0.183716	-0.753343	-0.048363
23368		9.469331	-1.470501	-1.977976	0.008675	-0.002499	-0.003581	-0.810303	0.276611	-0.287598	0.629654	-0.183716	-0.753292	-0.048330
23369		9.490341	-1.513195	-1.973494	0.006288	-0.004850	-0.008947	-0.810791	0.278076	-0.283447	0.629680	-0.183715	-0.753270	-0.048332
23370		9.472061	-1.532146	-1.983774	0.003081	-0.004065	-0.008421	-0.811523	0.273193	-0.280029	0.629665	-0.183734	-0.753279	-0.048327
23371		9.460191	-1.566710	-1.942734	0.006738	-0.001865	-0.003583	-0.804932	0.287109	-0.283203	0.629651	-0.183654	-0.753316	-0.048221
23372		9.475350	-1.548859	-1.969557	0.009757	-0.000941	-0.005668	-0.815186	0.279541	-0.284668	0.629697	-0.183809	-0.753246	-0.048133
23373		9.472638	-1.505517	-1.986837	0.006722	-0.002706	-0.005962	-0.804688	0.278320	-0.289062	0.629699	-0.183844	-0.753237	-0.048100
23374		9.459240	-1.529869	-1.965183	0.000278	-0.003551	-0.006454	-0.812744	0.278076	-0.282227	0.629754	-0.183963	-0.753160	-0.048146
23375		9.463987	-1.555967	-1.955372	0.000866	0.000117	-0.001968	-0.805664	0.279297	-0.284912	0.629758	-0.184035	-0.753141	-0.048112
23376		9.454408	-1.525595	-1.973324	0.008428	-0.001444	-0.000289	-0.809814	0.278076	-0.285156	0.629813	-0.184119	-0.753081	-0.048002
23377		9.487389	-1.534761	-1.985976	0.007201	-0.001481	-0.006989	-0.809082	0.283691	-0.283691	0.629848	-0.184119	-0.753054	-0.047965
23378		9.464257	-1.552418	-1.979560	0.002229	-0.002613	-0.007288	-0.810791	0.281982	-0.286621	0.629848	-0.184236	-0.753026	-0.047964
23379		9.474341	-1.557172	-1.964240	0.000645	0.000142	-0.008288	-0.808350	0.286377	-0.280029	0.629889	-0.184349	-0.752960	-0.048023
23380		9.451229	-1.574687	-1.957903	0.007235	-0.004712	-0.006930	-0.801270	0.284424	-0.284912	0.629850	-0.184433	-0.752979	-0.047930
23381		9.460993	-1.602041	-1.964237	0.011476	-0.002284	-0.008756	-0.811279	0.277588	-0.285889	0.629908	-0.184497	-0.752919	-0.047854
23382		9.468126	-1.565069	-1.965887	0.011694	-0.001576	-0.005656	-0.812988	0.282715	-0.279053	0.629952	-0.184466	-0.752894	-0.047776
23383		9.475211	-1.528238	-1.967616	0.009603	-0.002466	-0.007164	-0.814453	0.283203	-0.287842	0.629917	-0.184443	-0.752937	-0.047661
23384		9.480533	-1.506240	-1.962550	0.007387	-0.002462	-0.008641	-0.814209	0.286621	-0.282227	0.629945	-0.184522	-0.752893	-0.047678
23385		9.460630	-1.540613	-1.965143	0.006719	-0.001980	-0.009173	-0.808838	0.280029	-0.286377	0.629928	-0.184592	-0.752892	-0.047647
23386		9.477367	-1.531729	-1.973244	0.005021	-0.004712	-0.008399	-0.807129	0.283447	-0.289062	0.629935	-0.184637	-0.752875	-0.047651
23387		9.462525	-1.545684	-1.970833	0.008394	-0.002399	-0.008258	-0.809082	0.283203	-0.292236	0.629998	-0.184743	-0.752796	-0.047660
23388		9.452570	-1.561769	-1.984393	0.003504	-0.003501	-0.004587	-0.812744	0.275146	-0.286377	0.630059	-0.184956	-0.752688	-0.047729
23389		9.462752	-1.543249	-1.971650	-0.000223	0.000017	-0.006316	-0.816895	0.279297	-0.290283	0.630086	-0.184979	-0.752656	-0.047784
23390		9.469673	-1.529517	-1.971132	0.003297	-0.002640	-0.008525	-0.812988	0.288818	-0.283447	0.630111	-0.185065	-0.752608	-0.047882
23391		9.481291	-1.542648	-1.960736	0.010644	-0.004905	-0.009937	-0.807617	0.283691	-0.286621	0.630086	-0.185127	-0.752618	-0.047817
23392		9.443250	-1.574164	-1.975265	0.010469	-0.002354	-0.009121	-0.808594	0.277100	-0.289795	0.630128	-0.185174	-0.752573	-0.047784
23393		9.443621	-1.548630	-1.978174	0.003423	-0.003538	-0.008552	-0.811768	0.280273	-0.280273	0.630166	-0.185233	-0.752522	-0.047855
23394		9.480107	-1.551110	-1.978936	0.005448	-0.001835	-0.008637	-0.808838	0.272949	-0.286133	0.630140	-0.185173	-0.752563	-0.047782
23395		9.465368	-1.564819	-1.976359	0.007234	-0.003992	-0.010130	-0.806885	0.282959	-0.287109	0.630153	-0.185072	-0.752577	-0.047772
23396		9.457321	-1.567894	-1.949311	0.005033	-0.003145	-0.009230	-0.806641	0.276123	-0.279297	0.630180	-0.185154	-0.752534	-0.047789
23397		9.457496	-1.564648	-1.973619	0.004846	-0.002166	-0.007574	-0.803467	0.285889	-0.284912	0.630160	-0.185042	-0.752585	-0.047684
23398		9.464549	-1.528687	-1.951777	0.006921	-0.002120	-0.008440	-0.812744	0.272949	-0.283203	0.630193	-0.185129	-0.752538	-0.047643
23399		9.477774	-1.548938	-1.969621	0.004897	-0.003825	-0.008353	-0.805420	0.279541	-0.287354	0.630169	-0.185018	-0.752588	-0.047610
23400		9.433385	-1.546595	-1.966018	0.001638	-0.001386	-0.007053	-0.819336	0.278564	-0.276367	0.630212	-0.185098	-0.752530	-0.047641
23401		9.458332	-1.559331	-1.951273	0.004704	-0.002121	-0.009914	-0.809082	0.287842	-0.287354	0.630130	-0.184961	-0.752638	-0.047562
23402		9.476813	-1.534815	-1.966438	0.008166	-0.004693	-0.010492	-0.815430	0.281738	-0.283447	0.630142	-0.185070	-0.752601	-0.047566
23403		9.460361	-1.562209	-1.980726	0.002502	-0.001275	-0.009015	-0.809326	0.277832	-0.277832	0.630128	-0.185098	-0.752604	-0.047586
23404		9.444163	-1.543794	-1.976018	0.000494	-0.002132	-0.006555	-0.816162	0.281494	-0.272461	0.630081	-0.185044	-0.752661	-0.047515
23405		9.467549	-1.524430	-1.959475	0.004771	-0.002933	-0.008317	-0.815186	0.281982	-0.276367	0.629975	-0.184929	-0.752786	-0.047381
23406		9.482555	-1.530808	-1.960470	0.009589	-0.003318	-0.009515	-0.808838	0.281006	-0.276367	0.629910	-0.184829	-0.752873	-0.047264
23407		9.464304	-1.572288	-1.991729	0.006296	-0.004875	-0.008900	-0.808350	0.278564	-0.291260	0.629841	-0.184762	-0.752953	-0.047161
23408		9.459436	-1.592563	-1.973884	0.001689	-0.003049	-0.007826	-0.810303	0.280762	-0.285889	0.629893	-0.184851	-0.752884	-0.047235
23409		9.466247	-1.578594	-1.973905	-0.001130	-0.003382	-0.008242	-0.813232	0.288818	-0.273926	0.629888	-0.184936	-0.752863	-0.047296
23410		9.455096	-1.564455	-1.937614	0.009190	-0.001484	-0.011793	-0.809570	0.273193	-0.272461	0.629826	-0.184893	-0.752932	-0.047193
23411		9.456890	-1.567986	-1.990136	0.017278	-0.005030	-0.011068	-0.812988	0.278320	-0.280518	0.629755	-0.184572	-0.753085	-0.046957
23412		9.455399	-1.556074	-2.010184	0.005890	-0.004617	-0.010330	-0.810791	0.279541	-0.279053	0.629709	-0.184501	-0.753143	-0.046921
23413		9.460675	-1.558526	-1.979018	-0.000913	-0.000374	-0.009208	-0.805664	0.281006	-0.285889	0.629685	-0.184504	-0.753161	-0.046940
23414		9.462714	-1.542493	-1.962464	0.002425	-0.002049	-0.009753	-0.802246	0.285889	-0.283691	0.629716	-0.184559	-0.753120	-0.046975
23415		9.471311	-1.537934	-1.942914	0.004349	-0.003530	-0.012113	-0.814941	0.283936	-0.273682	0.629727	-0.184637	-0.753090	-0.046998
23416		9.473232	-1.543794	-1.948064	0.003883	-0.003183	-0.011927	-0.813965	0.273926	-0.284180	0.629635	-0.184588	-0.753181	-0.046959
23417		9.455336	-1.560523	-1.981516	0.004489	-0.001283	-0.013828	-0.812500	0.281006	-0.286377	0.629643	-0.184457	-0.753204	-0.046991
23418		9.450762	-1.578011	-1.987193	0.007882	-0.004617	-0.015148	-0.814209	0.275391	-0.280762	0.629644	-0.184412	-0.753212	-0.047026
23419		9.471100	-1.563692	-1.959124	0.009232	-0.002431	-0.015767	-0.812256	0.278809	-0.273682	0.629626	-0.184229	-0.753274	-0.047007
23420		9.489608	-1.562136	-1.971650	0.008102	-0.003896	-0.012056	-0.812744	0.273926	-0.286133	0.629548	-0.184099	-0.753376	-0.046925
23421		9.457009	-1.527969	-1.938174	0.010250	-0.003083	-0.012172	-0.813232	0.289795	-0.286377	0.629572	-0.183963	-0.753391	-0.046896
23422		9.468632	-1.512323	-2.001909	0.005487	-0.004366	-0.011749	-0.814453	0.271484	-0.278809	0.629569	-0.184094	-0.753358	-0.046947
23423		9.467295	-1.524920	-1.995496	0.000469	-0.002287	-0.012116	-0.813232	0.277832	-0.281738	0.629522	-0.183955	-0.753430	-0.046961
23424		9.465996	-1.537460	-1.988991	-0.004145	-0.002039	-0.010202	-0.812500	0.286621	-0.281250	0.629491	-0.183984	-0.753444	-0.047041
23425		9.456561	-1.554757	-1.954973	0.000117	-0.003690	-0.014324	-0.808838	0.273926	-0.283447	0.629448	-0.184061	-0.753455	-0.047129
23426		9.456976	-1.551326	-1.955691	0.002062	-0.002746	-0.015158	-0.815918	0.273438	-0.283936	0.629447	-0.183961	-0.753477	-0.047182
23427		9.475520	-1.573159	-1.965961	0.007285	-0.004953	-0.014070	-0.808350	0.275146	-0.279785	0.629424	-0.183815	-0.753533	-0.047183
23428		9.469248	-1.558558	-1.969824	0.005624	-0.002120	-0.013459	-0.808350	0.282715	-0.283691	0.629414	-0.183707	-0.753568	-0.047176
23429		9.469617	-1.531741	-1.972723	0.003142	-0.001915	-0.014028	-0.800781	0.274170	-0.286621	0.629426	-0.183738	-0.753547	-0.047238
23430		9.461806	-1.532103	-1.969429	0.007214	-0.004151	-0.015654	-0.812256	0.288818	-0.280273	0.629465	-0.183637	-0.753537	-0.047253
23431		9.460658	-1.543969	-1.962929	0.005609	-0.002981	-0.015816	-0.811523	0.275391	-0.282471	0.629436	-0.183691	-0.753545	-0.047306
23432		9.480934	-1.551956	-1.956251	0.001403	-0.002994	-0.012469	-0.811768	0.279785	-0.272705	0.629420	-0.183641	-0.753568	-0.047348
23433		9.459820	-1.553535	-1.956811	0.006310	-0.001743	-0.010553	-0.807861	0.275879	-0.278809	0.629360	-0.183579	-0.753636	-0.047292
23434		9.456737	-1.510574	-1.950415	0.009260	-0.000725	-0.011009	-0.808350	0.282227	-0.279541	0.629370	-0.183479	-0.753657	-0.047234
23435		9.471769	-1.491079	-1.977485	0.005565	-0.002036	-0.011828	-0.809326	0.280273	-0.281494	0.629360	-0.183496	-0.753660	-0.047243
23436		9.473697	-1.497153	-1.982583	0.002148	-0.004279	-0.010339	-0.813232	0.280762	-0.278564	0.629333	-0.183534	-0.753672	-0.047270
23437		9.477387	-1.535351	-1.989886	0.004748	-0.004667	-0.013002	-0.814453	0.279785	-0.281982	0.629278	-0.183509	-0.753723	-0.047282
23438		9.472917	-1.577204	-1.993169	0.009113	-0.003832	-0.011647	-0.810547	0.278564	-0.281494	0.629263	-0.183463	-0.753748	-0.047260
23439		9.446762	-1.553543	-1.980152	0.004367	-0.001125	-0.010555	-0.810547	0.281006	-0.283203	0.629269	-0.183456	-0.753744	-0.047271
23440		9.443742	-1.534220	-1.971363	0.005769	-0.002168	-0.011104	-0.814209	0.282715	-0.279297	0.629280	-0.183475	-0.753729	-0.047289
23441		9.468841	-1.544691	-1.980619	0.011655	-0.004129	-0.012687	-0.811279	0.285889	-0.286133	0.629249	-0.183429	-0.753769	-0.047248
23442		9.489082	-1.553317	-1.973721	0.009113	-0.002266	-0.012485	-0.812744	0.282959	-0.283203	0.629281	-0.183494	-0.753724	-0.047281
23443		9.461176	-1.519552	-1.979897	0.010719	-0.001867	-0.013161	-0.812988	0.273193	-0.279297	0.629298	-0.183479	-0.753713	-0.047279
23444		9.435113	-1.517805	-1.988165	0.005684	-0.003804	-0.014198	-0.803955	0.287109	-0.282227	0.629262	-0.183333	-0.753780	-0.047266
23445		9.463923	-1.547256	-1.958859	0.002470	-0.003037	-0.013685	-0.811523	0.278809	-0.281738	0.629262	-0.183459	-0.753743	-0.047356
23446		9.474264	-1.549143	-1.967387	0.007636	-0.000426	-0.013517	-0.814697	0.276123	-0.286621	0.629281	-0.183403	-0.753741	-0.047366
23447		9.461296	-1.523261	-1.973891	0.008981	-0.001375	-0.012448	-0.806396	0.275391	-0.282227	0.629317	-0.183335	-0.753726	-0.047374
23448		9.458365	-1.526028	-1.986338	0.003550	-0.002199	-0.012559	-0.811523	0.281250	-0.267578	0.629325	-0.183293	-0.753728	-0.047399
23449		9.467306	-1.544593	-1.964009	-0.000671	-0.001507	-0.012425	-0.804688	0.271484	-0.287842	0.629226	-0.183256	-0.753821	-0.047396
23450		9.484019	-1.512281	-1.950521	0.012806	-0.000952	-0.011651	-0.812744	0.277832	-0.281250	0.629308	-0.183134	-0.753785	-0.047347
23451		9.487239	-1.478174	-1.988461	0.014340	-0.001321	-0.013068	-0.802979	0.278320	-0.278809	0.629328	-0.183016	-0.753801	-0.047283
23452		9.465875	-1.456534	-1.991402	0.003305	-0.002687	-0.008451	-0.808594	0.269775	-0.280029	0.629318	-0.183054	-0.753800	-0.047275
23453		9.461751	-1.522824	-1.991800	-0.004332	-0.002673	-0.007678	-0.808105	0.272949	-0.284668	0.629289	-0.183025	-0.753830	-0.047299
23454		9.483782	-1.541697	-1.965577	0.000291	-0.000479	-0.008071	-0.810303	0.276123	-0.279297	0.629321	-0.183027	-0.753801	-0.047327
23455		9.455745	-1.510268	-1.947953	0.005391	-0.001768	-0.006954	-0.812012	0.284180	-0.281006	0.629313	-0.183013	-0.753814	-0.047284
23456		9.452728	-1.536536	-1.981806	0.003773	-0.003035	-0.008631	-0.810791	0.276611	-0.284912	0.629293	-0.183115	-0.753804	-0.047313
23457		9.453182	-1.558750	-1.979423	0.002716	-0.000581	-0.005884	-0.808838	0.276611	-0.278076	0.629325	-0.183163	-0.753766	-0.047319
23458		9.464617	-1.524489	-1.973834	0.008401	-0.002408	-0.008176	-0.807373	0.290527	-0.283203	0.629313	-0.183116	-0.753791	-0.047252
23459		9.466146	-1.485372	-1.959874	0.003050	-0.000034	-0.006040	-0.814453	0.281738	-0.285400	0.629343	-0.183361	-0.753702	-0.047320
23460		9.473214	-1.518040	-1.977877	-0.000435	-0.001482	-0.006141	-0.809814	0.278809	-0.281738	0.629352	-0.183494	-0.753659	-0.047383
23461		9.453763	-1.528814	-1.982842	0.002485	-0.002190	-0.011307	-0.807617	0.276367	-0.289795	0.629346	-0.183506	-0.753658	-0.047424
23462		9.467249	-1.525866	-1.979444	0.005777	-0.003753	-0.010226	-0.809082	0.278320	-0.277832	0.629387	-0.183526	-0.753617	-0.047460
23463		9.467772	-1.547509	-1.977288	0.001157	-0.001949	-0.009171	-0.809326	0.277588	-0.287598	0.629360	-0.183536	-0.753636	-0.047470
23464		9.465046	-1.553468	-1.942092	-0.000249	-0.000908	-0.008624	-0.806885	0.283203	-0.282227	0.629397	-0.183616	-0.753581	-0.047549
23465		9.460142	-1.526081	-1.928801	0.014825	-0.002367	-0.010034	-0.800537	0.281738	-0.283936	0.629426	-0.183615	-0.753560	-0.047489
23466		9.463069	-1.492555	-1.967192	0.014422	-0.003687	-0.010614	-0.806885	0.278076	-0.276611	0.629466	-0.183626	-0.753528	-0.047444
23467		9.476520	-1.490249	-1.963424	0.001034	-0.000190	-0.006789	-0.811523	0.291504	-0.286377	0.629454	-0.183647	-0.753533	-0.047427
23468		9.484913	-1.484618	-1.967740	0.006176	-0.004875	-0.011140	-0.808594	0.287354	-0.282227	0.629450	-0.183839	-0.753484	-0.047525
23469		9.484156	-1.543862	-1.979972	0.006850	-0.005348	-0.010605	-0.816162	0.273193	-0.281982	0.629427	-0.183951	-0.753473	-0.047563
23470		9.464773	-1.556157	-1.961476	0.003384	-0.003494	-0.006848	-0.808350	0.285645	-0.289307	0.629402	-0.183893	-0.753510	-0.047524
23471		9.449895	-1.546995	-1.961574	0.012163	-0.004317	-0.007264	-0.819580	0.288818	-0.283936	0.629444	-0.184031	-0.753441	-0.047538
23472		9.467750	-1.523193	-1.976911	0.014570	-0.003715	-0.008278	-0.810547	0.279053	-0.284668	0.629442	-0.184100	-0.753428	-0.047503
23473		9.469612	-1.530541	-1.981679	0.007542	-0.002516	-0.006210	-0.814209	0.279297	-0.283447	0.629461	-0.184142	-0.753403	-0.047483
23474		9.479661	-1.534103	-1.990346	0.006798	-0.002817	-0.007482	-0.805664	0.287354	-0.282471	0.629461	-0.184158	-0.753400	-0.047466
23475		9.461768	-1.531629	-1.978241	0.010145	-0.000471	-0.007357	-0.806885	0.278809	-0.281982	0.629500	-0.184273	-0.753339	-0.047461
23476		9.451679	-1.501647	-1.972845	0.009475	-0.004006	-0.008542	-0.807617	0.283203	-0.281006	0.629501	-0.184254	-0.753346	-0.047409
23477		9.480237	-1.529717	-1.990977	0.005449	-0.001879	-0.008546	-0.810059	0.279541	-0.285400	0.629505	-0.184314	-0.753328	-0.047415
23478		9.466029	-1.545097	-1.964156	0.001567	-0.002214	-0.007726	-0.806152	0.288086	-0.277100	0.629516	-0.184404	-0.753293	-0.047476
23479		9.444713	-1.546288	-1.988361	0.005370	-0.001085	-0.010132	-0.810303	0.283203	-0.279541	0.629507	-0.184474	-0.753283	-0.047482
23480		9.472036	-1.567940	-1.953946	0.007521	-0.001824	-0.009401	-0.811768	0.274414	-0.279785	0.629502	-0.184481	-0.753287	-0.047456
23481		9.463564	-1.523478	-1.931819	0.003836	-0.000717	-0.008715	-0.804688	0.276367	-0.286621	0.629501	-0.184394	-0.753313	-0.047411
23482		9.466737	-1.513686	-1.967625	0.007325	-0.003269	-0.009265	-0.796875	0.283447	-0.287598	0.629532	-0.184407	-0.753282	-0.047426
23483		9.469267	-1.545569	-1.945738	0.009410	-0.002340	-0.007772	-0.802734	0.279541	-0.278564	0.629597	-0.184556	-0.753189	-0.047471
23484		9.482532	-1.541817	-1.966055	0.005906	-0.003104	-0.011068	-0.807861	0.274902	-0.280029	0.629586	-0.184516	-0.753209	-0.047442
23485		9.472868	-1.534647	-1.958332	0.002826	-0.003239	-0.010586	-0.809082	0.282471	-0.288818	0.629566	-0.184440	-0.753246	-0.047423
23486		9.464873	-1.536479	-1.955103	0.005665	-0.003572	-0.006973	-0.811035	0.278076	-0.278076	0.629592	-0.184586	-0.753184	-0.047491
23487		9.464798	-1.533757	-1.979596	0.008001	-0.003741	-0.008724	-0.814209	0.279053	-0.282227	0.629563	-0.184499	-0.753235	-0.047402
23488		9.453256	-1.518713	-1.967470	0.005723	-0.003676	-0.008581	-0.815186	0.277588	-0.286865	0.629544	-0.184488	-0.753255	-0.047385
23489		9.471967	-1.541706	-1.977381	0.006650	-0.002804	-0.009790	-0.807617	0.276123	-0.281494	0.629557	-0.184487	-0.753243	-0.047411
23490		9.467240	-1.538482	-1.961739	0.002129	-0.002487	-0.003963	-0.813965	0.280518	-0.287842	0.629555	-0.184518	-0.753240	-0.047375
23491		9.470636	-1.531926	-1.949861	0.002381	-0.001147	-0.005707	-0.812988	0.272705	-0.282227	0.629582	-0.184641	-0.753182	-0.047441
23492		9.445931	-1.539124	-1.986336	0.008597	-0.003419	-0.009772	-0.812500	0.282959	-0.285645	0.629576	-0.184509	-0.753224	-0.047368
23493		9.434247	-1.522524	-1.998044	0.009593	-0.004217	-0.011739	-0.808350	0.283691	-0.280762	0.629579	-0.184533	-0.753214	-0.047398
23494		9.487606	-1.518504	-1.959126	0.002357	-0.002902	-0.010396	-0.810791	0.271729	-0.281006	0.629561	-0.184596	-0.753210	-0.047447
23495		9.473351	-1.531877	-1.956433	0.000135	-0.002941	-0.011861	-0.811768	0.274170	-0.280273	0.629538	-0.184492	-0.753255	-0.047455
23496		9.464149	-1.548357	-1.945996	0.001762	-0.003226	-0.009341	-0.808838	0.286621	-0.278564	0.629510	-0.184426	-0.753295	-0.047439
23497		9.446277	-1.545275	-1.934368	0.004109	-0.002518	-0.008746	-0.813721	0.279541	-0.284424	0.629490	-0.184514	-0.753289	-0.047462
23498		9.471154	-1.555246	-1.967466	0.006274	-0.002375	-0.005670	-0.815430	0.280518	-0.284180	0.629500	-0.184558	-0.753271	-0.047448
23499		9.480799	-1.534719	-1.978882	0.009524	-0.002550	-0.010973	-0.810547	0.273193	-0.276855	0.629507	-0.184532	-0.753272	-0.047446
23500		9.476172	-1.531008	-1.963159	0.007533	-0.003399	-0.008530	-0.809082	0.274902	-0.281494	0.629478	-0.184385	-0.753339	-0.047331
23501		9.449918	-1.530491	-1.971566	-0.001192	-0.002699	-0.009728	-0.806152	0.281982	-0.287598	0.629461	-0.184373	-0.753354	-0.047368
23502		9.469187	-1.576741	-1.979033	0.005521	-0.006004	-0.010773	-0.809814	0.274902	-0.282471	0.629461	-0.184460	-0.753328	-0.047437
23503		9.452278	-1.535653	-1.953957	0.013820	-0.004897	-0.011850	-0.812500	0.283691	-0.281982	0.629460	-0.184319	-0.753369	-0.047352
23504		9.473619	-1.527891	-1.978527	0.006251	-0.004136	-0.010350	-0.808594	0.277344	-0.280762	0.629440	-0.184359	-0.753374	-0.047376
23505		9.452927	-1.554124	-1.976498	-0.003652	-0.003206	-0.007103	-0.813232	0.280029	-0.282715	0.629411	-0.184422	-0.753380	-0.047425
23506		9.479367	-1.549185	-1.993307	-0.002546	-0.001771	-0.010791	-0.805176	0.276611	-0.279053	0.629396	-0.184481	-0.753371	-0.047524
23507		9.461321	-1.522747	-1.960665	0.009914	-0.004553	-0.014220	-0.807617	0.281006	-0.284912	0.629381	-0.184356	-0.753418	-0.047483
23508		9.466200	-1.520689	-2.001449	0.008519	-0.005079	-0.012828	-0.803955	0.281250	-0.281006	0.629380	-0.184362	-0.753414	-0.047517
23509		9.453794	-1.542508	-2.003268	0.000134	-0.002960	-0.011842	-0.807861	0.281738	-0.286377	0.629369	-0.184424	-0.753403	-0.047602
23510		9.451103	-1.546443	-1.992050	0.006623	-0.002130	-0.012958	-0.813721	0.278809	-0.278320	0.629399	-0.184466	-0.753363	-0.047680
23511		9.491218	-1.541011	-1.980719	0.009154	-0.003301	-0.016330	-0.810303	0.275391	-0.287109	0.629372	-0.184326	-0.753421	-0.047665
23512		9.474500	-1.498896	-1.955113	0.009428	-0.002647	-0.014880	-0.799072	0.274902	-0.285400	0.629402	-0.184245	-0.753414	-0.047695
23513		9.465301	-1.513809	-1.968088	0.003875	-0.001728	-0.012631	-0.815674	0.291260	-0.277832	0.629442	-0.184241	-0.753378	-0.047754
23514		9.452199	-1.510564	-1.996280	0.006019	-0.003340	-0.014238	-0.812012	0.276611	-0.277588	0.629400	-0.184306	-0.753392	-0.047830
23515		9.463183	-1.535573	-2.002306	0.000634	-0.002743	-0.016805	-0.808350	0.279297	-0.290283	0.629359	-0.184201	-0.753448	-0.047883
23516		9.465374	-1.518844	-1.962471	-0.004243	-0.002291	-0.014024	-0.813477	0.277588	-0.287109	0.629379	-0.184329	-0.753387	-0.048093
23517		9.455666	-1.572144	-1.965564	-0.000834	-0.001599	-0.014659	-0.803223	0.274170	-0.285400	0.629389	-0.184360	-0.753362	-0.048238
23518		9.482531	-1.567546	-1.958191	0.003489	-0.002171	-0.010860	-0.805664	0.283447	-0.283936	0.629417	-0.184361	-0.753336	-0.048282
23519		9.465397	-1.524911	-1.956403	0.007217	-0.001813	-0.013992	-0.810791	0.277588	-0.286377	0.629441	-0.184405	-0.753299	-0.048361
23520		9.465543	-1.520948	-1.980521	0.011115	-0.003030	-0.013955	-0.803711	0.278809	-0.287109	0.629466	-0.184353	-0.753290	-0.048382
23521		9.483620	-1.496301	-1.972151	0.009834	-0.003773	-0.015772	-0.805664	0.283447	-0.270264	0.629495	-0.184339	-0.753264	-0.048449
23522		9.490303	-1.480638	-1.972275	0.011040	-0.004694	-0.017017	-0.803955	0.272217	-0.284424	0.629437	-0.184180	-0.753357	-0.048375
23523		9.482938	-1.503557	-1.990306	0.007773	-0.006287	-0.016396	-0.811035	0.277344	-0.278076	0.629427	-0.184065	-0.753392	-0.048393
23524		9.449054	-1.506652	-1.970945	0.001773	-0.001125	-0.014944	-0.812012	0.281250	-0.280518	0.629410	-0.183995	-0.753420	-0.048440
23525		9.492233	-1.515892	-2.016465	0.001758	-0.004142	-0.011636	-0.812744	0.282471	-0.281250	0.629375	-0.184036	-0.753436	-0.048504
23526		9.463626	-1.523871	-1.965396	0.002482	-0.002267	-0.011221	-0.812744	0.269287	-0.284668	0.629362	-0.184096	-0.753427	-0.048577
23527		9.456996	-1.509788	-1.969212	0.003545	-0.002292	-0.012447	-0.807129	0.273682	-0.283447	0.629369	-0.183993	-0.753446	-0.048590
23528		9.449936	-1.473181	-1.951910	0.008847	-0.002091	-0.011462	-0.811768	0.267822	-0.281982	0.629393	-0.183921	-0.753444	-0.048570
23529		9.481608	-1.492584	-2.005704	0.004925	-0.004784	-0.010525	-0.814697	0.276123	-0.278564	0.629371	-0.183786	-0.753499	-0.048518
23530		9.488837	-1.501733	-2.002817	0.001133	-0.000457	-0.009950	-0.809082	0.272705	-0.275391	0.629359	-0.183760	-0.753515	-0.048536
23531		9.479187	-1.494779	-1.994703	0.005976	-0.002358	-0.010269	-0.800293	0.281250	-0.283203	0.629336	-0.183642	-0.753567	-0.048469
23532		9.461039	-1.530361	-1.972673	0.001946	-0.002705	-0.011766	-0.811279	0.270996	-0.283447	0.629348	-0.183745	-0.753525	-0.048574
23533		9.458406	-1.534282	-1.961484	0.001267	-0.002243	-0.012298	-0.806152	0.278809	-0.286621	0.629347	-0.183679	-0.753540	-0.048609
23534		9.471677	-1.529665	-1.981945	0.013275	-0.003757	-0.013196	-0.810547	0.276123	-0.274658	0.629380	-0.183654	-0.753518	-0.048614
23535		9.470595	-1.541432	-1.998834	0.013812	-0.003326	-0.012641	-0.806396	0.275879	-0.284912	0.629358	-0.183493	-0.753582	-0.048509
23536		9.459139	-1.525707	-1.986261	0.004738	-0.000771	-0.012199	-0.806885	0.273438	-0.284424	0.629392	-0.183493	-0.753550	-0.048564
23537		9.486580	-1.483677	-1.964921	0.006370	-0.001036	-0.009688	-0.807373	0.272461	-0.278564	0.629427	-0.183467	-0.753528	-0.048561
23538		9.464838	-1.462427	-1.967733	0.013317	-0.001421	-0.013308	-0.812012	0.272461	-0.287842	0.629444	-0.183296	-0.753560	-0.048477
23539		9.464952	-1.458680	-1.991631	0.011238	-0.002377	-0.014784	-0.807373	0.274414	-0.268799	0.629480	-0.183180	-0.753558	-0.048473
23540		9.472742	-1.490414	-2.009553	0.007010	-0.003841	-0.009026	-0.804932	0.280518	-0.286377	0.629418	-0.183073	-0.753643	-0.048374
23541		9.479175	-1.516342	-1.975306	-0.002057	-0.000398	-0.006261	-0.810303	0.277832	-0.286377	0.629451	-0.183259	-0.753562	-0.048489
23542		9.464568	-1.508260	-1.951135	-0.000906	-0.001205	-0.005904	-0.811523	0.280518	-0.284668	0.629471	-0.183386	-0.753510	-0.048562
23543		9.462577	-1.497175	-1.970867	0.007258	-0.001617	-0.008436	-0.814209	0.277832	-0.280029	0.629493	-0.183446	-0.753475	-0.048586
23544		9.465810	-1.488442	-1.982776	0.013606	-0.003214	-0.013334	-0.811035	0.277588	-0.291016	0.629488	-0.183336	-0.753510	-0.048536
23545		9.480073	-1.509337	-1.976362	0.003941	-0.003103	-0.006216	-0.807373	0.280273	-0.287598	0.629519	-0.183450	-0.753453	-0.048588
23546		9.469918	-1.502389	-1.992250	-0.003057	0.000402	-0.004305	-0.810303	0.272949	-0.287842	0.629558	-0.183658	-0.753362	-0.048704
23547		9.463987	-1.512834	-1.992857	0.000060	-0.001344	-0.011036	-0.808350	0.271973	-0.285645	0.629581	-0.183678	-0.753332	-0.048787
23548		9.472781	-1.507026	-1.973301	0.001115	-0.002263	-0.014588	-0.816406	0.280762	-0.279297	0.629590	-0.183632	-0.753331	-0.048865
23549		9.469140	-1.526022	-1.954801	0.002837	-0.003303	-0.010498	-0.812012	0.270508	-0.276367	0.629553	-0.183656	-0.753354	-0.048904
23550		9.470786	-1.570363	-1.973144	0.007522	-0.001847	-0.009318	-0.805908	0.279053	-0.277588	0.629538	-0.183514	-0.753407	-0.048808
23551		9.451017	-1.519148	-1.990672	0.013797	-0.000875	-0.011138	-0.813721	0.281982	-0.290527	0.629559	-0.183445	-0.753410	-0.048747
23552		9.475551	-1.444735	-1.968067	0.005826	-0.002373	-0.012550	-0.805664	0.279785	-0.281738	0.629589	-0.183526	-0.753358	-0.048855
23553		9.478064	-1.451555	-1.949138	0.002566	-0.003973	-0.011930	-0.813965	0.274414	-0.279785	0.629572	-0.183577	-0.753355	-0.048928
23554		9.473748	-1.468767	-1.978458	0.009050	-0.003115	-0.013039	-0.808350	0.272461	-0.281494	0.629558	-0.183460	-0.753399	-0.048893
23555		9.460368	-1.504990	-1.996404	0.007389	-0.004306	-0.013092	-0.812012	0.280273	-0.281982	0.629544	-0.183361	-0.753435	-0.048875
23556		9.480034	-1.488922	-1.992883	-0.005152	-0.002358	-0.010428	-0.809814	0.279297	-0.282715	0.629517	-0.183481	-0.753419	-0.049014
23557		9.462927	-1.487463	-1.933434	-0.008577	-0.000610	-0.008319	-0.812256	0.275391	-0.276611	0.629507	-0.183644	-0.753378	-0.049174
23558		9.451485	-1.493979	-1.966072	0.008023	-0.003753	-0.008633	-0.811523	0.279785	-0.281494	0.629477	-0.183575	-0.753424	-0.049103
23559		9.476734	-1.504679	-1.975444	0.018557	-0.004984	-0.009717	-0.802246	0.282227	-0.286377	0.629479	-0.183507	-0.753445	-0.049002
23560		9.473275	-1.507969	-2.011972	0.008558	-0.003320	-0.008079	-0.807129	0.276611	-0.270996	0.629510	-0.183624	-0.753388	-0.049046
23561		9.460537	-1.508472	-1.992327	0.003590	-0.002098	-0.006897	-0.809082	0.285156	-0.280273	0.629471	-0.183592	-0.753432	-0.048983
23562		9.474241	-1.506581	-1.965360	0.001061	-0.005173	-0.009665	-0.811768	0.280029	-0.282227	0.629430	-0.183731	-0.753427	-0.049084
23563		9.459349	-1.496297	-1.965734	0.007561	-0.003763	-0.015547	-0.813477	0.272949	-0.278320	0.629418	-0.183701	-0.753440	-0.049142
23564		9.439935	-1.544659	-1.984135	0.017389	-0.005976	-0.014711	-0.811768	0.269531	-0.278320	0.629392	-0.183476	-0.753525	-0.049014
23565		9.463364	-1.546012	-1.989374	0.012249	-0.005303	-0.011061	-0.809326	0.279541	-0.276123	0.629365	-0.183291	-0.753600	-0.048887
23566		9.478085	-1.528833	-1.969695	0.003319	-0.002770	-0.008327	-0.813721	0.273926	-0.279053	0.629337	-0.183333	-0.753613	-0.048903
23567		9.466431	-1.474687	-1.967765	0.005150	-0.001031	-0.010739	-0.811768	0.269775	-0.285889	0.629334	-0.183266	-0.753632	-0.048889
23568		9.460620	-1.484756	-1.968365	0.010266	-0.003148	-0.011932	-0.815918	0.276611	-0.282227	0.629355	-0.183140	-0.753649	-0.048837
23569		9.460492	-1.481503	-1.992888	0.015530	-0.006161	-0.013138	-0.814697	0.272461	-0.289307	0.629335	-0.183022	-0.753699	-0.048768
23570		9.477874	-1.495009	-1.998255	0.009700	-0.002031	-0.013331	-0.817627	0.280762	-0.281494	0.629373	-0.182935	-0.753688	-0.048769
23571		9.448213	-1.478602	-1.973671	0.000831	-0.002616	-0.008892	-0.811523	0.270020	-0.281738	0.629349	-0.183017	-0.753684	-0.048841
23572		9.481582	-1.484940	-1.987140	0.000715	-0.003279	-0.008022	-0.808105	0.275391	-0.278076	0.629332	-0.182993	-0.753704	-0.048835
23573		9.473717	-1.486927	-1.983691	0.008467	-0.002550	-0.009641	-0.809082	0.277344	-0.284912	0.629327	-0.182954	-0.753720	-0.048802
23574		9.476825	-1.478630	-1.995541	0.015367	-0.001907	-0.009327	-0.809570	0.276855	-0.289551	0.629371	-0.182917	-0.753696	-0.048743
23575		9.468962	-1.481009	-1.991791	0.005010	-0.003143	-0.007408	-0.806152	0.272949	-0.282959	0.629399	-0.182997	-0.753651	-0.048780
23576		9.479450	-1.485086	-1.976732	-0.008008	-0.000865	-0.004584	-0.810791	0.278809	-0.278809	0.629398	-0.183132	-0.753613	-0.048870
23577		9.468535	-1.531821	-1.974465	-0.001979	0.001789	-0.007966	-0.814453	0.270264	-0.285889	0.629410	-0.183221	-0.753576	-0.048953
23578		9.456441	-1.516415	-1.985672	0.010259	-0.002788	-0.004830	-0.812500	0.276611	-0.284180	0.629433	-0.183165	-0.753578	-0.048848
23579		9.466757	-1.482214	-1.980949	0.009779	-0.003346	-0.006972	-0.811523	0.282471	-0.281250	0.629442	-0.183167	-0.753572	-0.048804
23580		9.488644	-1.515885	-1.947036	0.000311	-0.001255	-0.004797	-0.808594	0.281006	-0.283203	0.629440	-0.183323	-0.753531	-0.048868
23581		9.454311	-1.520897	-1.950679	0.002828	0.000928	-0.004357	-0.809326	0.275146	-0.282471	0.629477	-0.183461	-0.753464	-0.048912
23582		9.477508	-1.485071	-1.965567	0.008786	-0.001634	-0.002707	-0.811768	0.277344	-0.280273	0.629501	-0.183488	-0.753443	-0.048831
23583		9.478162	-1.507629	-1.986612	0.003104	-0.002300	-0.001935	-0.810547	0.272217	-0.288818	0.629494	-0.183574	-0.753430	-0.048798
23584		9.468605	-1.503143	-1.954679	0.003389	-0.001096	-0.005270	-0.811768	0.278564	-0.278076	0.629532	-0.183610	-0.753389	-0.048794
23585		9.454585	-1.518443	-1.951263	0.006026	-0.002148	-0.004711	-0.806641	0.273682	-0.286377	0.629522	-0.183647	-0.753392	-0.048752
23586		9.466145	-1.530184	-1.988257	0.004524	-0.003335	-0.002460	-0.818848	0.272949	-0.270508	0.629540	-0.183716	-0.753363	-0.048713
23587		9.478280	-1.505021	-1.988028	0.005174	-0.002234	-0.002781	-0.810791	0.277344	-0.280029	0.629489	-0.183647	-0.753431	-0.048578
23588		9.476104	-1.474070	-1.939079	0.010971	-0.000906	-0.004421	-0.818359	0.273682	-0.280273	0.629511	-0.183644	-0.753418	-0.048493
23589		9.473163	-1.441294	-1.937927	0.008989	-0.002652	-0.004311	-0.810059	0.276367	-0.278564	0.629503	-0.183592	-0.753445	-0.048383
23590		9.473606	-1.501447	-1.972581	0.001501	-0.003618	-0.003578	-0.820312	0.272949	-0.283936	0.629474	-0.183658	-0.753454	-0.048365
23591		9.480737	-1.511861	-1.969864	0.002090	-0.003301	-0.004623	-0.817139	0.278809	-0.285400	0.629455	-0.183656	-0.753473	-0.048325
23592		9.473388	-1.537337	-1.987529	0.004511	-0.005146	-0.007090	-0.809326	0.290283	-0.275391	0.629434	-0.183695	-0.753481	-0.048327
23593		9.444092	-1.544729	-1.984463	-0.000312	-0.004824	-0.005931	-0.809570	0.279785	-0.285400	0.629375	-0.183910	-0.753471	-0.048434
23594		9.453569	-1.564294	-1.962455	0.002449	-0.004308	-0.003927	-0.815186	0.275879	-0.288574	0.629370	-0.184029	-0.753445	-0.048452
23595		9.454894	-1.549025	-1.946567	0.012383	-0.002845	-0.007260	-0.812988	0.272705	-0.290527	0.629404	-0.183987	-0.753431	-0.048379
23596		9.462919	-1.565161	-2.019436	0.015549	-0.004364	-0.008466	-0.807861	0.274658	-0.279785	0.629441	-0.183888	-0.753431	-0.048270
23597		9.458655	-1.562901	-1.979779	0.008833	-0.002664	-0.006609	-0.814697	0.279053	-0.281250	0.629445	-0.183853	-0.753441	-0.048199
23598		9.467043	-1.519708	-1.970694	0.008737	-0.001892	-0.008188	-0.810059	0.286865	-0.280273	0.629451	-0.183840	-0.753442	-0.048169
23599		9.460087	-1.506710	-1.974489	0.014386	-0.004474	-0.011135	-0.811035	0.282227	-0.283936	0.629445	-0.183855	-0.753444	-0.048160
23600		9.468296	-1.501087	-1.978951	0.015130	-0.004147	-0.009875	-0.810059	0.278564	-0.284668	0.629458	-0.183835	-0.753441	-0.048114
23601		9.480420	-1.512635	-1.992043	0.006073	-0.003187	-0.008607	-0.808838	0.278564	-0.279541	0.629464	-0.183863	-0.753428	-0.048125
23602		9.463186	-1.533348	-2.001087	0.006590	-0.004180	-0.005608	-0.815918	0.281494	-0.287598	0.629446	-0.183896	-0.753437	-0.048088
23603		9.466936	-1.527241	-1.965497	0.005930	-0.001384	-0.006279	-0.801514	0.271729	-0.287842	0.629473	-0.183975	-0.753394	-0.048109
23604		9.467908	-1.510832	-1.973361	0.005696	-0.003615	-0.006850	-0.814209	0.281982	-0.280762	0.629500	-0.183982	-0.753371	-0.048084
23605		9.478005	-1.514162	-1.982196	0.009571	-0.003248	-0.007656	-0.813965	0.278564	-0.283691	0.629493	-0.183997	-0.753375	-0.048056
23606		9.450821	-1.530347	-1.982675	0.005282	-0.002487	-0.005954	-0.808594	0.275635	-0.280273	0.629496	-0.184038	-0.753364	-0.048045
23607		9.453677	-1.522746	-1.995024	0.003574	-0.003559	-0.004411	-0.802490	0.276855	-0.285400	0.629481	-0.184072	-0.753370	-0.048008
23608		9.456125	-1.531132	-1.975935	-0.002234	-0.000992	-0.003768	-0.810303	0.281006	-0.284912	0.629505	-0.184210	-0.753313	-0.048062
23609		9.453719	-1.558620	-2.009115	-0.004460	-0.001074	-0.005224	-0.804443	0.282959	-0.286377	0.629508	-0.184372	-0.753264	-0.048165
23610		9.460748	-1.546453	-1.961463	0.001731	-0.002304	-0.005308	-0.811768	0.282959	-0.284180	0.629528	-0.184530	-0.753205	-0.048233
23611		9.450870	-1.540733	-1.953424	0.004395	-0.001011	-0.004884	-0.811768	0.276855	-0.288818	0.629548	-0.184637	-0.753160	-0.048257
23612		9.452523	-1.547589	-1.981812	0.003274	-0.001768	-0.004387	-0.814209	0.282715	-0.281494	0.629575	-0.184717	-0.753117	-0.048265
23613		9.467932	-1.515929	-1.969450	0.000783	-0.001616	-0.004959	-0.808350	0.282471	-0.280762	0.629567	-0.184824	-0.753095	-0.048302
23614		9.467233	-1.529795	-1.962346	0.002793	-0.002334	-0.006524	-0.811768	0.287842	-0.280273	0.629562	-0.184908	-0.753077	-0.048332
23615		9.444853	-1.547847	-1.978980	0.008774	-0.003454	-0.007316	-0.812256	0.280029	-0.283936	0.629552	-0.184985	-0.753066	-0.048338
23616		9.452508	-1.542133	-2.007336	0.006975	-0.002845	-0.005041	-0.807861	0.284180	-0.281006	0.629559	-0.185032	-0.753051	-0.048310
23617		9.461060	-1.537863	-1.987877	0.000039	-0.001949	-0.006213	-0.806641	0.274658	-0.277344	0.629552	-0.185158	-0.753021	-0.048376
23618		9.480122	-1.538700	-1.952738	0.003913	-0.001580	-0.007019	-0.806641	0.277588	-0.282959	0.629548	-0.185116	-0.753038	-0.048324
23619		9.457073	-1.534010	-1.948292	0.020496	-0.003115	-0.008152	-0.809082	0.278076	-0.281738	0.629586	-0.185005	-0.753043	-0.048175
23620		9.440367	-1.501506	-1.974789	0.019495	-0.002301	-0.006211	-0.817871	0.281738	-0.287598	0.629622	-0.184912	-0.753046	-0.048016
23621		9.468416	-1.506262	-1.995721	0.004050	-0.003908	-0.004576	-0.813232	0.280518	-0.285156	0.629617	-0.185009	-0.753025	-0.048030
23622		9.461597	-1.532774	-1.989253	0.002831	-0.003896	-0.005658	-0.809570	0.281738	-0.281006	0.629606	-0.185090	-0.753014	-0.048050
23623		9.468080	-1.557971	-1.978813	0.005283	-0.002492	-0.005944	-0.801514	0.276855	-0.282227	0.629604	-0.185143	-0.753003	-0.048042
23624		9.455430	-1.558769	-1.958954	0.007886	-0.001984	-0.006241	-0.810791	0.279541	-0.281250	0.629629	-0.185146	-0.752984	-0.047994
23625		9.438701	-1.525982	-1.985691	0.018217	-0.003078	-0.008006	-0.806641	0.272705	-0.280762	0.629649	-0.185051	-0.752999	-0.047863
23626		9.469225	-1.539695	-1.987115	0.011094	-0.005059	-0.006576	-0.812012	0.279053	-0.285400	0.629640	-0.184958	-0.753037	-0.047737
23627		9.464507	-1.574688	-1.984568	-0.002122	-0.000343	-0.004635	-0.812256	0.278320	-0.283936	0.629654	-0.185070	-0.752995	-0.047792
23628		9.433452	-1.573999	-1.976035	0.005989	-0.000607	-0.005546	-0.801270	0.281494	-0.270996	0.629678	-0.185090	-0.752971	-0.047765
23629		9.456895	-1.538370	-1.967382	0.018540	-0.002529	-0.008161	-0.810303	0.277832	-0.287354	0.629681	-0.184980	-0.753006	-0.047611
23630		9.457863	-1.522137	-1.974878	0.010752	-0.001716	-0.007411	-0.814697	0.278320	-0.282715	0.629719	-0.184961	-0.752982	-0.047562
23631		9.439613	-1.557348	-1.999529	-0.001747	0.000076	-0.006386	-0.804932	0.288818	-0.279297	0.629722	-0.185020	-0.752961	-0.047606
23632		9.440295	-1.556614	-1.975705	0.003175	-0.001010	-0.005955	-0.810547	0.277100	-0.282715	0.629728	-0.185166	-0.752917	-0.047669
23633		9.482220	-1.521960	-1.955671	0.004822	-0.000728	-0.008214	-0.812988	0.277344	-0.279541	0.629744	-0.185151	-0.752908	-0.047657
23634		9.461190	-1.525579	-1.955589	-0.004725	-0.000857	-0.004337	-0.815674	0.281250	-0.291260	0.629725	-0.185227	-0.752903	-0.047690
23635		9.465819	-1.580075	-1.953676	-0.007690	-0.000364	-0.004738	-0.810547	0.282715	-0.293945	0.629740	-0.185415	-0.752836	-0.047825
23636		9.462710	-1.546581	-1.953047	0.003538	-0.002013	-0.005255	-0.806152	0.285889	-0.274170	0.629781	-0.185552	-0.752764	-0.047882
23637		9.460397	-1.536057	-1.972922	0.004710	-0.001386	-0.007342	-0.801758	0.282471	-0.285400	0.629767	-0.185598	-0.752764	-0.047888
23638		9.445425	-1.565278	-1.985540	-0.002222	0.000418	-0.006211	-0.813232	0.281006	-0.281250	0.629799	-0.185744	-0.752695	-0.047986
23639		9.450863	-1.566425	-1.977984	-0.003986	-0.001440	-0.005388	-0.809082	0.282471	-0.284424	0.629781	-0.185845	-0.752681	-0.048046
23640		9.468667	-1.543395	-1.946388	0.005965	-0.003865	-0.007704	-0.807617	0.272705	-0.284668	0.629778	-0.185889	-0.752673	-0.048054
23641		9.455097	-1.542372	-1.974646	0.011585	-0.003976	-0.009187	-0.812744	0.286621	-0.275391	0.629789	-0.185775	-0.752698	-0.047954
23642		9.463316	-1.536644	-1.979025	0.000525	-0.000886	-0.008822	-0.809570	0.279297	-0.287354	0.629765	-0.185837	-0.752699	-0.048016
23643		9.443997	-1.526144	-1.938943	-0.006800	-0.001848	-0.005797	-0.806152	0.275391	-0.279297	0.629761	-0.185979	-0.752660	-0.048123
23644		9.456399	-1.521639	-1.983873	0.002883	-0.004951	-0.009538	-0.802734	0.283447	-0.278809	0.629727	-0.185932	-0.752701	-0.048102
23645		9.450322	-1.586131	-1.966760	-0.000985	-0.004407	-0.006427	-0.811523	0.288086	-0.275391	0.629693	-0.186040	-0.752700	-0.048156
23646		9.457579	-1.557782	-1.951003	-0.002029	-0.002035	-0.005356	-0.812988	0.284180	-0.285645	0.629657	-0.186176	-0.752692	-0.048226
23647		9.476507	-1.579887	-1.984635	0.000720	-0.003336	-0.007967	-0.812500	0.285400	-0.281494	0.629646	-0.186269	-0.752673	-0.048297
23648		9.450495	-1.596963	-1.937329	0.006187	-0.002549	-0.009441	-0.812256	0.283691	-0.280518	0.629641	-0.186298	-0.752669	-0.048322
23649		9.460802	-1.546275	-1.964429	0.009524	-0.003123	-0.006036	-0.812988	0.280273	-0.275146	0.629638	-0.186310	-0.752671	-0.048271
23650		9.453659	-1.533920	-1.968254	0.013924	-0.003224	-0.008598	-0.817139	0.285400	-0.281250	0.629625	-0.186196	-0.752719	-0.048151
23651		9.459718	-1.519927	-1.968750	0.007012	-0.006241	-0.008765	-0.809570	0.281982	-0.287354	0.629581	-0.186214	-0.752751	-0.048148
23652		9.463893	-1.535114	-1.978150	0.001627	-0.002477	-0.009168	-0.802979	0.288086	-0.280518	0.629590	-0.186281	-0.752722	-0.048216
23653		9.470732	-1.597741	-1.980773	0.004848	-0.004626	-0.007196	-0.809570	0.284424	-0.288330	0.629574	-0.186390	-0.752706	-0.048260
23654		9.442322	-1.590304	-1.984758	0.006975	-0.003769	-0.007321	-0.808594	0.277344	-0.277100	0.629587	-0.186466	-0.752675	-0.048284
23655		9.435733	-1.578095	-1.964811	0.011009	-0.002868	-0.010581	-0.808350	0.283203	-0.279785	0.629582	-0.186342	-0.752715	-0.048196
23656		9.447303	-1.550808	-1.988798	0.013699	-0.005461	-0.009151	-0.809570	0.281982	-0.279785	0.629568	-0.186292	-0.752744	-0.048123
23657		9.461304	-1.586796	-1.974770	0.009043	-0.003703	-0.008158	-0.803955	0.285400	-0.281494	0.629559	-0.186273	-0.752759	-0.048081
23658		9.455496	-1.543945	-1.994108	0.013225	-0.005119	-0.008975	-0.811523	0.276611	-0.276855	0.629558	-0.186273	-0.752762	-0.048041
23659		9.451547	-1.525120	-1.986361	0.008241	-0.004834	-0.010121	-0.805420	0.280029	-0.279297	0.629524	-0.186163	-0.752823	-0.047964
23660		9.445049	-1.550834	-1.979850	0.002358	-0.004491	-0.007760	-0.806152	0.278076	-0.281982	0.629497	-0.186189	-0.752839	-0.047970
23661		9.463015	-1.565403	-1.961507	0.008087	-0.003940	-0.010111	-0.805908	0.283936	-0.291260	0.629494	-0.186138	-0.752856	-0.047936
23662		9.459469	-1.568810	-1.998014	0.008620	-0.003495	-0.009565	-0.804443	0.280518	-0.276855	0.629527	-0.186192	-0.752813	-0.047969
23663		9.454336	-1.564639	-2.006396	0.008935	-0.004364	-0.007279	-0.804932	0.288330	-0.280518	0.629510	-0.186166	-0.752838	-0.047905
23664		9.467609	-1.577373	-1.971635	0.004226	-0.001978	-0.009452	-0.808105	0.279541	-0.272705	0.629513	-0.186258	-0.752808	-0.047980
23665		9.449892	-1.574989	-1.959364	0.008792	-0.001126	-0.007418	-0.812012	0.282959	-0.284912	0.629508	-0.186189	-0.752834	-0.047898
23666		9.458733	-1.554526	-1.971123	0.010958	-0.002744	-0.008979	-0.811768	0.277832	-0.275635	0.629526	-0.186175	-0.752824	-0.047869
23667		9.448998	-1.532640	-1.994820	0.007716	-0.004363	-0.008352	-0.804688	0.279785	-0.277344	0.629492	-0.186097	-0.752877	-0.047793
23668		9.470299	-1.541033	-1.964175	0.001521	-0.001737	-0.010729	-0.813477	0.282715	-0.278076	0.629481	-0.186094	-0.752884	-0.047832
23669		9.459658	-1.586776	-1.985374	0.001470	-0.001602	-0.009143	-0.806641	0.292236	-0.284668	0.629464	-0.186119	-0.752890	-0.047873
23670		9.458431	-1.576682	-1.957537	0.002742	-0.001740	-0.009648	-0.807617	0.278809	-0.285889	0.629477	-0.186276	-0.752832	-0.048006
23671		9.454850	-1.595644	-1.962320	0.003906	-0.002534	-0.009281	-0.813965	0.280518	-0.282227	0.629489	-0.186284	-0.752818	-0.048023
23672		9.452976	-1.585292	-1.958663	0.007718	-0.004363	-0.008347	-0.813232	0.278076	-0.287842	0.629474	-0.186259	-0.752840	-0.047985
23673		9.460310	-1.540980	-1.974187	0.005767	-0.001435	-0.008528	-0.806396	0.277832	-0.281982	0.629500	-0.186244	-0.752822	-0.047973
23674		9.446121	-1.555212	-1.994464	0.001312	-0.002126	-0.006684	-0.812500	0.283936	-0.280273	0.629501	-0.186273	-0.752814	-0.047976
23675		9.458886	-1.567118	-1.983840	0.008189	-0.005635	-0.010812	-0.803223	0.276855	-0.279785	0.629468	-0.186254	-0.752846	-0.047973
23676		9.470242	-1.555246	-1.976559	0.011698	-0.003329	-0.010015	-0.806396	0.287842	-0.283203	0.629477	-0.186159	-0.752868	-0.047893
23677		9.470401	-1.553809	-1.976928	0.004017	-0.002371	-0.005401	-0.809570	0.282227	-0.280029	0.629486	-0.186291	-0.752825	-0.047939
23678		9.439322	-1.553213	-1.968684	0.000040	-0.001992	-0.006176	-0.807617	0.275635	-0.283936	0.629474	-0.186365	-0.752814	-0.047974
23679		9.442146	-1.545339	-1.980871	0.007676	-0.001887	-0.006909	-0.809814	0.282227	-0.279053	0.629497	-0.186320	-0.752810	-0.047906
23680		9.451338	-1.526175	-1.968799	0.007524	-0.001478	-0.002158	-0.810547	0.281006	-0.280273	0.629507	-0.186369	-0.752794	-0.047837
23681		9.476051	-1.552675	-1.970296	-0.001653	-0.002135	-0.002339	-0.810303	0.281494	-0.280518	0.629492	-0.186476	-0.752779	-0.047847
23682		9.456904	-1.565902	-1.974809	0.002531	-0.003545	-0.003153	-0.808350	0.285889	-0.280273	0.629475	-0.186549	-0.752778	-0.047825
23683		9.462819	-1.552541	-1.975179	0.008841	-0.002680	-0.006541	-0.809570	0.285889	-0.284424	0.629479	-0.186589	-0.752765	-0.047806
23684		9.462264	-1.566364	-1.968339	0.003897	-0.006300	-0.006669	-0.809814	0.284912	-0.279785	0.629450	-0.186679	-0.752766	-0.047832
23685		9.454079	-1.622339	-1.970296	0.002745	-0.002236	-0.004893	-0.812744	0.276123	-0.284424	0.629442	-0.186765	-0.752750	-0.047847
23686		9.437355	-1.590654	-1.973622	0.012975	-0.003954	-0.005769	-0.801514	0.285156	-0.283936	0.629454	-0.186677	-0.752771	-0.047707
23687		9.440568	-1.568309	-1.993887	0.007456	-0.005542	-0.005008	-0.809082	0.286865	-0.281982	0.629449	-0.186761	-0.752755	-0.047690
23688		9.473823	-1.590458	-1.976250	-0.000393	-0.004134	-0.007430	-0.822754	0.289551	-0.282715	0.629422	-0.186876	-0.752744	-0.047768
23689		9.462788	-1.598632	-1.984985	0.002526	-0.003065	-0.007892	-0.805664	0.274902	-0.285645	0.629399	-0.186961	-0.752739	-0.047829
23690		9.438165	-1.585664	-1.953022	0.005120	-0.004890	-0.008034	-0.802979	0.286621	-0.280518	0.629394	-0.186922	-0.752755	-0.047780
23691		9.441258	-1.615550	-1.978723	0.003103	-0.005099	-0.008776	-0.802002	0.281738	-0.275146	0.629369	-0.187001	-0.752753	-0.047834
23692		9.450861	-1.633504	-1.980045	0.005658	-0.002099	-0.007645	-0.809814	0.282959	-0.278076	0.629364	-0.187001	-0.752759	-0.047813
23693		9.460125	-1.613470	-1.968286	0.010319	-0.003853	-0.008626	-0.807373	0.287598	-0.291016	0.629353	-0.186961	-0.752781	-0.047758
23694		9.459944	-1.573480	-1.956017	0.010157	-0.003890	-0.010912	-0.805908	0.278320	-0.285645	0.629381	-0.186999	-0.752746	-0.047789
23695		9.449620	-1.566244	-1.971975	0.012067	-0.002925	-0.011744	-0.807617	0.278320	-0.281250	0.629409	-0.186904	-0.752750	-0.047733
23696		9.455738	-1.551597	-1.972268	0.010634	-0.004237	-0.011077	-0.814697	0.282227	-0.282715	0.629405	-0.186808	-0.752781	-0.047670
23697		9.451536	-1.570292	-2.001260	0.006394	-0.005033	-0.008527	-0.803223	0.283936	-0.279297	0.629382	-0.186801	-0.752804	-0.047650
23698		9.458136	-1.556492	-1.977865	-0.000069	-0.001250	-0.007741	-0.816406	0.276367	-0.279785	0.629382	-0.186882	-0.752779	-0.047712
23699		9.449859	-1.573506	-1.966761	0.000135	-0.004629	-0.009169	-0.807129	0.278809	-0.284424	0.629337	-0.186843	-0.752827	-0.047706
23700		9.429868	-1.599672	-1.987646	0.003898	-0.003490	-0.011547	-0.810303	0.284912	-0.280762	0.629335	-0.186812	-0.752835	-0.047722
23701		9.453346	-1.600916	-1.992759	0.005871	-0.002206	-0.006931	-0.807861	0.290283	-0.277344	0.629338	-0.186854	-0.752823	-0.047722
23702		9.459946	-1.587403	-1.969144	0.003059	-0.002625	-0.007339	-0.808838	0.288574	-0.283447	0.629322	-0.186963	-0.752805	-0.047787
23703		9.457013	-1.538380	-1.976504	0.008251	-0.002518	-0.010223	-0.806885	0.288574	-0.283447	0.629335	-0.187002	-0.752782	-0.047821
23704		9.457803	-1.574281	-1.989453	0.004377	-0.001495	-0.011868	-0.807129	0.282715	-0.271240	0.629349	-0.187060	-0.752750	-0.047911
23705		9.464102	-1.574660	-1.958013	0.001302	-0.001673	-0.011400	-0.812744	0.277588	-0.285645	0.629319	-0.187042	-0.752777	-0.047953
23706		9.450678	-1.588776	-1.954391	0.002419	-0.002323	-0.009452	-0.816162	0.280029	-0.279053	0.629323	-0.187021	-0.752779	-0.047957
23707		9.469874	-1.610364	-1.987736	0.005917	-0.003283	-0.010795	-0.807861	0.281982	-0.287109	0.629302	-0.186958	-0.752813	-0.047938
23708		9.458006	-1.595087	-1.975704	0.003905	-0.002561	-0.009247	-0.805420	0.288818	-0.271973	0.629317	-0.186985	-0.752792	-0.047964
23709		9.442479	-1.600749	-1.967857	0.004059	-0.002050	-0.011697	-0.806396	0.282715	-0.278076	0.629294	-0.187020	-0.752798	-0.048038
23710		9.450232	-1.556415	-1.959303	0.009952	-0.000514	-0.009465	-0.809814	0.290039	-0.280029	0.629317	-0.186982	-0.752790	-0.048006
23711		9.448366	-1.546295	-1.955160	0.010856	-0.003404	-0.008063	-0.809326	0.288574	-0.277100	0.629318	-0.187025	-0.752779	-0.048002
23712		9.469090	-1.538602	-1.980000	0.001888	-0.002780	-0.009985	-0.815430	0.287598	-0.280762	0.629294	-0.187096	-0.752776	-0.048084
23713		9.464570	-1.571861	-2.001144	0.001620	-0.003474	-0.011397	-0.809570	0.287109	-0.282715	0.629267	-0.187145	-0.752781	-0.048169
23714		9.445500	-1.613736	-1.966351	-0.000660	-0.003447	-0.011264	-0.804199	0.279297	-0.270996	0.629247	-0.187227	-0.752770	-0.048283
23715		9.436402	-1.607081	-1.934719	0.003001	-0.002021	-0.010482	-0.803467	0.286621	-0.282959	0.629222	-0.187176	-0.752804	-0.048279
23716		9.458768	-1.569253	-1.951007	0.009471	-0.003451	-0.011418	-0.806396	0.284668	-0.281494	0.629234	-0.187187	-0.752790	-0.048302
23717		9.446722	-1.576080	-2.007045	0.010847	-0.002936	-0.012789	-0.812012	0.290283	-0.286621	0.629245	-0.187144	-0.752791	-0.048304
23718		9.469399	-1.606747	-1.996720	0.003902	-0.003507	-0.011522	-0.802979	0.283447	-0.276367	0.629243	-0.187231	-0.752764	-0.048408
23719		9.456145	-1.582729	-1.956422	0.008296	-0.001262	-0.014227	-0.813721	0.280518	-0.284180	0.629253	-0.187168	-0.752771	-0.048430
23720		9.447478	-1.545254	-1.963500	0.010790	-0.001390	-0.013651	-0.808838	0.284668	-0.282471	0.629277	-0.187067	-0.752776	-0.048409
23721		9.455755	-1.538709	-1.967822	0.005229	-0.002851	-0.011311	-0.806396	0.281982	-0.282715	0.629277	-0.187083	-0.752770	-0.048454
23722		9.441366	-1.567268	-1.980358	0.001565	-0.001939	-0.012252	-0.811279	0.285400	-0.283447	0.629279	-0.187096	-0.752760	-0.048526
23723		9.459893	-1.580537	-1.961489	0.010634	-0.002839	-0.013482	-0.811768	0.280518	-0.283447	0.629290	-0.187055	-0.752760	-0.048542
23724		9.464936	-1.580149	-1.977931	0.006238	-0.002745	-0.010936	-0.814697	0.281250	-0.284424	0.629293	-0.187022	-0.752766	-0.048544
23725		9.471624	-1.565898	-1.954212	0.001042	-0.000515	-0.008219	-0.807861	0.275635	-0.280762	0.629306	-0.187060	-0.752743	-0.048584
23726		9.451156	-1.554709	-1.961650	0.008420	-0.002481	-0.007911	-0.811768	0.281006	-0.283203	0.629315	-0.186986	-0.752759	-0.048502
23727		9.460090	-1.519071	-1.981437	0.013825	-0.002468	-0.010081	-0.808594	0.284180	-0.281738	0.629338	-0.186906	-0.752765	-0.048428
23728		9.450255	-1.512493	-1.973702	0.004442	-0.005410	-0.010804	-0.810547	0.276611	-0.282227	0.629310	-0.186927	-0.752781	-0.048466
23729		9.465047	-1.547195	-1.959538	-0.007340	-0.001008	-0.008732	-0.814209	0.284912	-0.284912	0.629296	-0.186981	-0.752773	-0.048553
23730		9.462011	-1.619416	-1.969187	-0.006219	-0.001649	-0.006786	-0.808105	0.283447	-0.284180	0.629284	-0.187128	-0.752738	-0.048674
23731		9.454698	-1.606610	-1.973389	0.004815	-0.003118	-0.007981	-0.812256	0.277832	-0.285400	0.629288	-0.187172	-0.752723	-0.048690
