// Start Time: Unknown
// Update Rate: 40.0Hz
// Filter Profile: human (46.1)
// Firmware Version: 4.6.0
PacketCounter	SampleTimeFine	Acc_X	Acc_Y	Acc_Z	Gyr_X	Gyr_Y	Gyr_Z	Mag_X	Mag_Y	Mag_Z	Quat_q0	Quat_q1	Quat_q2	Quat_q3
23208		9.461886	1.237672	-2.262191	0.002757	0.001012	-0.015774	-0.796387	0.188232	-0.334961	0.585454	-0.160825	-0.767773	-0.204704
23209		9.464131	1.240879	-2.252815	0.006038	0.000165	-0.016688	-0.788818	0.193115	-0.332764	0.585425	-0.160620	-0.767821	-0.204769
23210		9.489584	1.248207	-2.240059	0.010833	0.000003	-0.015183	-0.791748	0.194580	-0.332031	0.585410	-0.160404	-0.767876	-0.204774
23211		9.491706	1.251307	-2.231260	0.004916	-0.002770	-0.017850	-0.791992	0.192627	-0.329834	0.585349	-0.160203	-0.767944	-0.204852
23212		9.474830	1.229006	-2.228744	0.006149	-0.005123	-0.016714	-0.782959	0.187500	-0.333008	0.585272	-0.160010	-0.768028	-0.204906
23213		9.461615	1.254925	-2.255601	0.005450	-0.000646	-0.015725	-0.782715	0.190674	-0.332031	0.585243	-0.159821	-0.768073	-0.204969
23214		9.461188	1.258043	-2.255654	0.008500	0.002048	-0.013964	-0.788330	0.190918	-0.331787	0.585251	-0.159619	-0.768102	-0.204995
23215		9.489449	1.264603	-2.233361	0.007708	-0.000490	-0.013853	-0.780518	0.187988	-0.332520	0.585235	-0.159430	-0.768146	-0.205023
23216		9.484640	1.238669	-2.223724	0.001976	-0.003739	-0.012591	-0.788574	0.193848	-0.332031	0.585183	-0.159302	-0.768193	-0.205093
23217		9.471249	1.224038	-2.251906	0.006929	-0.000829	-0.016816	-0.787354	0.196045	-0.335205	0.585167	-0.159092	-0.768233	-0.205150
23218		9.470752	1.227701	-2.251999	0.005082	0.001594	-0.016985	-0.790527	0.187256	-0.337402	0.585174	-0.158894	-0.768249	-0.205225
23219		9.474784	1.231931	-2.202370	0.007645	0.000401	-0.017356	-0.789062	0.194580	-0.334229	0.585177	-0.158678	-0.768279	-0.205272
23220		9.475368	1.274651	-2.231881	0.004279	-0.000066	-0.016870	-0.786865	0.198486	-0.328125	0.585182	-0.158501	-0.768294	-0.205340
23221		9.477047	1.247547	-2.233616	0.004472	0.001666	-0.016017	-0.782227	0.193115	-0.334229	0.585205	-0.158328	-0.768295	-0.205404
23222		9.479676	1.240702	-2.214812	0.004172	-0.002692	-0.014221	-0.789062	0.193359	-0.337646	0.585198	-0.158182	-0.768317	-0.205451
23223		9.480461	1.232800	-2.236599	0.004881	-0.001461	-0.014761	-0.792969	0.196289	-0.338379	0.585220	-0.158027	-0.768321	-0.205494
23224		9.467663	1.248535	-2.253534	0.006476	-0.002094	-0.015430	-0.784668	0.186279	-0.332520	0.585248	-0.157868	-0.768327	-0.205513
23225		9.480637	1.250181	-2.207446	0.003852	-0.003093	-0.015491	-0.786621	0.196533	-0.339600	0.585230	-0.157713	-0.768358	-0.205568
23226		9.477659	1.243886	-2.208259	0.004467	-0.005366	-0.013385	-0.783203	0.185303	-0.329102	0.585236	-0.157602	-0.768373	-0.205578
23227		9.473342	1.266567	-2.238622	0.007483	-0.006611	-0.012064	-0.790771	0.191162	-0.331787	0.585199	-0.157462	-0.768435	-0.205563
23228		9.477170	1.247806	-2.242216	0.006477	-0.004294	-0.012357	-0.788330	0.188965	-0.337891	0.585204	-0.157342	-0.768459	-0.205550
23229		9.489686	1.236928	-2.257946	0.005078	-0.004563	-0.014350	-0.783691	0.193359	-0.333984	0.585215	-0.157204	-0.768473	-0.205571
23230		9.457116	1.228035	-2.250364	0.007278	-0.004390	-0.015985	-0.787109	0.188232	-0.334229	0.585213	-0.157055	-0.768508	-0.205562
23231		9.457361	1.251997	-2.230513	0.007722	-0.001809	-0.016049	-0.789307	0.185303	-0.331055	0.585231	-0.156883	-0.768529	-0.205562
23232		9.469967	1.241338	-2.245785	0.007745	-0.002691	-0.013417	-0.781494	0.190674	-0.331299	0.585228	-0.156730	-0.768567	-0.205545
23233		9.473926	1.222898	-2.248822	0.005699	-0.003762	-0.013559	-0.783936	0.192627	-0.343018	0.585217	-0.156616	-0.768603	-0.205526
23234		9.489670	1.242329	-2.243791	0.006849	-0.002584	-0.015043	-0.791260	0.194336	-0.339600	0.585289	-0.156483	-0.768580	-0.205510
23235		9.495394	1.225693	-2.206484	0.003993	-0.003121	-0.018142	-0.788330	0.187012	-0.327881	0.585326	-0.156373	-0.768569	-0.205529
23236		9.459621	1.227787	-2.217613	0.005663	-0.003323	-0.019262	-0.789551	0.190918	-0.340576	0.585275	-0.156204	-0.768637	-0.205548
23237		9.469783	1.249063	-2.231082	0.007178	-0.000870	-0.019482	-0.785645	0.197021	-0.330566	0.585346	-0.156037	-0.768614	-0.205562
23238		9.467242	1.252049	-2.272066	0.008240	-0.003631	-0.017876	-0.791504	0.185303	-0.332031	0.585340	-0.155938	-0.768653	-0.205505
23239		9.491068	1.270835	-2.239123	0.010141	-0.003416	-0.014199	-0.789795	0.186768	-0.333252	0.585324	-0.155781	-0.768711	-0.205454
23240		9.489172	1.244582	-2.220449	0.000267	-0.004435	-0.012329	-0.779541	0.194336	-0.337891	0.585297	-0.155723	-0.768737	-0.205480
23241		9.478509	1.229341	-2.239780	0.002416	-0.006011	-0.014834	-0.787598	0.195801	-0.336670	0.585324	-0.155671	-0.768727	-0.205476
23242		9.470072	1.223902	-2.259352	0.000418	-0.003579	-0.014986	-0.782959	0.194580	-0.330566	0.585355	-0.155672	-0.768700	-0.205489
23243		9.467592	1.248501	-2.248366	0.006793	0.000931	-0.017671	-0.787109	0.200684	-0.331787	0.585383	-0.155577	-0.768708	-0.205453
23244		9.469824	1.251820	-2.239114	0.009253	0.000202	-0.016709	-0.788574	0.193848	-0.336670	0.585429	-0.155565	-0.768698	-0.205369
23245		9.476103	1.243707	-2.242028	0.006740	-0.002577	-0.017657	-0.793213	0.188477	-0.337158	0.585462	-0.155494	-0.768689	-0.205358
23246		9.484539	1.245067	-2.245607	0.007629	-0.002680	-0.016029	-0.793945	0.196289	-0.337158	0.585478	-0.155386	-0.768700	-0.205355
23247		9.474752	1.250573	-2.243918	0.006357	-0.004285	-0.014964	-0.791748	0.187988	-0.337402	0.585495	-0.155409	-0.768692	-0.205321
23248		9.474375	1.213982	-2.245904	0.002065	-0.000274	-0.017860	-0.784180	0.186523	-0.333496	0.585518	-0.155312	-0.768674	-0.205395
23249		9.476489	1.288388	-2.224541	0.007891	-0.001398	-0.018263	-0.782227	0.192627	-0.338379	0.585523	-0.155121	-0.768711	-0.205385
23250		9.482510	1.249713	-2.238673	0.000444	-0.003590	-0.013228	-0.789551	0.187744	-0.329102	0.585581	-0.155129	-0.768661	-0.205403
23251		9.463433	1.226727	-2.245176	0.006591	-0.003433	-0.014119	-0.788330	0.186035	-0.337891	0.585513	-0.155035	-0.768745	-0.205353
23252		9.480574	1.235531	-2.260748	0.002517	0.001426	-0.017050	-0.785889	0.187256	-0.328125	0.585572	-0.154909	-0.768707	-0.205421
23253		9.500964	1.256774	-2.205022	0.003360	0.001327	-0.017172	-0.775879	0.182861	-0.340576	0.585535	-0.154789	-0.768759	-0.205423
23254		9.464128	1.247295	-2.245760	0.000926	-0.001459	-0.015495	-0.786133	0.194336	-0.333984	0.585657	-0.154600	-0.768689	-0.205482
23255		9.460823	1.250970	-2.255604	0.006151	-0.001626	-0.014935	-0.781494	0.191162	-0.341309	0.585687	-0.154634	-0.768671	-0.205435
23256		9.480572	1.280898	-2.210481	0.007942	-0.001827	-0.011683	-0.794434	0.185303	-0.335205	0.585830	-0.154614	-0.768580	-0.205383
23257		9.491199	1.260170	-2.225344	0.005057	-0.002810	-0.011700	-0.791016	0.193848	-0.334961	0.585800	-0.154555	-0.768616	-0.205378
23258		9.470754	1.217249	-2.221313	0.003926	-0.000483	-0.011103	-0.787109	0.191650	-0.334961	0.585829	-0.154655	-0.768583	-0.205343
23259		9.482660	1.256231	-2.244583	0.007258	-0.000874	-0.013341	-0.792480	0.183838	-0.337891	0.585870	-0.154659	-0.768565	-0.205293
23260		9.469218	1.232242	-2.232274	0.008939	-0.004578	-0.012696	-0.790283	0.178955	-0.339600	0.585865	-0.154539	-0.768598	-0.205274
23261		9.467234	1.224008	-2.264196	0.006874	-0.005660	-0.013710	-0.787598	0.191650	-0.333008	0.585868	-0.154327	-0.768632	-0.205299
23262		9.476950	1.235777	-2.237724	0.005689	-0.003333	-0.014861	-0.792725	0.187988	-0.334229	0.585849	-0.154353	-0.768653	-0.205253
23263		9.472479	1.258830	-2.267076	0.005816	0.000600	-0.015331	-0.788330	0.191406	-0.335938	0.585844	-0.154312	-0.768665	-0.205252
23264		9.501255	1.256886	-2.235092	0.004941	0.000698	-0.016081	-0.784424	0.186768	-0.331299	0.585892	-0.154331	-0.768625	-0.205251
23265		9.478795	1.235970	-2.219310	0.004498	-0.001007	-0.016011	-0.791260	0.192627	-0.336426	0.585877	-0.154241	-0.768661	-0.205226
23266		9.458708	1.232960	-2.244726	0.004371	-0.001434	-0.016430	-0.792725	0.183350	-0.340576	0.585893	-0.154318	-0.768630	-0.205241
23267		9.473606	1.232583	-2.260036	0.007943	-0.000969	-0.017827	-0.787842	0.196045	-0.335449	0.585938	-0.154171	-0.768609	-0.205297
23268		9.456880	1.249995	-2.255596	0.012098	-0.001879	-0.017110	-0.789795	0.190186	-0.337402	0.585979	-0.154255	-0.768586	-0.205209
23269		9.496730	1.255598	-2.227536	0.008464	-0.002346	-0.017458	-0.788086	0.193115	-0.335693	0.586003	-0.154252	-0.768570	-0.205200
23270		9.487412	1.251603	-2.216481	0.004420	-0.008025	-0.015970	-0.783691	0.190918	-0.342529	0.585965	-0.154363	-0.768583	-0.205178
23271		9.464216	1.248612	-2.252839	0.003598	-0.007929	-0.014973	-0.791016	0.187744	-0.333984	0.586044	-0.154458	-0.768493	-0.205215
23272		9.460593	1.252048	-2.264073	0.006596	-0.006511	-0.014536	-0.780029	0.192627	-0.336914	0.585974	-0.154444	-0.768560	-0.205175
23273		9.466097	1.244783	-2.236650	0.008149	-0.000541	-0.013909	-0.784424	0.195312	-0.338379	0.586095	-0.154497	-0.768476	-0.205104
23274		9.479541	1.255041	-2.231041	0.007529	-0.002675	-0.016004	-0.783447	0.187500	-0.326904	0.586178	-0.154633	-0.768394	-0.205073
23275		9.480433	1.247240	-2.252765	0.003518	-0.001343	-0.015426	-0.780762	0.193604	-0.334717	0.586112	-0.154529	-0.768491	-0.204975
23276		9.467157	1.254467	-2.228937	0.009020	-0.000211	-0.016231	-0.787109	0.187988	-0.338135	0.586198	-0.154581	-0.768435	-0.204902
23277		9.471477	1.236578	-2.231554	0.002888	-0.003903	-0.014443	-0.782715	0.185547	-0.336426	0.586223	-0.154612	-0.768400	-0.204937
23278		9.477155	1.238259	-2.244597	0.005642	-0.002912	-0.017920	-0.789062	0.187744	-0.339111	0.586263	-0.154495	-0.768392	-0.204942
23279		9.470863	1.273155	-2.253167	0.006794	-0.001728	-0.018532	-0.788330	0.185303	-0.332520	0.586302	-0.154467	-0.768355	-0.204989
23280		9.472213	1.247746	-2.224443	0.005159	-0.001537	-0.016539	-0.789551	0.190918	-0.332275	0.586261	-0.154364	-0.768412	-0.204969
23281		9.473052	1.270686	-2.235018	0.006311	-0.000352	-0.017151	-0.786377	0.188965	-0.334473	0.586230	-0.154397	-0.768437	-0.204941
23282		9.468260	1.255191	-2.234809	0.004749	-0.003242	-0.015592	-0.781982	0.186523	-0.328369	0.586223	-0.154417	-0.768442	-0.204927
23283		9.483157	1.254631	-2.250277	0.001800	-0.001158	-0.015174	-0.780273	0.185791	-0.329102	0.586184	-0.154340	-0.768503	-0.204867
23284		9.477696	1.248909	-2.259834	0.005649	-0.002912	-0.017041	-0.782959	0.189697	-0.333252	0.586152	-0.154215	-0.768573	-0.204791
23285		9.474081	1.244771	-2.229361	0.004018	-0.002299	-0.018122	-0.793945	0.190430	-0.342529	0.586158	-0.154239	-0.768562	-0.204795
23286		9.456437	1.272078	-2.235098	0.005961	-0.005138	-0.016634	-0.781006	0.185303	-0.336426	0.586182	-0.154370	-0.768494	-0.204886
23287		9.474670	1.261375	-2.232090	0.007235	-0.003947	-0.013755	-0.780762	0.194092	-0.332275	0.586242	-0.154301	-0.768474	-0.204841
23288		9.484410	1.272772	-2.205675	0.007142	-0.004794	-0.010226	-0.791992	0.195312	-0.336914	0.586258	-0.154493	-0.768452	-0.204732
23289		9.487582	1.242626	-2.239444	0.002487	-0.006033	-0.009540	-0.788086	0.185059	-0.337891	0.586227	-0.154821	-0.768405	-0.204750
23290		9.482861	1.225809	-2.239924	0.004665	-0.004089	-0.011185	-0.789062	0.183105	-0.333008	0.586248	-0.154818	-0.768387	-0.204759
23291		9.457149	1.213975	-2.243754	0.007897	-0.000964	-0.016062	-0.794678	0.193848	-0.334229	0.586223	-0.154647	-0.768449	-0.204725
23292		9.472425	1.264437	-2.227619	0.008802	-0.001053	-0.014439	-0.788086	0.191162	-0.337646	0.586185	-0.154817	-0.768448	-0.204709
23293		9.490819	1.253669	-2.224120	0.005465	-0.003765	-0.015251	-0.796143	0.196533	-0.337891	0.586203	-0.154942	-0.768401	-0.204742
23294		9.485353	1.247559	-2.234001	0.006644	-0.002576	-0.014991	-0.783691	0.193848	-0.336182	0.586178	-0.155234	-0.768345	-0.204803
23295		9.481236	1.260377	-2.254116	0.006401	-0.003852	-0.012753	-0.787842	0.192383	-0.335938	0.586222	-0.155410	-0.768283	-0.204775
23296		9.457440	1.249865	-2.217957	0.006547	-0.003002	-0.014535	-0.794189	0.188477	-0.325195	0.586230	-0.155537	-0.768251	-0.204775
23297		9.478607	1.238948	-2.205214	0.002955	-0.003486	-0.014007	-0.779785	0.195557	-0.342285	0.586065	-0.155473	-0.768419	-0.204666
23298		9.481194	1.219514	-2.247848	0.002876	-0.000405	-0.013577	-0.784912	0.189697	-0.338135	0.586232	-0.155763	-0.768206	-0.204769
23299		9.463683	1.246503	-2.252754	0.009849	0.000551	-0.019866	-0.790771	0.195312	-0.338379	0.586311	-0.155743	-0.768140	-0.204805
23300		9.477051	1.257615	-2.246871	0.008796	-0.000629	-0.016632	-0.791992	0.187500	-0.335938	0.586341	-0.155948	-0.768061	-0.204860
23301		9.484761	1.260652	-2.219408	0.006554	-0.002582	-0.016729	-0.784424	0.189697	-0.331055	0.586308	-0.155930	-0.768082	-0.204890
23302		9.475719	1.264484	-2.248630	0.005044	-0.005473	-0.014294	-0.793213	0.194824	-0.337158	0.586268	-0.155900	-0.768144	-0.204794
23303		9.487860	1.255629	-2.232793	0.005187	0.001971	-0.013931	-0.781738	0.187988	-0.334717	0.586290	-0.156131	-0.768061	-0.204864
23304		9.475972	1.230333	-2.249822	0.008016	0.002976	-0.014790	-0.784668	0.193359	-0.332764	0.586392	-0.156044	-0.768016	-0.204807
23305		9.473246	1.254419	-2.238433	0.003788	-0.000075	-0.014149	-0.790771	0.191162	-0.333252	0.586414	-0.156136	-0.767990	-0.204771
23306		9.468021	1.247985	-2.247587	0.005417	-0.000680	-0.013066	-0.793701	0.187012	-0.339844	0.586392	-0.156202	-0.768001	-0.204744
23307		9.478307	1.229433	-2.230882	0.006648	0.000934	-0.014135	-0.783691	0.189941	-0.337646	0.586420	-0.156251	-0.767945	-0.204837
23308		9.472769	1.253515	-2.229010	0.004871	0.000690	-0.013435	-0.781494	0.185059	-0.327637	0.586503	-0.156312	-0.767863	-0.204857
23309		9.487396	1.223708	-2.224088	0.000612	-0.002367	-0.013667	-0.791748	0.190186	-0.328857	0.586477	-0.156100	-0.767964	-0.204716
23310		9.476886	1.238769	-2.231752	0.003192	-0.002217	-0.015360	-0.796631	0.188232	-0.335449	0.586380	-0.156084	-0.768056	-0.204662
23311		9.483434	1.230876	-2.234627	0.001432	-0.002042	-0.016858	-0.786377	0.188477	-0.339600	0.586303	-0.156130	-0.768079	-0.204761
23312		9.460162	1.250207	-2.217808	0.003662	-0.000086	-0.016761	-0.793457	0.197266	-0.337891	0.586368	-0.156175	-0.767994	-0.204858
23313		9.460793	1.272883	-2.228443	0.005027	-0.001965	-0.014313	-0.796631	0.192627	-0.336182	0.586355	-0.156474	-0.767921	-0.204941
23314		9.500734	1.227643	-2.232181	0.000260	-0.007160	-0.014012	-0.782959	0.199463	-0.333252	0.586241	-0.156693	-0.767937	-0.205040
23315		9.462160	1.228223	-2.252982	0.004329	-0.004116	-0.018140	-0.786621	0.192627	-0.338135	0.586239	-0.156899	-0.767898	-0.205037
23316		9.464509	1.252816	-2.224184	0.007012	-0.003952	-0.017217	-0.777832	0.191162	-0.338623	0.586255	-0.157013	-0.767847	-0.205093
23317		9.472962	1.254083	-2.228064	0.006312	-0.003849	-0.013607	-0.792480	0.196533	-0.334473	0.586352	-0.157088	-0.767759	-0.205089
23318		9.473096	1.247351	-2.219528	0.008587	-0.004975	-0.014807	-0.789795	0.189453	-0.331787	0.586291	-0.157277	-0.767769	-0.205080
23319		9.484246	1.256399	-2.255036	0.004038	-0.005813	-0.014572	-0.800537	0.193359	-0.343262	0.586216	-0.157248	-0.767846	-0.205028
23320		9.483188	1.230759	-2.236396	0.009471	-0.004642	-0.016254	-0.788818	0.185547	-0.332764	0.586160	-0.157544	-0.767774	-0.205232
23321		9.479645	1.234382	-2.247027	0.006990	-0.003954	-0.017212	-0.787598	0.190918	-0.335205	0.586122	-0.157369	-0.767854	-0.205173
23322		9.461352	1.232418	-2.233148	0.008124	-0.006271	-0.017795	-0.787842	0.190430	-0.334961	0.586088	-0.157378	-0.767880	-0.205165
23323		9.491898	1.249122	-2.243752	0.007984	-0.003610	-0.016045	-0.787354	0.190918	-0.334229	0.586081	-0.157385	-0.767889	-0.205147
23324		9.482930	1.245083	-2.231964	0.005886	-0.001218	-0.017952	-0.787598	0.189697	-0.338623	0.586087	-0.157378	-0.767885	-0.205151
23325		9.476712	1.249076	-2.251276	0.004782	-0.002406	-0.016463	-0.788086	0.184326	-0.338623	0.586111	-0.157454	-0.767828	-0.205238
23326		9.498013	1.238978	-2.238410	0.009913	-0.002509	-0.017652	-0.790039	0.188232	-0.326172	0.586137	-0.157346	-0.767821	-0.205270
23327		9.465388	1.260000	-2.219465	0.008016	-0.003189	-0.017366	-0.779541	0.201172	-0.342285	0.586055	-0.157126	-0.767976	-0.205094
23328		9.466325	1.252287	-2.241468	0.006243	-0.003438	-0.016665	-0.784668	0.189697	-0.334473	0.586161	-0.157501	-0.767787	-0.205211
23329		9.474513	1.233167	-2.265678	0.005444	-0.002931	-0.017868	-0.785889	0.192139	-0.329834	0.586172	-0.157458	-0.767791	-0.205198
23330		9.494318	1.263633	-2.251809	0.011198	-0.000465	-0.019175	-0.790283	0.187744	-0.329102	0.586173	-0.157338	-0.767849	-0.205072
23331		9.488113	1.259609	-2.230820	0.006654	-0.005237	-0.016705	-0.786621	0.196289	-0.330322	0.586086	-0.157195	-0.767972	-0.204966
23332		9.488055	1.232838	-2.242426	0.006773	-0.000884	-0.018521	-0.784424	0.189941	-0.341553	0.586073	-0.157252	-0.767984	-0.204917
23333		9.458191	1.261794	-2.254185	0.007898	-0.000106	-0.016940	-0.783691	0.187744	-0.332764	0.586170	-0.157333	-0.767868	-0.205013
23334		9.474301	1.272607	-2.239083	0.007766	-0.000951	-0.015158	-0.782715	0.191650	-0.334473	0.586206	-0.157220	-0.767886	-0.204927
23335		9.488496	1.273666	-2.223701	0.002218	-0.002567	-0.013888	-0.788574	0.189453	-0.333740	0.586236	-0.157291	-0.767851	-0.204921
23336		9.492173	1.244506	-2.256571	0.002932	-0.003084	-0.014425	-0.788086	0.189941	-0.332520	0.586211	-0.157314	-0.767864	-0.204923
23337		9.462968	1.213827	-2.258778	0.001200	0.001005	-0.017284	-0.787842	0.192627	-0.334229	0.586211	-0.157302	-0.767859	-0.204952
23338		9.477433	1.265559	-2.242493	0.006115	0.000057	-0.018433	-0.787109	0.185303	-0.340576	0.586222	-0.157339	-0.767837	-0.204975
23339		9.484182	1.258018	-2.244821	0.001949	0.000493	-0.016950	-0.789307	0.190674	-0.333496	0.586284	-0.157336	-0.767756	-0.205105
23340		9.479890	1.242903	-2.243928	0.005142	-0.000287	-0.018724	-0.787109	0.185303	-0.333496	0.586271	-0.157324	-0.767762	-0.205125
23341		9.467564	1.269977	-2.229912	0.001473	0.002283	-0.017776	-0.789795	0.191895	-0.338379	0.586296	-0.157200	-0.767762	-0.205151
23342		9.462266	1.243452	-2.259137	-0.000115	-0.001043	-0.015752	-0.786621	0.191650	-0.333496	0.586305	-0.157366	-0.767686	-0.205281
23343		9.476461	1.245181	-2.243485	0.005930	-0.000790	-0.017517	-0.791504	0.189697	-0.329834	0.586311	-0.157371	-0.767683	-0.205272
23344		9.480664	1.279238	-2.214561	0.007690	-0.000949	-0.016020	-0.788330	0.194092	-0.339600	0.586263	-0.157299	-0.767754	-0.205197
23345		9.479941	1.261764	-2.235613	0.002109	-0.002582	-0.015621	-0.784180	0.191895	-0.333740	0.586281	-0.157516	-0.767664	-0.205320
23346		9.477431	1.255720	-2.235944	0.001818	-0.003862	-0.015124	-0.793701	0.185303	-0.328125	0.586275	-0.157578	-0.767655	-0.205320
23347		9.466675	1.242011	-2.223790	0.000932	-0.003784	-0.015872	-0.788330	0.191895	-0.335205	0.586163	-0.157439	-0.767782	-0.205274
23348		9.475090	1.272536	-2.247588	0.007345	-0.002233	-0.016392	-0.788574	0.193848	-0.333984	0.586163	-0.157492	-0.767768	-0.205283
23349		9.488319	1.283289	-2.242154	0.005915	-0.001615	-0.013121	-0.783203	0.187988	-0.332031	0.586165	-0.157613	-0.767745	-0.205272
23350		9.483337	1.247801	-2.231109	0.001999	0.000086	-0.013005	-0.780273	0.184326	-0.339844	0.586201	-0.157563	-0.767741	-0.205224
23351		9.458069	1.235669	-2.234135	0.005146	-0.000693	-0.015648	-0.775635	0.197266	-0.338135	0.586304	-0.157477	-0.767672	-0.205253
23352		9.450166	1.250371	-2.232420	0.007419	-0.002220	-0.014648	-0.782959	0.194336	-0.331055	0.586414	-0.157651	-0.767554	-0.205244
23353		9.479947	1.247601	-2.232015	0.008504	-0.001441	-0.013940	-0.792969	0.195312	-0.327637	0.586434	-0.157684	-0.767559	-0.205144
23354		9.493139	1.237065	-2.247130	0.008216	-0.002722	-0.013443	-0.793213	0.185059	-0.333984	0.586349	-0.157745	-0.767638	-0.205045
23355		9.479760	1.222926	-2.244062	0.008446	-0.001037	-0.017004	-0.784668	0.187500	-0.339111	0.586319	-0.157612	-0.767692	-0.205032
23356		9.459864	1.260691	-2.228598	0.007362	-0.002228	-0.015515	-0.785889	0.192627	-0.334717	0.586373	-0.157596	-0.767648	-0.205055
23357		9.468411	1.261953	-2.232257	0.008877	-0.003244	-0.014847	-0.791016	0.189697	-0.337891	0.586380	-0.157647	-0.767641	-0.205019
23358		9.459529	1.285750	-2.240470	0.007305	0.000451	-0.012034	-0.788330	0.193848	-0.333008	0.586415	-0.157721	-0.767593	-0.205043
23359		9.497863	1.261516	-2.232009	0.004377	-0.001013	-0.011585	-0.788086	0.187012	-0.333496	0.586414	-0.157842	-0.767575	-0.205021
23360		9.465456	1.231364	-2.212917	0.004762	-0.002815	-0.012495	-0.785645	0.185059	-0.344238	0.586401	-0.157798	-0.767605	-0.204979
23361		9.477719	1.230455	-2.237680	0.006165	-0.000337	-0.013609	-0.784424	0.190186	-0.330078	0.586502	-0.157815	-0.767501	-0.205067
23362		9.478046	1.252246	-2.248536	0.007648	-0.001768	-0.011617	-0.791504	0.184326	-0.333252	0.586506	-0.157767	-0.767542	-0.204937
23363		9.476799	1.256484	-2.218399	0.008439	-0.001858	-0.012608	-0.784912	0.185791	-0.334229	0.586484	-0.157646	-0.767603	-0.204866
23364		9.477214	1.228635	-2.229980	-0.000300	-0.005838	-0.012586	-0.793457	0.189941	-0.328369	0.586457	-0.157620	-0.767631	-0.204859
23365		9.480097	1.229880	-2.252656	0.007052	-0.003510	-0.015011	-0.785400	0.191895	-0.334473	0.586362	-0.157577	-0.767730	-0.204790
23366		9.482365	1.233169	-2.243770	0.004663	0.001093	-0.015599	-0.778564	0.187744	-0.335938	0.586403	-0.157616	-0.767688	-0.204803
23367		9.477232	1.248049	-2.232528	0.008120	-0.002318	-0.016498	-0.792236	0.188721	-0.343750	0.586471	-0.157524	-0.767669	-0.204752
23368		9.484715	1.280080	-2.225617	0.006328	-0.002996	-0.014472	-0.788330	0.187012	-0.340576	0.586502	-0.157617	-0.767599	-0.204852
23369		9.474921	1.263781	-2.244348	0.005174	-0.004612	-0.012527	-0.785645	0.191650	-0.333496	0.586519	-0.157662	-0.767566	-0.204889
23370		9.483574	1.243441	-2.268495	0.004909	-0.002378	-0.011205	-0.786621	0.186768	-0.332520	0.586528	-0.157730	-0.767558	-0.204844
23371		9.470692	1.221061	-2.224465	0.004334	-0.000607	-0.013774	-0.781982	0.200439	-0.335205	0.586533	-0.157657	-0.767580	-0.204803
23372		9.479076	1.251016	-2.247785	0.003493	-0.000526	-0.013651	-0.795654	0.193848	-0.333008	0.586583	-0.157903	-0.767484	-0.204828
23373		9.478515	1.275001	-2.227863	0.006564	-0.002131	-0.013641	-0.781738	0.190186	-0.342773	0.586523	-0.158008	-0.767508	-0.204832
23374		9.471051	1.239454	-2.226075	0.001144	0.000157	-0.012001	-0.788330	0.190430	-0.330078	0.586633	-0.158139	-0.767372	-0.204924
23375		9.453387	1.215418	-2.231227	0.001607	-0.001221	-0.013363	-0.783203	0.191895	-0.337158	0.586600	-0.158136	-0.767407	-0.204890
23376		9.464422	1.266294	-2.225090	0.003050	-0.002656	-0.012240	-0.787354	0.190430	-0.337891	0.586638	-0.158231	-0.767355	-0.204902
23377		9.486856	1.254041	-2.243031	0.003637	-0.003601	-0.013189	-0.787354	0.190674	-0.337402	0.586644	-0.158307	-0.767326	-0.204936
23378		9.473614	1.238882	-2.240396	0.006995	-0.005155	-0.007964	-0.790283	0.192139	-0.341797	0.586652	-0.158410	-0.767311	-0.204891
23379		9.487916	1.239105	-2.225523	0.008397	-0.001850	-0.012600	-0.785889	0.197998	-0.333984	0.586691	-0.158544	-0.767238	-0.204947
23380		9.464369	1.256805	-2.209205	0.007308	-0.002635	-0.013304	-0.780518	0.192627	-0.338135	0.586694	-0.158691	-0.767213	-0.204919
23381		9.466810	1.217537	-2.241459	0.005505	-0.002908	-0.013472	-0.786377	0.190674	-0.339355	0.586752	-0.158762	-0.767155	-0.204917
23382		9.477106	1.228583	-2.245616	0.008861	-0.002406	-0.017479	-0.791016	0.192139	-0.333740	0.586780	-0.158768	-0.767123	-0.204950
23383		9.488283	1.251694	-2.219586	0.005970	-0.003465	-0.018351	-0.791748	0.193115	-0.340088	0.586727	-0.158765	-0.767160	-0.204966
23384		9.485509	1.253663	-2.260521	0.002988	-0.001847	-0.016622	-0.788818	0.198242	-0.333252	0.586719	-0.158912	-0.767100	-0.205100
23385		9.458418	1.252930	-2.243026	0.005444	-0.002916	-0.014338	-0.787842	0.192383	-0.338135	0.586690	-0.159062	-0.767091	-0.205099
23386		9.470953	1.244613	-2.227317	0.008278	-0.001865	-0.014333	-0.786133	0.195801	-0.340576	0.586712	-0.159131	-0.767055	-0.205117
23387		9.473181	1.247648	-2.218804	0.001813	-0.003881	-0.013350	-0.786377	0.195557	-0.343750	0.586725	-0.159365	-0.766966	-0.205230
23388		9.480200	1.218402	-2.242197	0.002036	-0.002609	-0.014716	-0.793457	0.187012	-0.336914	0.586757	-0.159633	-0.766838	-0.205410
23389		9.474428	1.261905	-2.251532	0.004108	-0.001053	-0.015046	-0.794189	0.188965	-0.341309	0.586734	-0.159617	-0.766845	-0.205464
23390		9.476143	1.245949	-2.232193	0.005754	-0.001626	-0.013965	-0.786865	0.198242	-0.336426	0.586723	-0.159730	-0.766797	-0.205585
23391		9.475598	1.248988	-2.232807	0.005627	-0.002059	-0.014377	-0.786865	0.195068	-0.336670	0.586729	-0.159903	-0.766747	-0.205620
23392		9.483592	1.231217	-2.226068	0.003227	-0.004907	-0.014416	-0.786377	0.187988	-0.338623	0.586705	-0.160036	-0.766726	-0.205662
23393		9.464161	1.245654	-2.262143	0.006606	-0.001290	-0.015410	-0.787109	0.189697	-0.334961	0.586736	-0.160006	-0.766703	-0.205685
23394		9.467644	1.239395	-2.243104	0.005451	0.001015	-0.014838	-0.790039	0.183838	-0.337891	0.586768	-0.159951	-0.766695	-0.205662
23395		9.492956	1.248690	-2.230484	0.003626	0.000323	-0.013682	-0.787354	0.194580	-0.338379	0.586788	-0.159875	-0.766689	-0.205690
23396		9.462635	1.228498	-2.211554	0.001891	-0.003048	-0.015123	-0.787109	0.185059	-0.329590	0.586781	-0.160025	-0.766639	-0.205780
23397		9.473133	1.218859	-2.235699	0.004180	-0.000217	-0.016821	-0.781982	0.194092	-0.338135	0.586776	-0.159761	-0.766730	-0.205659
23398		9.467241	1.262660	-2.244818	0.005776	-0.000797	-0.016608	-0.788574	0.186035	-0.332764	0.586831	-0.159809	-0.766671	-0.205683
23399		9.479865	1.254972	-2.228677	0.001442	-0.001257	-0.015085	-0.783936	0.187744	-0.343018	0.586814	-0.159688	-0.766717	-0.205653
23400		9.466811	1.240893	-2.225141	0.002328	-0.001325	-0.014338	-0.797852	0.190186	-0.332031	0.586875	-0.159743	-0.766634	-0.205747
23401		9.476205	1.240379	-2.259220	0.004762	-0.001980	-0.014248	-0.785400	0.197998	-0.338379	0.586792	-0.159745	-0.766696	-0.205749
23402		9.480572	1.245618	-2.210303	0.005669	-0.001634	-0.014825	-0.789795	0.189209	-0.333740	0.586820	-0.159912	-0.766627	-0.205799
23403		9.484754	1.237326	-2.222420	0.002174	-0.002174	-0.013424	-0.786133	0.188477	-0.331055	0.586795	-0.159895	-0.766653	-0.205787
23404		9.455685	1.234287	-2.244837	0.004011	-0.001066	-0.015904	-0.793701	0.195312	-0.324951	0.586790	-0.159757	-0.766706	-0.205712
23405		9.474915	1.264974	-2.231043	0.007478	-0.000939	-0.015979	-0.789795	0.192383	-0.327881	0.586711	-0.159696	-0.766807	-0.205607
23406		9.474786	1.260456	-2.191086	0.007877	-0.003559	-0.013364	-0.783691	0.191162	-0.328613	0.586655	-0.159634	-0.766896	-0.205485
23407		9.473478	1.230391	-2.243030	0.002049	-0.006945	-0.011132	-0.791260	0.189453	-0.339844	0.586601	-0.159602	-0.766974	-0.205370
23408		9.485572	1.229329	-2.268632	0.008832	-0.003200	-0.013074	-0.788574	0.191162	-0.336670	0.586605	-0.159642	-0.766959	-0.205387
23409		9.482308	1.245723	-2.217993	0.009506	-0.003308	-0.015799	-0.790771	0.199219	-0.328613	0.586600	-0.159633	-0.766968	-0.205371
23410		9.475559	1.229603	-2.227238	0.006922	-0.003504	-0.014976	-0.785156	0.183838	-0.327881	0.586533	-0.159721	-0.767012	-0.205330
23411		9.466367	1.232362	-2.256581	0.009087	-0.005437	-0.014385	-0.791016	0.190918	-0.335449	0.586492	-0.159464	-0.767147	-0.205146
23412		9.480591	1.234237	-2.241497	0.000656	-0.000357	-0.016734	-0.786377	0.191895	-0.330811	0.586477	-0.159500	-0.767128	-0.205230
23413		9.487330	1.247969	-2.223497	0.000652	-0.000357	-0.016733	-0.780029	0.195068	-0.337891	0.586464	-0.159482	-0.767138	-0.205245
23414		9.468684	1.233982	-2.238529	0.005647	-0.001223	-0.016141	-0.780029	0.197510	-0.334717	0.586531	-0.159533	-0.767073	-0.205255
23415		9.470626	1.258607	-2.209382	0.006533	-0.001287	-0.015394	-0.794189	0.191406	-0.327881	0.586581	-0.159600	-0.767027	-0.205232
23416		9.483586	1.229637	-2.214061	0.005748	-0.004720	-0.015216	-0.791992	0.187256	-0.333984	0.586476	-0.159572	-0.767123	-0.205192
23417		9.461080	1.243724	-2.259900	0.005745	-0.004720	-0.015215	-0.791016	0.191650	-0.339355	0.586422	-0.159516	-0.767180	-0.205182
23418		9.487293	1.243797	-2.238637	0.012940	-0.003168	-0.015869	-0.791504	0.184570	-0.333008	0.586430	-0.159527	-0.767173	-0.205176
23419		9.475373	1.219907	-2.226256	0.011265	-0.006538	-0.016434	-0.789795	0.187744	-0.326416	0.586365	-0.159365	-0.767278	-0.205094
23420		9.489752	1.241273	-2.222420	0.009118	-0.003786	-0.019671	-0.789307	0.186035	-0.336670	0.586285	-0.159179	-0.767399	-0.205012
23421		9.470852	1.267918	-2.228537	0.004867	-0.003838	-0.018603	-0.791016	0.199707	-0.336914	0.586264	-0.159093	-0.767426	-0.205041
23422		9.470148	1.231668	-2.239209	0.005113	-0.002968	-0.017780	-0.791504	0.185303	-0.331055	0.586241	-0.159271	-0.767380	-0.205138
23423		9.479867	1.264286	-2.223271	0.004302	-0.003705	-0.014142	-0.793213	0.191895	-0.337891	0.586186	-0.159184	-0.767450	-0.205102
23424		9.461072	1.249640	-2.239426	0.003398	-0.007574	-0.014371	-0.792480	0.196045	-0.332520	0.586121	-0.159298	-0.767459	-0.205167
23425		9.477130	1.239800	-2.245995	0.006606	-0.004785	-0.014462	-0.786621	0.188721	-0.332520	0.586061	-0.159409	-0.767478	-0.205182
23426		9.476431	1.243021	-2.247165	0.005975	-0.003442	-0.015708	-0.792480	0.185303	-0.337158	0.586046	-0.159344	-0.767512	-0.205144
23427		9.474264	1.236576	-2.247358	0.006471	-0.001701	-0.014063	-0.786865	0.190918	-0.332764	0.586047	-0.159297	-0.767520	-0.205150
23428		9.484387	1.247890	-2.251618	0.008358	-0.003687	-0.017807	-0.786621	0.192627	-0.334229	0.586029	-0.159242	-0.767553	-0.205120
23429		9.478832	1.263029	-2.241152	0.006810	-0.003106	-0.017151	-0.778320	0.186768	-0.335938	0.586024	-0.159246	-0.767555	-0.205122
23430		9.471933	1.228012	-2.239739	0.006727	-0.003940	-0.015370	-0.788086	0.201172	-0.333252	0.586076	-0.159134	-0.767560	-0.205045
23431		9.471437	1.250387	-2.251629	0.005503	-0.005584	-0.015155	-0.788818	0.187500	-0.335693	0.586033	-0.159325	-0.767543	-0.205082
23432		9.493352	1.241297	-2.238728	0.005775	0.000038	-0.017498	-0.789795	0.192139	-0.326416	0.586054	-0.159256	-0.767537	-0.205100
23433		9.484902	1.237464	-2.226086	0.004946	0.000520	-0.018698	-0.784424	0.187988	-0.332764	0.586014	-0.159198	-0.767580	-0.205096
23434		9.450930	1.246186	-2.236838	0.005965	-0.002624	-0.018347	-0.785156	0.193848	-0.333008	0.586015	-0.159093	-0.767608	-0.205071
23435		9.472353	1.258454	-2.203829	0.007611	-0.003589	-0.015944	-0.789062	0.189209	-0.336182	0.586011	-0.159115	-0.767612	-0.205048
23436		9.487210	1.258108	-2.220092	0.008107	-0.005776	-0.013783	-0.789551	0.190918	-0.332031	0.585991	-0.159117	-0.767635	-0.205019
23437		9.486482	1.260892	-2.221624	0.006561	-0.005196	-0.013127	-0.791016	0.193848	-0.334473	0.585949	-0.159140	-0.767672	-0.204985
23438		9.497334	1.210455	-2.255954	0.005290	-0.002516	-0.015621	-0.788330	0.191650	-0.336670	0.585929	-0.159216	-0.767660	-0.205026
23439		9.468543	1.240035	-2.228258	0.003302	-0.003667	-0.015739	-0.788574	0.192871	-0.335449	0.585922	-0.159272	-0.767641	-0.205074
23440		9.454948	1.233565	-2.265743	0.007031	-0.001417	-0.018967	-0.791748	0.192627	-0.329834	0.585926	-0.159278	-0.767625	-0.205114
23441		9.473655	1.245867	-2.241457	0.005919	0.000484	-0.016215	-0.787354	0.199951	-0.337891	0.585906	-0.159285	-0.767637	-0.205124
23442		9.492322	1.258133	-2.217343	0.007599	-0.002770	-0.018584	-0.788818	0.195557	-0.329590	0.585916	-0.159431	-0.767577	-0.205204
23443		9.489502	1.259628	-2.258016	0.005786	0.000047	-0.016623	-0.789551	0.185059	-0.330078	0.585905	-0.159466	-0.767576	-0.205214
23444		9.467627	1.247340	-2.250982	0.003794	0.002823	-0.017262	-0.780273	0.195068	-0.335449	0.585920	-0.159322	-0.767599	-0.205199
23445		9.465039	1.243533	-2.219325	0.006737	0.000412	-0.016333	-0.788330	0.188477	-0.335449	0.585990	-0.159352	-0.767539	-0.205198
23446		9.481457	1.234470	-2.224453	0.003798	-0.000700	-0.018062	-0.790771	0.186279	-0.335938	0.585999	-0.159311	-0.767529	-0.205240
23447		9.470358	1.268642	-2.242614	0.006294	-0.000911	-0.018427	-0.784668	0.189697	-0.334229	0.586001	-0.159227	-0.767539	-0.205263
23448		9.478029	1.240074	-2.265467	0.006993	-0.001827	-0.017635	-0.788574	0.191406	-0.320312	0.586019	-0.159166	-0.767542	-0.205247
23449		9.481639	1.234733	-2.246614	0.009870	0.000090	-0.019417	-0.784180	0.188232	-0.337891	0.585960	-0.159017	-0.767642	-0.205159
23450		9.472764	1.271127	-2.224359	0.006909	0.001679	-0.017699	-0.789062	0.192139	-0.333496	0.586035	-0.158946	-0.767598	-0.205164
23451		9.475685	1.253848	-2.235289	0.009857	-0.000318	-0.018092	-0.778809	0.187500	-0.330811	0.586043	-0.158920	-0.767598	-0.205161
23452		9.460983	1.270426	-2.221390	0.004790	-0.000732	-0.015579	-0.787109	0.182617	-0.333252	0.586084	-0.158814	-0.767607	-0.205094
23453		9.488047	1.268957	-2.230487	0.003196	-0.004509	-0.013944	-0.787109	0.184326	-0.337646	0.586062	-0.158714	-0.767655	-0.205051
23454		9.470874	1.244544	-2.236473	0.003649	-0.006297	-0.013971	-0.789551	0.187012	-0.331055	0.586049	-0.158667	-0.767680	-0.205031
23455		9.470190	1.247632	-2.237646	0.001007	-0.003005	-0.013215	-0.791504	0.196045	-0.333252	0.586011	-0.158670	-0.767707	-0.205039
23456		9.469613	1.231708	-2.227556	-0.000409	-0.001586	-0.013474	-0.786133	0.184814	-0.337158	0.585984	-0.158843	-0.767667	-0.205132
23457		9.464868	1.225121	-2.236354	0.006107	0.001356	-0.015384	-0.786865	0.190186	-0.330811	0.586049	-0.158744	-0.767644	-0.205108
23458		9.486492	1.256385	-2.213300	0.001127	-0.002162	-0.014127	-0.783936	0.202393	-0.335205	0.586028	-0.158776	-0.767648	-0.205128
23459		9.463123	1.252912	-2.217238	0.004078	-0.004155	-0.014519	-0.791260	0.191162	-0.337891	0.586029	-0.158992	-0.767587	-0.205187
23460		9.482381	1.262669	-2.224319	0.001954	-0.002231	-0.014247	-0.786377	0.190918	-0.332520	0.586029	-0.159074	-0.767553	-0.205252
23461		9.459133	1.258927	-2.227885	0.003222	-0.000972	-0.012276	-0.783203	0.189697	-0.345215	0.586041	-0.159114	-0.767537	-0.205245
23462		9.491417	1.226577	-2.237047	0.003845	0.002029	-0.012875	-0.787354	0.189209	-0.328125	0.586171	-0.159157	-0.767421	-0.205276
23463		9.481196	1.252344	-2.213812	0.008003	0.002096	-0.014807	-0.786865	0.190186	-0.338867	0.586186	-0.159082	-0.767439	-0.205221
23464		9.491399	1.225593	-2.196193	0.006937	-0.002233	-0.016299	-0.786621	0.194824	-0.334229	0.586216	-0.159074	-0.767416	-0.205229
23465		9.465083	1.260200	-2.230872	0.005728	-0.003885	-0.016081	-0.780029	0.194092	-0.337646	0.586200	-0.159136	-0.767410	-0.205249
23466		9.467259	1.244683	-2.212061	0.007390	-0.004427	-0.015002	-0.785400	0.189697	-0.331055	0.586237	-0.159175	-0.767380	-0.205226
23467		9.481483	1.265783	-2.207970	0.009423	-0.002843	-0.015341	-0.789062	0.202881	-0.336670	0.586232	-0.159110	-0.767416	-0.205158
23468		9.482237	1.297164	-2.220303	0.010506	-0.002848	-0.012000	-0.787598	0.199707	-0.333252	0.586244	-0.159323	-0.767358	-0.205172
23469		9.503023	1.225381	-2.246812	0.004581	-0.006745	-0.011026	-0.792236	0.187012	-0.335693	0.586199	-0.159525	-0.767346	-0.205190
23470		9.469713	1.225013	-2.217833	0.009996	-0.004193	-0.014956	-0.789795	0.196045	-0.342041	0.586177	-0.159467	-0.767386	-0.205150
23471		9.461782	1.237134	-2.247889	0.008846	-0.005018	-0.016516	-0.796387	0.200195	-0.334961	0.586179	-0.159582	-0.767344	-0.205210
23472		9.477439	1.249101	-2.233730	0.004476	-0.002022	-0.015062	-0.788330	0.189941	-0.336426	0.586135	-0.159787	-0.767305	-0.205321
23473		9.490301	1.260900	-2.228564	0.003391	-0.002831	-0.015756	-0.792969	0.191162	-0.334961	0.586130	-0.159806	-0.767294	-0.205360
23474		9.493314	1.243241	-2.239960	0.003764	-0.001517	-0.014530	-0.779541	0.199951	-0.335938	0.586113	-0.159860	-0.767284	-0.205408
23475		9.463682	1.241560	-2.231345	0.006310	-0.000889	-0.016675	-0.782715	0.189941	-0.333008	0.586164	-0.159965	-0.767213	-0.205446
23476		9.467464	1.254749	-2.222780	0.006227	0.001806	-0.014103	-0.785889	0.194824	-0.331543	0.586227	-0.159908	-0.767189	-0.205398
23477		9.485654	1.235616	-2.217743	0.002225	-0.001354	-0.012553	-0.786621	0.191650	-0.337891	0.586229	-0.159987	-0.767169	-0.205407
23478		9.472951	1.258911	-2.235326	0.002217	-0.000949	-0.013875	-0.783936	0.196533	-0.333008	0.586257	-0.160057	-0.767118	-0.205460
23479		9.473938	1.238261	-2.286442	0.004193	-0.000187	-0.012437	-0.790039	0.194092	-0.332275	0.586289	-0.160148	-0.767074	-0.205464
23480		9.492101	1.233424	-2.220962	0.005932	-0.003015	-0.015252	-0.787842	0.186523	-0.331543	0.586259	-0.160186	-0.767086	-0.205474
23481		9.470080	1.239531	-2.225750	0.007340	-0.004023	-0.016311	-0.785156	0.187256	-0.340332	0.586234	-0.160062	-0.767149	-0.205408
23482		9.478650	1.241571	-2.229414	0.005271	-0.001685	-0.016499	-0.774902	0.194824	-0.339111	0.586274	-0.160025	-0.767120	-0.205430
23483		9.475216	1.244597	-2.239327	0.006298	-0.001700	-0.014025	-0.780029	0.192383	-0.332031	0.586361	-0.160071	-0.767049	-0.205413
23484		9.492327	1.266020	-2.225440	0.006228	-0.001717	-0.014890	-0.782227	0.186768	-0.334961	0.586392	-0.160033	-0.767047	-0.205359
23485		9.481348	1.241991	-2.211925	0.003491	-0.002804	-0.014016	-0.785645	0.196289	-0.336914	0.586416	-0.159968	-0.767053	-0.205319
23486		9.467225	1.236807	-2.218852	0.005420	-0.005176	-0.015556	-0.786865	0.190186	-0.333252	0.586402	-0.160062	-0.767035	-0.205356
23487		9.492690	1.245093	-2.238468	0.004065	-0.003747	-0.014953	-0.793701	0.189941	-0.333496	0.586383	-0.160050	-0.767053	-0.205348
23488		9.470719	1.251182	-2.242947	0.005375	-0.001248	-0.016087	-0.790039	0.187256	-0.339355	0.586357	-0.160039	-0.767068	-0.205374
23489		9.478801	1.255464	-2.215236	0.002301	-0.000113	-0.014783	-0.787598	0.186523	-0.336670	0.586384	-0.160045	-0.767033	-0.205425
23490		9.491244	1.236475	-2.229010	0.001923	-0.001430	-0.016005	-0.791260	0.192139	-0.341309	0.586395	-0.160003	-0.767026	-0.205453
23491		9.473487	1.252841	-2.224537	0.002682	-0.001511	-0.016991	-0.789062	0.184326	-0.335693	0.586403	-0.160081	-0.766975	-0.205559
23492		9.467119	1.255725	-2.243933	0.002402	-0.004024	-0.013383	-0.787109	0.196045	-0.339111	0.586385	-0.160036	-0.767002	-0.205546
23493		9.471600	1.247310	-2.256140	0.002890	-0.001864	-0.013074	-0.784912	0.195801	-0.333496	0.586408	-0.160176	-0.766938	-0.205609
23494		9.491577	1.269004	-2.232754	0.003958	-0.000645	-0.013702	-0.788574	0.181152	-0.334717	0.586429	-0.160246	-0.766904	-0.205624
23495		9.499741	1.272872	-2.204951	0.002421	-0.000079	-0.013050	-0.788330	0.189209	-0.331787	0.586450	-0.160134	-0.766921	-0.205587
23496		9.470148	1.220422	-2.204664	0.002305	-0.000922	-0.012135	-0.784668	0.196289	-0.330566	0.586449	-0.160138	-0.766924	-0.205575
23497		9.450821	1.245358	-2.210554	0.003859	-0.004609	-0.014896	-0.788330	0.189941	-0.336426	0.586415	-0.160195	-0.766937	-0.205579
23498		9.497792	1.232095	-2.216173	0.007334	-0.007946	-0.015764	-0.792480	0.190430	-0.336914	0.586368	-0.160184	-0.766981	-0.205560
23499		9.480175	1.264669	-2.254165	0.006113	-0.001732	-0.015746	-0.788818	0.183838	-0.329834	0.586361	-0.160195	-0.766975	-0.205590
23500		9.487174	1.240403	-2.215430	0.005859	-0.002611	-0.016560	-0.787109	0.186523	-0.333740	0.586332	-0.160047	-0.767043	-0.205535
23501		9.471517	1.244691	-2.232193	0.004028	-0.003750	-0.014943	-0.784912	0.192383	-0.339111	0.586317	-0.159989	-0.767073	-0.205512
23502		9.474295	1.246091	-2.254777	0.006318	-0.004395	-0.016580	-0.788574	0.183594	-0.335693	0.586328	-0.160002	-0.767059	-0.205522
23503		9.484137	1.222347	-2.206941	0.006788	-0.001831	-0.017594	-0.788818	0.195557	-0.335205	0.586333	-0.159870	-0.767090	-0.205496
23504		9.480219	1.244968	-2.227885	0.002853	-0.004184	-0.017818	-0.787598	0.187500	-0.333496	0.586299	-0.159940	-0.767081	-0.205569
23505		9.465718	1.259657	-2.245343	0.001356	-0.002796	-0.018944	-0.792480	0.191406	-0.334717	0.586274	-0.159881	-0.767102	-0.205612
23506		9.483797	1.241936	-2.241126	0.004574	-0.004289	-0.017196	-0.784668	0.189941	-0.331543	0.586227	-0.159901	-0.767121	-0.205658
23507		9.464177	1.267552	-2.247397	0.007239	-0.003614	-0.017613	-0.784912	0.192627	-0.335205	0.586212	-0.159830	-0.767155	-0.205626
23508		9.481070	1.239843	-2.242439	0.002384	-0.002805	-0.016471	-0.779541	0.192139	-0.334717	0.586214	-0.159857	-0.767139	-0.205664
23509		9.472825	1.235754	-2.230110	0.006167	-0.000486	-0.017975	-0.786865	0.193115	-0.339600	0.586262	-0.159805	-0.767115	-0.205651
23510		9.482371	1.266789	-2.244671	0.008901	0.000210	-0.017528	-0.789795	0.191406	-0.333740	0.586315	-0.159797	-0.767073	-0.205664
23511		9.475835	1.253188	-2.222079	0.007888	-0.000590	-0.017354	-0.785400	0.192383	-0.341064	0.586317	-0.159769	-0.767076	-0.205671
23512		9.487394	1.255735	-2.215942	0.003631	-0.001129	-0.015827	-0.778320	0.185547	-0.340576	0.586363	-0.159811	-0.767020	-0.205715
23513		9.465413	1.261910	-2.220123	0.006800	-0.001410	-0.018043	-0.792236	0.202148	-0.330811	0.586438	-0.159684	-0.767002	-0.205671
23514		9.472408	1.273609	-2.233417	0.004507	-0.000769	-0.016405	-0.787842	0.187500	-0.328369	0.586406	-0.159830	-0.766972	-0.205760
23515		9.468191	1.248033	-2.231596	0.006305	-0.000852	-0.014921	-0.783691	0.192383	-0.342285	0.586393	-0.159753	-0.767010	-0.205714
23516		9.471712	1.261265	-2.223647	0.005819	-0.003015	-0.015225	-0.789307	0.190918	-0.340332	0.586439	-0.159786	-0.766965	-0.205724
23517		9.483027	1.232933	-2.237073	0.000733	-0.001871	-0.017996	-0.779297	0.187256	-0.339600	0.586444	-0.159825	-0.766928	-0.205819
23518		9.459771	1.230159	-2.240375	0.000815	-0.000628	-0.020231	-0.783691	0.197510	-0.335693	0.586496	-0.159745	-0.766893	-0.205862
23519		9.479351	1.253886	-2.217133	0.006306	-0.002349	-0.021441	-0.789307	0.188965	-0.338867	0.586500	-0.159754	-0.766873	-0.205919
23520		9.491247	1.255144	-2.242378	0.005063	-0.004434	-0.020758	-0.779297	0.191895	-0.337402	0.586475	-0.159712	-0.766886	-0.205973
23521		9.473704	1.284054	-2.208415	0.009932	-0.001685	-0.020252	-0.782227	0.195068	-0.324219	0.586523	-0.159622	-0.766875	-0.205945
23522		9.459756	1.279535	-2.214442	0.005688	0.001714	-0.018401	-0.780762	0.183105	-0.336670	0.586527	-0.159576	-0.766884	-0.205940
23523		9.471255	1.251414	-2.227317	0.004220	-0.001654	-0.017209	-0.788574	0.189697	-0.331299	0.586564	-0.159447	-0.766891	-0.205904
23524		9.462486	1.266455	-2.225942	0.000350	-0.003603	-0.017886	-0.789551	0.191895	-0.335205	0.586512	-0.159450	-0.766914	-0.205965
23525		9.491235	1.257151	-2.225076	0.003207	-0.002457	-0.017034	-0.790039	0.194092	-0.335938	0.586494	-0.159479	-0.766908	-0.206018
23526		9.480107	1.283817	-2.203178	0.007093	-0.003631	-0.018456	-0.787354	0.180420	-0.340332	0.586470	-0.159500	-0.766911	-0.206057
23527		9.464308	1.257139	-2.239289	0.005581	-0.003475	-0.016484	-0.785645	0.187744	-0.336426	0.586485	-0.159382	-0.766933	-0.206025
23528		9.458398	1.271984	-2.228917	0.006480	-0.003513	-0.015743	-0.787354	0.180420	-0.333496	0.586490	-0.159339	-0.766945	-0.206000
23529		9.482029	1.273250	-2.216839	0.009337	-0.002363	-0.014892	-0.791016	0.186279	-0.331543	0.586494	-0.159191	-0.766997	-0.205910
23530		9.505741	1.290950	-2.246240	0.005897	-0.002573	-0.014807	-0.786621	0.183838	-0.330078	0.586463	-0.159157	-0.767031	-0.205898
23531		9.487761	1.275377	-2.261455	0.004890	-0.003378	-0.014632	-0.778320	0.196045	-0.335938	0.586433	-0.159085	-0.767078	-0.205860
23532		9.455977	1.253421	-2.251346	0.006493	0.000033	-0.014099	-0.785889	0.186523	-0.338623	0.586503	-0.159124	-0.767023	-0.205838
23533		9.452075	1.242162	-2.188198	0.005161	0.002271	-0.015278	-0.781494	0.191895	-0.341064	0.586573	-0.159069	-0.766984	-0.205827
23534		9.484026	1.249211	-2.218899	0.006035	-0.001313	-0.016177	-0.790527	0.187744	-0.330322	0.586637	-0.159057	-0.766941	-0.205815
23535		9.489833	1.251206	-2.231375	0.007885	0.000255	-0.018251	-0.781738	0.190186	-0.336670	0.586621	-0.158987	-0.766965	-0.205822
23536		9.471842	1.267414	-2.226887	0.009235	-0.001163	-0.018847	-0.783936	0.186279	-0.339111	0.586661	-0.158905	-0.766960	-0.205792
23537		9.467195	1.261222	-2.235927	0.012011	-0.000030	-0.018859	-0.783936	0.187744	-0.333252	0.586722	-0.158764	-0.766960	-0.205728
23538		9.477490	1.285532	-2.209944	0.008474	-0.001087	-0.017860	-0.785889	0.184570	-0.339111	0.586736	-0.158680	-0.766974	-0.205699
23539		9.464757	1.289975	-2.216903	0.009623	-0.000238	-0.016308	-0.780762	0.187988	-0.324219	0.586788	-0.158569	-0.766973	-0.205640
23540		9.489717	1.269989	-2.224432	0.001509	-0.003579	-0.013677	-0.782227	0.191406	-0.337646	0.586736	-0.158588	-0.767008	-0.205644
23541		9.479341	1.262498	-2.252270	-0.000780	-0.001730	-0.015141	-0.784668	0.187012	-0.336914	0.586762	-0.158636	-0.766966	-0.205690
23542		9.475959	1.249384	-2.220191	0.001142	-0.000139	-0.016352	-0.789551	0.193115	-0.338867	0.586791	-0.158611	-0.766941	-0.205719
23543		9.459723	1.272562	-2.247024	0.004446	-0.000363	-0.016840	-0.790771	0.193604	-0.334961	0.586814	-0.158641	-0.766905	-0.205763
23544		9.478228	1.285599	-2.222884	0.005501	-0.000353	-0.014374	-0.787598	0.189453	-0.345215	0.586819	-0.158702	-0.766881	-0.205793
23545		9.482504	1.248887	-2.223239	-0.001232	-0.004299	-0.014117	-0.782227	0.194580	-0.340088	0.586842	-0.158759	-0.766840	-0.205835
23546		9.477273	1.261078	-2.243140	0.002237	0.000289	-0.014342	-0.786133	0.184814	-0.342773	0.586907	-0.158818	-0.766771	-0.205861
23547		9.472558	1.285425	-2.232888	0.007597	-0.001845	-0.015953	-0.786377	0.183594	-0.338379	0.586956	-0.158733	-0.766764	-0.205816
23548		9.477355	1.260753	-2.203339	0.007702	-0.002221	-0.013770	-0.793457	0.195801	-0.334961	0.586982	-0.158661	-0.766775	-0.205754
23549		9.486006	1.262391	-2.207131	0.005576	-0.004279	-0.013824	-0.788818	0.182373	-0.331055	0.586941	-0.158763	-0.766777	-0.205786
23550		9.482640	1.234458	-2.236619	0.002795	-0.003386	-0.018684	-0.782227	0.190918	-0.331787	0.586886	-0.158683	-0.766828	-0.205816
23551		9.457331	1.271480	-2.231312	0.008094	-0.001989	-0.019522	-0.788086	0.190430	-0.340576	0.586882	-0.158623	-0.766844	-0.205814
23552		9.476709	1.294918	-2.208373	0.009165	-0.001159	-0.018834	-0.782227	0.191895	-0.334473	0.586915	-0.158565	-0.766832	-0.205807
23553		9.480743	1.289712	-2.189731	0.007355	-0.003128	-0.015438	-0.791016	0.191895	-0.333496	0.586923	-0.158563	-0.766833	-0.205780
23554		9.470331	1.281746	-2.218068	0.004642	-0.005066	-0.012782	-0.785400	0.185059	-0.334229	0.586877	-0.158639	-0.766850	-0.205792
23555		9.480594	1.290399	-2.253666	0.003986	-0.004149	-0.012713	-0.785400	0.192383	-0.333740	0.586863	-0.158627	-0.766872	-0.205760
23556		9.480095	1.276851	-2.213251	0.007161	-0.004808	-0.013605	-0.784912	0.191406	-0.334717	0.586844	-0.158663	-0.766886	-0.205735
23557		9.473333	1.250074	-2.221666	0.004543	-0.005906	-0.011864	-0.788330	0.192383	-0.330566	0.586821	-0.158725	-0.766896	-0.205713
23558		9.474709	1.271828	-2.224997	0.009404	-0.007069	-0.011682	-0.788818	0.190186	-0.332764	0.586763	-0.158780	-0.766942	-0.205662
23559		9.481106	1.253466	-2.228248	0.011052	-0.007176	-0.011926	-0.777344	0.194580	-0.340576	0.586718	-0.158795	-0.766994	-0.205586
23560		9.479153	1.262822	-2.270506	0.004153	-0.002474	-0.014541	-0.783447	0.189941	-0.325195	0.586779	-0.158831	-0.766943	-0.205575
23561		9.480915	1.269029	-2.230971	0.003622	-0.001115	-0.014068	-0.783936	0.198486	-0.330566	0.586752	-0.158851	-0.766957	-0.205586
23562		9.468231	1.272726	-2.238008	0.008607	-0.001831	-0.013482	-0.789062	0.193115	-0.334961	0.586753	-0.158937	-0.766939	-0.205582
23563		9.477965	1.283991	-2.242436	0.008353	-0.002718	-0.014289	-0.792236	0.188232	-0.331543	0.586750	-0.158967	-0.766939	-0.205570
23564		9.469781	1.250140	-2.218676	0.007686	-0.002618	-0.012442	-0.785156	0.184082	-0.330322	0.586723	-0.158974	-0.766966	-0.205539
23565		9.483777	1.240575	-2.233760	0.009754	-0.002896	-0.017118	-0.785400	0.194092	-0.328857	0.586707	-0.158853	-0.767021	-0.205476
23566		9.484127	1.254162	-2.235252	0.007415	-0.000664	-0.019902	-0.789307	0.188232	-0.333496	0.586688	-0.158840	-0.767026	-0.205521
23567		9.482651	1.277408	-2.246352	0.002630	0.000514	-0.019222	-0.788818	0.180420	-0.339111	0.586685	-0.158804	-0.767019	-0.205583
23568		9.474640	1.273641	-2.233625	0.009137	-0.000745	-0.019283	-0.791992	0.186768	-0.338379	0.586715	-0.158625	-0.767047	-0.205529
23569		9.468620	1.288887	-2.222863	0.004832	-0.002162	-0.016838	-0.791016	0.184814	-0.339844	0.586713	-0.158590	-0.767052	-0.205543
23570		9.476671	1.250249	-2.244750	0.006429	-0.003500	-0.014846	-0.790039	0.193359	-0.334961	0.586717	-0.158542	-0.767068	-0.205510
23571		9.477974	1.272940	-2.247483	0.009560	-0.003757	-0.017057	-0.790039	0.182373	-0.335693	0.586696	-0.158549	-0.767083	-0.205511
23572		9.474839	1.288030	-2.227789	0.010184	-0.001538	-0.015039	-0.784180	0.190186	-0.330811	0.586708	-0.158443	-0.767114	-0.205438
23573		9.486492	1.290341	-2.221755	0.008868	0.000291	-0.014904	-0.785156	0.190430	-0.336670	0.586729	-0.158423	-0.767110	-0.205411
23574		9.487511	1.271805	-2.241848	0.002840	-0.001050	-0.013076	-0.784180	0.188721	-0.340332	0.586756	-0.158464	-0.767079	-0.205420
23575		9.479710	1.266457	-2.229236	0.005602	-0.000710	-0.011316	-0.782959	0.182861	-0.334473	0.586818	-0.158473	-0.767042	-0.205370
23576		9.495378	1.278418	-2.214503	0.005686	0.000128	-0.012232	-0.785889	0.191895	-0.332520	0.586861	-0.158412	-0.767039	-0.205306
23577		9.486205	1.250770	-2.231107	-0.001459	-0.003285	-0.008852	-0.790039	0.181396	-0.338135	0.586843	-0.158557	-0.767014	-0.205340
23578		9.462294	1.264303	-2.245824	0.003934	-0.004162	-0.012695	-0.791504	0.191406	-0.337402	0.586836	-0.158509	-0.767042	-0.205293
23579		9.466685	1.258318	-2.226671	0.004535	0.002820	-0.012152	-0.787842	0.192871	-0.336914	0.586888	-0.158557	-0.766989	-0.205306
23580		9.479532	1.269927	-2.220819	0.005678	0.000128	-0.012231	-0.784912	0.193604	-0.337891	0.586925	-0.158609	-0.766951	-0.205302
23581		9.480673	1.251128	-2.240720	0.005634	0.000522	-0.013550	-0.785889	0.187500	-0.335693	0.586976	-0.158646	-0.766904	-0.205300
23582		9.480657	1.266375	-2.210893	0.001302	-0.000508	-0.012425	-0.788330	0.192627	-0.332520	0.586997	-0.158671	-0.766881	-0.205308
23583		9.486505	1.267616	-2.223625	0.006482	-0.003477	-0.013975	-0.788574	0.184814	-0.339600	0.586971	-0.158717	-0.766891	-0.205312
23584		9.476608	1.271548	-2.221869	0.004009	-0.004139	-0.011830	-0.788574	0.193359	-0.327881	0.586976	-0.158707	-0.766900	-0.205268
23585		9.477604	1.252460	-2.242639	0.000921	-0.003467	-0.010076	-0.782227	0.188477	-0.338379	0.586924	-0.158848	-0.766899	-0.205312
23586		9.478652	1.233674	-2.263050	0.006068	-0.000862	-0.014879	-0.794922	0.187012	-0.322754	0.586972	-0.158807	-0.766881	-0.205276
23587		9.483312	1.269212	-2.225887	0.006804	-0.000938	-0.015862	-0.788330	0.192871	-0.333496	0.586895	-0.158801	-0.766932	-0.205310
23588		9.467147	1.275057	-2.211386	0.006189	-0.001230	-0.012697	-0.791992	0.185547	-0.335205	0.586899	-0.158854	-0.766917	-0.205311
23589		9.459886	1.266748	-2.229967	0.004169	-0.004088	-0.010105	-0.787109	0.188965	-0.331055	0.586877	-0.158879	-0.766939	-0.205272
23590		9.490034	1.265763	-2.230519	0.009809	-0.005692	-0.009585	-0.799316	0.185547	-0.337158	0.586847	-0.158905	-0.766980	-0.205186
23591		9.487446	1.276596	-2.242377	0.009766	-0.006111	-0.009126	-0.795166	0.192871	-0.335693	0.586807	-0.158915	-0.767032	-0.205099
23592		9.486915	1.249685	-2.232244	0.004783	-0.006233	-0.007933	-0.785400	0.202148	-0.325439	0.586763	-0.159045	-0.767043	-0.205081
23593		9.467746	1.253675	-2.228248	0.006343	-0.006358	-0.009038	-0.786133	0.194824	-0.336914	0.586695	-0.159249	-0.767048	-0.205102
23594		9.467210	1.227421	-2.217854	0.005550	-0.004269	-0.012930	-0.790283	0.188721	-0.339355	0.586693	-0.159318	-0.767035	-0.205100
23595		9.471016	1.237747	-2.241068	0.007606	-0.001803	-0.014204	-0.790039	0.190430	-0.341064	0.586717	-0.159292	-0.767032	-0.205065
23596		9.482635	1.240037	-2.235387	0.006574	-0.003037	-0.013566	-0.782471	0.187500	-0.333496	0.586736	-0.159300	-0.767022	-0.205040
23597		9.480006	1.252584	-2.246382	0.008816	-0.002035	-0.018752	-0.793701	0.193359	-0.337646	0.586745	-0.159195	-0.767047	-0.205004
23598		9.483167	1.266567	-2.238644	0.007337	-0.001884	-0.016785	-0.786133	0.198975	-0.333252	0.586740	-0.159207	-0.767041	-0.205029
23599		9.461113	1.271584	-2.242907	0.007632	-0.001385	-0.014660	-0.787598	0.196533	-0.336914	0.586747	-0.159283	-0.767014	-0.205053
23600		9.469962	1.245181	-2.234583	0.008936	-0.002401	-0.016569	-0.786133	0.191895	-0.334717	0.586754	-0.159309	-0.767000	-0.205064
23601		9.474953	1.278009	-2.228771	0.008117	-0.003162	-0.014668	-0.787354	0.194092	-0.333496	0.586753	-0.159308	-0.767007	-0.205038
23602		9.482001	1.232004	-2.218929	0.006595	-0.002620	-0.014020	-0.793701	0.192383	-0.340332	0.586747	-0.159350	-0.767003	-0.205041
23603		9.469076	1.264263	-2.237757	0.004445	0.000061	-0.015545	-0.779053	0.187256	-0.339600	0.586768	-0.159385	-0.766968	-0.205086
23604		9.489183	1.256081	-2.233433	0.004578	-0.000303	-0.013364	-0.791748	0.194824	-0.330811	0.586836	-0.159349	-0.766935	-0.205041
23605		9.483170	1.270279	-2.222837	0.004702	-0.004225	-0.012799	-0.787598	0.192627	-0.334717	0.586788	-0.159436	-0.766948	-0.205065
23606		9.474076	1.242820	-2.239857	0.004989	-0.002915	-0.012454	-0.786865	0.189941	-0.332520	0.586784	-0.159488	-0.766941	-0.205062
23607		9.461333	1.245986	-2.247200	0.004127	-0.003286	-0.011872	-0.781250	0.188232	-0.339844	0.586771	-0.159519	-0.766949	-0.205042
23608		9.482580	1.259477	-2.214607	0.002355	-0.003637	-0.012028	-0.788330	0.192627	-0.336914	0.586799	-0.159535	-0.766932	-0.205013
23609		9.472453	1.250607	-2.242385	0.002856	-0.001853	-0.010422	-0.779785	0.193604	-0.341797	0.586814	-0.159619	-0.766902	-0.205017
23610		9.476081	1.234834	-2.222526	0.002805	-0.001463	-0.011741	-0.786377	0.195557	-0.338379	0.586875	-0.159683	-0.766844	-0.205012
23611		9.479041	1.235603	-2.244404	0.006724	-0.000948	-0.015852	-0.790283	0.187988	-0.341797	0.586902	-0.159710	-0.766812	-0.205030
23612		9.485280	1.249454	-2.226943	0.007274	0.000446	-0.012926	-0.789062	0.193359	-0.335449	0.586956	-0.159691	-0.766785	-0.204994
23613		9.492431	1.272933	-2.210181	0.003683	0.000132	-0.014557	-0.786377	0.196289	-0.334473	0.586971	-0.159731	-0.766756	-0.205029
23614		9.464001	1.238329	-2.220306	0.002790	-0.005025	-0.013351	-0.787598	0.199951	-0.333008	0.586941	-0.159824	-0.766751	-0.205063
23615		9.461000	1.237979	-2.261320	0.004957	-0.002108	-0.014227	-0.791260	0.193359	-0.335938	0.586930	-0.159924	-0.766725	-0.205110
23616		9.476394	1.250940	-2.247084	0.004866	-0.002137	-0.015087	-0.782959	0.195801	-0.334717	0.586920	-0.159960	-0.766718	-0.205140
23617		9.490088	1.244524	-2.231037	0.006757	-0.001338	-0.014529	-0.784180	0.187744	-0.330078	0.586941	-0.159989	-0.766695	-0.205138
23618		9.473884	1.250271	-2.216731	0.006555	-0.002620	-0.014012	-0.783691	0.188965	-0.338623	0.586935	-0.159934	-0.766727	-0.205083
23619		9.463116	1.244805	-2.213959	0.007033	-0.003588	-0.015796	-0.786133	0.188477	-0.334717	0.586948	-0.159890	-0.766735	-0.205048
23620		9.467176	1.227131	-2.225091	0.006694	-0.000950	-0.015846	-0.794922	0.193604	-0.339111	0.586963	-0.159837	-0.766741	-0.205025
23621		9.467092	1.268332	-2.238501	0.009261	-0.001865	-0.013575	-0.787842	0.192871	-0.337158	0.586969	-0.159869	-0.766732	-0.205014
23622		9.499371	1.259292	-2.228424	0.009060	-0.003148	-0.013057	-0.787598	0.190918	-0.335205	0.586977	-0.159885	-0.766733	-0.204975
23623		9.484134	1.233392	-2.232978	0.003508	-0.001546	-0.012717	-0.779541	0.190674	-0.334961	0.586985	-0.159916	-0.766721	-0.204976
23624		9.452049	1.229145	-2.233349	0.008503	-0.000985	-0.014369	-0.786621	0.189697	-0.334961	0.587026	-0.159871	-0.766714	-0.204918
23625		9.460836	1.230748	-2.236830	0.008483	-0.002208	-0.012131	-0.785156	0.183838	-0.336426	0.587041	-0.159858	-0.766722	-0.204856
23626		9.476210	1.243172	-2.222947	0.005480	-0.004278	-0.012907	-0.791016	0.190674	-0.338379	0.587040	-0.159802	-0.766753	-0.204787
23627		9.499716	1.232817	-2.240739	0.004048	-0.001683	-0.015417	-0.789795	0.190918	-0.335693	0.587042	-0.159812	-0.766743	-0.204811
23628		9.473964	1.227326	-2.253178	0.004297	-0.000789	-0.014615	-0.781738	0.194092	-0.325684	0.587049	-0.159823	-0.766731	-0.204826
23629		9.480218	1.241389	-2.235415	0.008345	0.002936	-0.014938	-0.786133	0.186035	-0.340332	0.587081	-0.159797	-0.766716	-0.204809
23630		9.470878	1.258166	-2.202370	0.004773	0.001803	-0.014789	-0.792725	0.192383	-0.333984	0.587144	-0.159741	-0.766686	-0.204787
23631		9.471267	1.217585	-2.250667	0.003859	0.001818	-0.015526	-0.784180	0.196289	-0.336426	0.587155	-0.159760	-0.766661	-0.204835
23632		9.479953	1.261037	-2.235288	0.005657	0.002593	-0.015829	-0.785156	0.188721	-0.337646	0.587210	-0.159781	-0.766606	-0.204867
23633		9.486713	1.246815	-2.205362	0.003750	0.000565	-0.014147	-0.789551	0.186768	-0.333740	0.587249	-0.159766	-0.766580	-0.204861
23634		9.469596	1.230311	-2.219332	0.002893	0.000192	-0.013565	-0.790039	0.188477	-0.343750	0.587257	-0.159752	-0.766577	-0.204861
23635		9.484020	1.221098	-2.233558	0.002640	-0.000703	-0.014365	-0.790527	0.197021	-0.346680	0.587292	-0.159756	-0.766546	-0.204874
23636		9.477961	1.235385	-2.222719	0.007707	-0.001324	-0.012920	-0.784912	0.193848	-0.327637	0.587341	-0.159822	-0.766495	-0.204870
23637		9.479031	1.257483	-2.225160	0.004140	-0.002461	-0.012772	-0.779053	0.190186	-0.337891	0.587316	-0.159865	-0.766505	-0.204873
23638		9.476940	1.241056	-2.223915	0.004239	-0.001210	-0.014149	-0.790527	0.190186	-0.333008	0.587356	-0.159850	-0.766484	-0.204849
23639		9.479059	1.232211	-2.245089	0.007231	-0.002697	-0.014979	-0.785400	0.190674	-0.337158	0.587334	-0.159832	-0.766508	-0.204834
23640		9.473098	1.259262	-2.204839	0.007354	-0.002250	-0.014578	-0.785889	0.183838	-0.336426	0.587349	-0.159811	-0.766510	-0.204802
23641		9.465144	1.241568	-2.222405	0.004005	-0.002911	-0.013170	-0.786865	0.198242	-0.329346	0.587351	-0.159766	-0.766530	-0.204757
23642		9.483085	1.242499	-2.229156	0.003560	-0.005089	-0.013451	-0.788086	0.189453	-0.339111	0.587296	-0.159866	-0.766540	-0.204798
23643		9.461677	1.256314	-2.235025	0.005382	-0.005113	-0.011976	-0.785156	0.185059	-0.332520	0.587287	-0.159886	-0.766554	-0.204758
23644		9.481029	1.237861	-2.230921	-0.001058	-0.005542	-0.008359	-0.781982	0.194092	-0.330566	0.587253	-0.159939	-0.766577	-0.204727
23645		9.481069	1.211797	-2.220112	0.002952	-0.004567	-0.012068	-0.789551	0.198975	-0.329590	0.587226	-0.160006	-0.766583	-0.204730
23646		9.480558	1.252617	-2.234237	0.002950	-0.004568	-0.012067	-0.787598	0.195312	-0.337646	0.587172	-0.160134	-0.766584	-0.204779
23647		9.486989	1.225184	-2.235382	0.004051	-0.003297	-0.011849	-0.790039	0.197021	-0.333496	0.587173	-0.160210	-0.766566	-0.204783
23648		9.481381	1.210934	-2.213354	0.002443	-0.006360	-0.013666	-0.792236	0.195312	-0.335205	0.587113	-0.160309	-0.766579	-0.204830
23649		9.469914	1.234046	-2.222990	0.005911	-0.004029	-0.016912	-0.788086	0.190918	-0.328857	0.587076	-0.160333	-0.766593	-0.204865
23650		9.469197	1.237558	-2.224091	0.006946	-0.003592	-0.015775	-0.793701	0.195068	-0.332275	0.587038	-0.160304	-0.766633	-0.204850
23651		9.465829	1.252363	-2.204843	0.007916	-0.005208	-0.011482	-0.787598	0.191650	-0.341064	0.586993	-0.160368	-0.766659	-0.204829
23652		9.488592	1.231996	-2.222386	0.005017	-0.006042	-0.013631	-0.783447	0.199951	-0.336914	0.586980	-0.160394	-0.766669	-0.204810
23653		9.486359	1.215675	-2.222112	0.004100	-0.006032	-0.014366	-0.786865	0.194824	-0.340576	0.586956	-0.160489	-0.766658	-0.204845
23654		9.468241	1.227549	-2.249617	0.006586	-0.005741	-0.015193	-0.784668	0.190430	-0.330566	0.586943	-0.160518	-0.766662	-0.204842
23655		9.471964	1.212814	-2.230240	0.004785	-0.001739	-0.015524	-0.786621	0.191650	-0.332520	0.586938	-0.160487	-0.766676	-0.204833
23656		9.475031	1.226693	-2.222435	0.004687	-0.001771	-0.016383	-0.784668	0.192627	-0.333984	0.586930	-0.160467	-0.766682	-0.204845
23657		9.492948	1.228618	-2.228839	0.007643	-0.002449	-0.018990	-0.781250	0.193848	-0.336182	0.586926	-0.160411	-0.766697	-0.204847
23658		9.490057	1.241512	-2.239799	0.002067	-0.002514	-0.015952	-0.789551	0.188232	-0.329346	0.586933	-0.160432	-0.766678	-0.204879
23659		9.467192	1.236682	-2.243173	0.005339	-0.002678	-0.016443	-0.785889	0.190918	-0.332764	0.586900	-0.160381	-0.766716	-0.204872
23660		9.465826	1.230350	-2.243170	0.007007	-0.003561	-0.014910	-0.782715	0.190186	-0.334717	0.586887	-0.160358	-0.766738	-0.204843
23661		9.456587	1.244109	-2.242282	0.003700	-0.003815	-0.013958	-0.784912	0.195068	-0.342285	0.586884	-0.160356	-0.766746	-0.204825
23662		9.480199	1.233981	-2.260153	0.004672	-0.002991	-0.014141	-0.782959	0.192871	-0.330322	0.586910	-0.160396	-0.766717	-0.204828
23663		9.494740	1.237530	-2.245291	0.007154	-0.002696	-0.014969	-0.780518	0.197021	-0.335938	0.586903	-0.160382	-0.766732	-0.204806
23664		9.493003	1.234178	-2.214101	0.005915	0.000364	-0.016223	-0.787842	0.188232	-0.322510	0.586945	-0.160395	-0.766692	-0.204826
23665		9.469558	1.219590	-2.216171	0.004530	-0.002225	-0.016776	-0.787842	0.192627	-0.335693	0.586893	-0.160343	-0.766740	-0.204833
23666		9.470372	1.242653	-2.218384	0.005937	0.000780	-0.016681	-0.790527	0.186279	-0.327637	0.586919	-0.160321	-0.766720	-0.204849
23667		9.464682	1.254546	-2.238058	0.008232	-0.000206	-0.016988	-0.783203	0.193359	-0.330811	0.586907	-0.160225	-0.766758	-0.204819
23668		9.484266	1.237097	-2.233314	0.006331	-0.003873	-0.012604	-0.791260	0.193848	-0.331543	0.586892	-0.160254	-0.766770	-0.204793
23669		9.483699	1.239822	-2.234209	0.003241	-0.002433	-0.012633	-0.783447	0.201904	-0.337891	0.586868	-0.160319	-0.766768	-0.204820
23670		9.475504	1.224969	-2.220662	0.004269	-0.000774	-0.013736	-0.786621	0.192383	-0.338135	0.586898	-0.160426	-0.766708	-0.204871
23671		9.475030	1.228144	-2.220930	0.004197	-0.000392	-0.015054	-0.794434	0.192139	-0.334961	0.586927	-0.160430	-0.766683	-0.204883
23672		9.487894	1.238039	-2.246487	0.003125	-0.001252	-0.015728	-0.792236	0.190186	-0.337402	0.586911	-0.160449	-0.766679	-0.204926
23673		9.478965	1.214079	-2.232068	0.007057	-0.002313	-0.016280	-0.784424	0.188232	-0.336426	0.586908	-0.160413	-0.766692	-0.204915
23674		9.478030	1.255680	-2.245858	0.006264	-0.001859	-0.016616	-0.789307	0.196045	-0.333008	0.586924	-0.160346	-0.766702	-0.204887
23675		9.482074	1.240983	-2.225741	0.008650	0.000761	-0.014471	-0.781494	0.185303	-0.334229	0.586946	-0.160361	-0.766682	-0.204886
23676		9.489516	1.223868	-2.227303	0.003442	-0.004307	-0.015204	-0.784912	0.197021	-0.338135	0.586937	-0.160300	-0.766712	-0.204847
23677		9.496502	1.245066	-2.242292	0.003746	-0.002576	-0.015326	-0.788574	0.194824	-0.334473	0.586944	-0.160353	-0.766685	-0.204883
23678		9.470285	1.242095	-2.224281	0.003688	-0.003409	-0.014406	-0.787354	0.187012	-0.336914	0.586924	-0.160402	-0.766683	-0.204911
23679		9.464506	1.253506	-2.244382	0.004271	-0.000362	-0.014192	-0.786621	0.193604	-0.327148	0.586951	-0.160362	-0.766677	-0.204886
23680		9.483643	1.226213	-2.238413	0.004133	-0.002441	-0.011892	-0.789062	0.191650	-0.331787	0.586926	-0.160417	-0.766683	-0.204891
23681		9.478048	1.249736	-2.228887	0.006708	-0.002106	-0.011862	-0.788818	0.191650	-0.334473	0.586922	-0.160435	-0.766692	-0.204859
23682		9.480283	1.239975	-2.250484	0.004533	-0.005875	-0.010051	-0.787354	0.195801	-0.329346	0.586893	-0.160494	-0.766711	-0.204823
23683		9.488987	1.241407	-2.254558	0.008212	-0.002632	-0.012506	-0.790283	0.195312	-0.335938	0.586878	-0.160534	-0.766719	-0.204804
23684		9.481582	1.235397	-2.242089	0.005617	-0.001027	-0.008245	-0.787842	0.192871	-0.329834	0.586902	-0.160627	-0.766689	-0.204776
23685		9.472341	1.200143	-2.226747	0.007464	-0.002976	-0.011064	-0.790039	0.187012	-0.338379	0.586889	-0.160655	-0.766704	-0.204733
23686		9.454487	1.223723	-2.223747	0.005781	-0.002104	-0.012595	-0.780518	0.195801	-0.336426	0.586907	-0.160622	-0.766713	-0.204677
23687		9.482385	1.220538	-2.263680	0.007664	-0.001279	-0.012045	-0.789307	0.197510	-0.334473	0.586948	-0.160650	-0.766686	-0.204637
23688		9.485590	1.246215	-2.226238	0.006693	-0.002108	-0.011859	-0.798096	0.202148	-0.337646	0.586950	-0.160720	-0.766670	-0.204635
23689		9.471114	1.232506	-2.200945	0.003786	-0.004594	-0.011303	-0.785156	0.185791	-0.335449	0.586912	-0.160880	-0.766650	-0.204694
23690		9.469316	1.215731	-2.200072	0.004678	-0.003385	-0.012806	-0.781494	0.196533	-0.333740	0.586916	-0.160835	-0.766673	-0.204631
23691		9.449888	1.194808	-2.254769	0.004475	-0.003455	-0.014521	-0.777832	0.192383	-0.327148	0.586912	-0.160874	-0.766665	-0.204643
23692		9.477287	1.208327	-2.234409	0.005491	-0.001796	-0.015626	-0.787109	0.193604	-0.329102	0.586911	-0.160843	-0.766676	-0.204630
23693		9.487121	1.230328	-2.240099	0.008350	-0.003711	-0.016850	-0.789062	0.197998	-0.340088	0.586877	-0.160814	-0.766710	-0.204620
23694		9.486403	1.233964	-2.241138	0.008397	-0.002880	-0.017770	-0.785645	0.188721	-0.333740	0.586881	-0.160818	-0.766701	-0.204639
23695		9.466577	1.229521	-2.235214	0.007113	-0.001871	-0.015870	-0.783936	0.190918	-0.333252	0.586889	-0.160751	-0.766720	-0.204599
23696		9.475231	1.231980	-2.238981	0.005967	-0.003982	-0.015161	-0.790527	0.191406	-0.332764	0.586877	-0.160726	-0.766742	-0.204572
23697		9.483259	1.224694	-2.241997	0.005964	-0.003983	-0.015160	-0.781494	0.195312	-0.330322	0.586847	-0.160716	-0.766770	-0.204563
23698		9.467440	1.227215	-2.258642	0.005421	-0.002630	-0.014702	-0.794678	0.185547	-0.331787	0.586840	-0.160737	-0.766769	-0.204569
23699		9.478608	1.233496	-2.222276	0.003786	-0.002558	-0.014456	-0.783447	0.189941	-0.332520	0.586812	-0.160694	-0.766804	-0.204551
23700		9.469274	1.234230	-2.250602	0.005127	-0.000375	-0.013450	-0.789551	0.198242	-0.333008	0.586836	-0.160673	-0.766797	-0.204522
23701		9.482246	1.209119	-2.232338	0.003728	-0.001765	-0.016232	-0.783691	0.198486	-0.329346	0.586819	-0.160729	-0.766781	-0.204587
23702		9.482264	1.222556	-2.233595	0.005703	0.000726	-0.017525	-0.788086	0.196533	-0.333008	0.586827	-0.160749	-0.766756	-0.204645
23703		9.468971	1.216591	-2.239122	0.003997	-0.000449	-0.015897	-0.786377	0.201172	-0.335449	0.586828	-0.160784	-0.766734	-0.204694
23704		9.491073	1.238529	-2.237974	0.007209	-0.001420	-0.015468	-0.785156	0.192627	-0.323486	0.586837	-0.160846	-0.766705	-0.204732
23705		9.489560	1.235056	-2.206652	0.009340	0.000315	-0.014125	-0.790527	0.188721	-0.338623	0.586839	-0.160811	-0.766720	-0.204696
23706		9.472815	1.217918	-2.220725	0.004734	-0.001731	-0.014637	-0.793701	0.189941	-0.334473	0.586852	-0.160778	-0.766723	-0.204672
23707		9.494832	1.226907	-2.249366	0.004777	-0.000902	-0.015557	-0.784180	0.192871	-0.335693	0.586849	-0.160752	-0.766730	-0.204676
23708		9.490873	1.220102	-2.257678	0.005852	0.002004	-0.018045	-0.784180	0.199707	-0.324219	0.586893	-0.160704	-0.766702	-0.204694
23709		9.480114	1.218248	-2.222891	0.005803	0.001174	-0.017124	-0.785156	0.191406	-0.329590	0.586885	-0.160741	-0.766681	-0.204766
23710		9.463390	1.214599	-2.207157	0.007777	-0.001944	-0.016840	-0.790283	0.201904	-0.330566	0.586876	-0.160688	-0.766704	-0.204748
23711		9.485796	1.233653	-2.237150	0.007522	-0.002848	-0.017633	-0.788818	0.200195	-0.328125	0.586838	-0.160748	-0.766701	-0.204817
23712		9.486211	1.256361	-2.239974	0.006428	-0.002180	-0.013561	-0.792480	0.198730	-0.334473	0.586812	-0.160832	-0.766693	-0.204856
23713		9.493378	1.229572	-2.240569	0.001996	-0.002952	-0.014596	-0.785645	0.197266	-0.336914	0.586781	-0.160931	-0.766675	-0.204934
23714		9.482005	1.204532	-2.235158	0.006636	-0.000069	-0.015006	-0.781738	0.189453	-0.322998	0.586810	-0.160964	-0.766641	-0.204953
23715		9.475197	1.209280	-2.223202	0.010853	0.000628	-0.015684	-0.781006	0.197510	-0.335938	0.586827	-0.160850	-0.766673	-0.204875
23716		9.485445	1.241040	-2.229642	0.006690	-0.002817	-0.017506	-0.785889	0.195557	-0.336670	0.586830	-0.160863	-0.766661	-0.204902
23717		9.474980	1.235751	-2.226555	0.006101	-0.002294	-0.016129	-0.791016	0.203613	-0.340088	0.586834	-0.160876	-0.766651	-0.204919
23718		9.488532	1.208078	-2.239079	0.006078	-0.000675	-0.018827	-0.782959	0.194336	-0.331543	0.586837	-0.160957	-0.766603	-0.205027
23719		9.488472	1.234910	-2.210501	0.006388	0.001472	-0.019416	-0.791992	0.189209	-0.334961	0.586861	-0.160903	-0.766587	-0.205058
23720		9.472272	1.228627	-2.225058	0.006257	0.001019	-0.019811	-0.788574	0.191650	-0.337646	0.586875	-0.160808	-0.766592	-0.205071
23721		9.468797	1.232036	-2.234283	0.006357	0.001057	-0.018953	-0.783447	0.194580	-0.335693	0.586904	-0.160750	-0.766577	-0.205091
23722		9.467748	1.239276	-2.203737	0.004518	-0.000988	-0.017260	-0.790527	0.190918	-0.333496	0.586917	-0.160749	-0.766559	-0.205126
23723		9.474005	1.238226	-2.247035	0.007770	-0.001118	-0.017751	-0.791992	0.189941	-0.336670	0.586915	-0.160686	-0.766575	-0.205118
23724		9.497012	1.222578	-2.232452	0.006640	0.000756	-0.015920	-0.792480	0.191162	-0.338135	0.586940	-0.160642	-0.766568	-0.205107
23725		9.477431	1.218280	-2.225712	0.003647	0.000245	-0.019374	-0.787354	0.187988	-0.330811	0.586947	-0.160604	-0.766556	-0.205160
23726		9.476821	1.222410	-2.226041	0.007633	-0.001571	-0.018144	-0.791260	0.191406	-0.334717	0.586941	-0.160503	-0.766590	-0.205130
23727		9.474641	1.254422	-2.238940	0.009507	-0.000730	-0.017597	-0.788330	0.194092	-0.332275	0.586948	-0.160440	-0.766603	-0.205112
23728		9.476975	1.258450	-2.230425	0.007033	-0.003494	-0.013147	-0.788818	0.185547	-0.333008	0.586930	-0.160468	-0.766615	-0.205096
23729		9.478083	1.232928	-2.218565	0.003666	0.000584	-0.012397	-0.792480	0.194824	-0.337891	0.586957	-0.160428	-0.766614	-0.205053
23730		9.476794	1.216063	-2.216783	0.006717	-0.001651	-0.011440	-0.787109	0.193604	-0.338623	0.586969	-0.160486	-0.766597	-0.205040
23731		9.478771	1.209979	-2.207165	0.005331	-0.002644	-0.014677	-0.789307	0.188721	-0.338623	0.586975	-0.160507	-0.766587	-0.205043
