// Start Time: Unknown
// Update Rate: 40.0Hz
// Filter Profile: human (46.1)
// Firmware Version: 4.6.0
PacketCounter	SampleTimeFine	Acc_X	Acc_Y	Acc_Z	Gyr_X	Gyr_Y	Gyr_Z	Mag_X	Mag_Y	Mag_Z	Quat_q0	Quat_q1	Quat_q2	Quat_q3
23208		9.726659	0.005100	-1.145958	0.004161	-0.001670	-0.008675	-0.696289	-0.227539	0.674561	-0.128313	-0.733318	0.144005	-0.651953
23209		9.741376	0.025765	-1.129271	0.005714	-0.001095	-0.008443	-0.689209	-0.224609	0.677490	-0.128327	-0.733352	0.143883	-0.651940
23210		9.748029	0.051795	-1.156032	0.008184	0.000372	-0.009251	-0.688477	-0.223877	0.677002	-0.128265	-0.733395	0.143732	-0.651936
23211		9.726808	0.021406	-1.179909	0.004739	0.001268	-0.011083	-0.688965	-0.221924	0.675781	-0.128253	-0.733424	0.143591	-0.651937
23212		9.736724	0.063336	-1.159404	0.005175	-0.000965	-0.007986	-0.684326	-0.229736	0.678223	-0.128191	-0.733471	0.143478	-0.651921
23213		9.728473	0.059990	-1.169166	0.004270	0.002722	-0.005099	-0.680176	-0.223389	0.677002	-0.128211	-0.733467	0.143386	-0.651942
23214		9.735712	0.024990	-1.156777	0.002977	0.003085	-0.008746	-0.689209	-0.226562	0.678467	-0.128204	-0.733481	0.143269	-0.651954
23215		9.733254	0.032577	-1.137702	0.005375	0.000949	-0.009807	-0.681641	-0.229980	0.671143	-0.128217	-0.733512	0.143124	-0.651948
23216		9.749953	0.054489	-1.151428	0.008252	-0.000344	-0.009729	-0.687012	-0.221436	0.672119	-0.128269	-0.733544	0.142955	-0.651939
23217		9.740380	0.053989	-1.152507	0.009328	-0.002889	-0.005362	-0.686035	-0.223145	0.672119	-0.128178	-0.733606	0.142818	-0.651917
23218		9.736898	0.029036	-1.166486	0.006552	-0.001778	-0.003714	-0.689941	-0.228271	0.673096	-0.128127	-0.733654	0.142711	-0.651897
23219		9.731265	0.047447	-1.142076	0.007598	-0.002576	-0.006830	-0.688721	-0.222412	0.676025	-0.128145	-0.733715	0.142566	-0.651856
23220		9.736257	0.037750	-1.179442	0.005052	0.000982	-0.004797	-0.687012	-0.220215	0.679932	-0.128106	-0.733752	0.142452	-0.651846
23221		9.732147	0.009471	-1.171287	0.006273	-0.000708	-0.006674	-0.683594	-0.222168	0.675049	-0.128033	-0.733831	0.142309	-0.651803
23222		9.740703	0.053565	-1.141882	0.008509	-0.001688	-0.007866	-0.684326	-0.225342	0.673096	-0.127985	-0.733895	0.142144	-0.651776
23223		9.743349	0.059727	-1.194347	0.004484	0.000581	-0.006552	-0.691406	-0.218018	0.671875	-0.128013	-0.733919	0.142017	-0.651772
23224		9.715947	0.042079	-1.171489	-0.001720	0.002852	-0.005637	-0.684082	-0.230469	0.676514	-0.128024	-0.733902	0.141950	-0.651804
23225		9.718358	0.027874	-1.155845	0.000156	0.001115	-0.005138	-0.687012	-0.220703	0.668457	-0.128125	-0.733948	0.141860	-0.651751
23226		9.716561	0.038294	-1.158648	0.006197	0.000002	-0.006185	-0.680664	-0.228760	0.677246	-0.128099	-0.733953	0.141731	-0.651779
23227		9.741212	0.026916	-1.181883	0.002415	0.002940	-0.009392	-0.689941	-0.225830	0.678955	-0.128194	-0.734006	0.141583	-0.651734
23228		9.748889	0.030454	-1.149232	0.003466	0.006720	-0.010664	-0.685547	-0.227295	0.671387	-0.128255	-0.734023	0.141416	-0.651738
23229		9.752961	0.052399	-1.122158	0.005253	0.005429	-0.010782	-0.683594	-0.221680	0.676025	-0.128338	-0.734009	0.141246	-0.651774
23230		9.724131	0.064586	-1.169232	0.004230	0.002180	-0.007299	-0.687256	-0.229004	0.674072	-0.128313	-0.734042	0.141112	-0.651771
23231		9.708107	0.039935	-1.142465	0.003545	0.003736	-0.005876	-0.687500	-0.234131	0.678223	-0.128383	-0.734043	0.140998	-0.651781
23232		9.728471	0.042775	-1.149710	0.002155	0.002001	-0.005974	-0.679932	-0.226562	0.677734	-0.128506	-0.734082	0.140898	-0.651734
23233		9.734724	0.020687	-1.161696	0.002889	0.003779	-0.008249	-0.684570	-0.226318	0.664551	-0.128547	-0.734122	0.140767	-0.651710
23234		9.763858	0.022228	-1.146982	0.007284	-0.000000	-0.005978	-0.692139	-0.226318	0.666992	-0.128568	-0.734088	0.140650	-0.651768
23235		9.726795	0.056509	-1.151229	0.004779	0.002311	-0.006644	-0.687256	-0.232910	0.679199	-0.128612	-0.734027	0.140550	-0.651851
23236		9.716245	0.068451	-1.175749	0.002630	0.002845	-0.004836	-0.685547	-0.229492	0.668457	-0.128704	-0.734060	0.140477	-0.651811
23237		9.733147	0.035032	-1.162457	-0.001233	0.003956	-0.003394	-0.684082	-0.218262	0.677002	-0.128813	-0.734006	0.140454	-0.651855
23238		9.758272	0.006510	-1.139356	0.003330	0.001554	-0.005153	-0.689209	-0.230957	0.676025	-0.128685	-0.734052	0.140350	-0.651851
23239		9.753943	0.022461	-1.123335	0.004316	0.001731	-0.006675	-0.689209	-0.230713	0.675537	-0.128756	-0.734067	0.140258	-0.651839
23240		9.746461	0.022430	-1.154523	0.010474	0.000712	-0.004889	-0.681152	-0.224121	0.669678	-0.128751	-0.734089	0.140137	-0.651842
23241		9.731559	0.049050	-1.163234	0.004734	0.006086	-0.008113	-0.687744	-0.223877	0.667480	-0.128753	-0.734058	0.140020	-0.651902
23242		9.732754	0.038201	-1.137950	0.004911	0.000614	-0.008712	-0.683838	-0.223145	0.676758	-0.128754	-0.734022	0.139912	-0.651966
23243		9.744104	0.032628	-1.134183	0.005132	0.000531	-0.004165	-0.686035	-0.217529	0.675293	-0.128656	-0.734078	0.139819	-0.651942
23244		9.735320	0.035405	-1.156336	0.010427	-0.000095	-0.008194	-0.689453	-0.223877	0.672852	-0.128446	-0.734128	0.139636	-0.651966
23245		9.741537	0.013552	-1.169030	0.006609	-0.000234	-0.009445	-0.691162	-0.225098	0.670898	-0.128411	-0.734130	0.139505	-0.651998
23246		9.749901	0.057898	-1.139551	0.008442	-0.000718	-0.006251	-0.693848	-0.220459	0.670898	-0.128364	-0.734105	0.139406	-0.652057
23247		9.733447	0.049398	-1.159424	0.007113	0.001149	-0.006101	-0.691650	-0.227051	0.667236	-0.128241	-0.734044	0.139303	-0.652173
23248		9.742972	0.053029	-1.158509	0.004921	0.000877	-0.007604	-0.682373	-0.229492	0.672852	-0.128312	-0.733963	0.139245	-0.652261
23249		9.735335	0.043072	-1.155951	0.001252	0.001371	-0.003828	-0.678223	-0.223877	0.667725	-0.128407	-0.733988	0.139222	-0.652219
23250		9.744853	0.046361	-1.155113	0.005100	-0.000011	-0.006366	-0.686035	-0.230225	0.677002	-0.128403	-0.734022	0.139136	-0.652200
23251		9.743469	0.012797	-1.165209	0.008020	0.002035	-0.007135	-0.690674	-0.229736	0.668213	-0.128445	-0.734070	0.139020	-0.652163
23252		9.749127	0.024767	-1.136659	0.009587	-0.001702	-0.007631	-0.685791	-0.226807	0.674561	-0.128515	-0.734025	0.138934	-0.652218
23253		9.750618	0.070975	-1.160561	0.005994	-0.001919	-0.004339	-0.677734	-0.233398	0.666992	-0.128484	-0.734077	0.138865	-0.652181
23254		9.732036	0.023498	-1.169487	0.000864	0.000077	-0.004343	-0.683594	-0.221436	0.673584	-0.128731	-0.734088	0.138893	-0.652113
23255		9.745197	0.008812	-1.163194	0.004861	-0.002732	-0.007846	-0.681885	-0.228760	0.663330	-0.128610	-0.734165	0.138771	-0.652077
23256		9.726241	0.044071	-1.145338	0.005618	-0.000419	-0.007915	-0.694336	-0.232910	0.674316	-0.128747	-0.734120	0.138724	-0.652110
23257		9.748309	0.000631	-1.169683	0.007358	0.002067	-0.009503	-0.691162	-0.222656	0.676514	-0.128882	-0.734063	0.138636	-0.652167
23258		9.742095	0.026605	-1.156508	0.004554	0.002639	-0.010072	-0.688477	-0.226074	0.673828	-0.128774	-0.734062	0.138493	-0.652219
23259		9.749062	0.037004	-1.136882	0.004674	0.000670	-0.013240	-0.690918	-0.234131	0.669678	-0.128798	-0.734075	0.138353	-0.652229
23260		9.736372	0.049344	-1.131527	0.009090	-0.002827	-0.009857	-0.690186	-0.238525	0.669189	-0.128975	-0.734041	0.138280	-0.652248
23261		9.729508	0.053615	-1.185062	0.007850	-0.001404	-0.009091	-0.686035	-0.224121	0.673828	-0.129274	-0.733988	0.138248	-0.652256
23262		9.732501	0.033767	-1.157728	0.003898	0.000149	-0.008277	-0.692627	-0.228516	0.670410	-0.129198	-0.734023	0.138142	-0.652254
23263		9.734366	0.026558	-1.154712	0.003898	0.000149	-0.008277	-0.686768	-0.224609	0.672607	-0.129244	-0.733953	0.138075	-0.652338
23264		9.742559	0.033612	-1.144850	0.010914	-0.000787	-0.010822	-0.684814	-0.229248	0.675293	-0.129137	-0.733992	0.137897	-0.652352
23265		9.742612	0.045442	-1.179168	0.009282	-0.003445	-0.007511	-0.691895	-0.229004	0.670654	-0.129127	-0.734086	0.137792	-0.652271
23266		9.720994	0.048239	-1.162283	0.005995	0.000864	-0.007389	-0.694092	-0.236328	0.667480	-0.129160	-0.734017	0.137721	-0.652357
23267		9.733684	0.040183	-1.167588	0.009075	0.001754	-0.008021	-0.687256	-0.221680	0.671143	-0.129379	-0.733885	0.137673	-0.652472
23268		9.748847	0.016867	-1.157596	0.005351	0.001166	-0.008657	-0.692139	-0.228516	0.672852	-0.129229	-0.733883	0.137538	-0.652533
23269		9.755204	0.032759	-1.150350	0.006989	0.001305	-0.007803	-0.687744	-0.224121	0.673584	-0.129221	-0.733843	0.137444	-0.652599
23270		9.743272	0.047695	-1.165950	0.005365	0.001436	-0.007554	-0.682129	-0.224121	0.667480	-0.129113	-0.733857	0.137333	-0.652628
23271		9.721723	0.050462	-1.148457	0.006543	0.000998	-0.006733	-0.693359	-0.229492	0.674561	-0.129050	-0.733862	0.137243	-0.652653
23272		9.731236	0.053789	-1.147577	0.001870	0.000783	-0.003653	-0.679932	-0.227295	0.669678	-0.129065	-0.733819	0.137231	-0.652702
23273		9.743922	0.045235	-1.153023	0.004458	0.000549	-0.006517	-0.685059	-0.219727	0.671875	-0.129096	-0.733868	0.137176	-0.652652
23274		9.726321	0.002101	-1.182699	0.001290	0.002882	-0.009563	-0.684326	-0.228516	0.678955	-0.128943	-0.733881	0.137052	-0.652694
23275		9.733836	0.043644	-1.131040	0.002377	0.002885	-0.009360	-0.680908	-0.225586	0.674072	-0.128962	-0.733973	0.136951	-0.652607
23276		9.749724	0.024049	-1.142653	0.001899	-0.000752	-0.007432	-0.686279	-0.228516	0.669189	-0.128934	-0.734069	0.136880	-0.652520
23277		9.741494	0.020778	-1.152858	0.012189	-0.001403	-0.008264	-0.680664	-0.230469	0.673096	-0.128920	-0.734073	0.136763	-0.652543
23278		9.751687	0.075707	-1.188255	0.005083	-0.000029	-0.006344	-0.687012	-0.227783	0.669922	-0.128993	-0.734148	0.136711	-0.652455
23279		9.734487	0.053686	-1.152741	0.002388	0.000372	-0.005199	-0.686768	-0.229980	0.675049	-0.129017	-0.734116	0.136691	-0.652490
23280		9.740312	0.037255	-1.177225	0.005405	0.002252	-0.004249	-0.687012	-0.226807	0.674805	-0.129023	-0.734132	0.136640	-0.652482
23281		9.734534	0.008019	-1.137838	0.005725	-0.000332	-0.005073	-0.683838	-0.228027	0.673584	-0.128946	-0.734168	0.136567	-0.652471
23282		9.731332	0.068999	-1.145955	0.011389	0.000323	-0.008564	-0.682373	-0.229492	0.678467	-0.128899	-0.734229	0.136428	-0.652441
23283		9.747232	0.048941	-1.157639	0.007087	0.001130	-0.006074	-0.680664	-0.233154	0.677490	-0.128876	-0.734338	0.136331	-0.652344
23284		9.741585	0.029576	-1.151899	0.001163	0.002069	-0.003338	-0.682861	-0.225098	0.670410	-0.128991	-0.734423	0.136326	-0.652227
23285		9.750542	0.038841	-1.162918	-0.000001	0.002780	-0.003060	-0.693359	-0.223633	0.664551	-0.128961	-0.734404	0.136328	-0.652254
23286		9.713884	0.018336	-1.140152	-0.004058	0.004498	-0.003974	-0.680176	-0.230225	0.670166	-0.128958	-0.734202	0.136372	-0.652473
23287		9.724768	0.018548	-1.147970	-0.000904	0.001895	-0.002025	-0.680176	-0.222900	0.675537	-0.129063	-0.734213	0.136416	-0.652430
23288		9.729956	-0.001329	-1.150545	0.007728	0.003609	-0.007861	-0.689941	-0.220215	0.669678	-0.128906	-0.734300	0.136274	-0.652393
23289		9.757293	0.019833	-1.172511	0.002079	0.001138	-0.009248	-0.688965	-0.232422	0.668213	-0.128767	-0.734241	0.136190	-0.652504
23290		9.740883	0.003000	-1.158024	0.007355	0.003277	-0.016306	-0.686768	-0.237061	0.672119	-0.128964	-0.734171	0.136059	-0.652572
23291		9.741898	0.079262	-1.127982	0.007908	0.000636	-0.012595	-0.692139	-0.222412	0.673584	-0.129198	-0.734179	0.135961	-0.652537
23292		9.712439	0.049592	-1.173622	0.008428	0.002316	-0.008166	-0.687988	-0.225830	0.669922	-0.128998	-0.734145	0.135820	-0.652644
23293		9.729056	0.023410	-1.172466	0.003483	0.003422	-0.006949	-0.692871	-0.223389	0.671143	-0.128968	-0.734090	0.135763	-0.652724
23294		9.753140	-0.000960	-1.139872	0.006772	0.001894	-0.010115	-0.687988	-0.223877	0.672363	-0.128848	-0.734030	0.135637	-0.652840
23295		9.745589	0.047420	-1.185611	0.006024	-0.000421	-0.010041	-0.689941	-0.224365	0.672363	-0.128749	-0.734048	0.135516	-0.652865
23296		9.723307	0.047371	-1.146592	0.001275	0.002857	-0.009549	-0.691406	-0.230225	0.679688	-0.128704	-0.734012	0.135439	-0.652930
23297		9.727929	0.034759	-1.161435	0.003005	0.002563	-0.008077	-0.681396	-0.222900	0.663818	-0.128699	-0.734040	0.135344	-0.652919
23298		9.737434	0.038773	-1.160526	0.008304	-0.000575	-0.007915	-0.684814	-0.224121	0.668457	-0.128637	-0.734030	0.135271	-0.652958
23299		9.753162	0.056435	-1.152857	0.008180	0.001407	-0.004759	-0.688721	-0.222656	0.671143	-0.128532	-0.734016	0.135203	-0.653008
23300		9.733127	0.017925	-1.164288	0.007418	-0.001184	-0.005783	-0.687500	-0.228516	0.669189	-0.128374	-0.734019	0.135116	-0.653055
23301		9.739942	0.027347	-1.145334	0.006664	-0.000725	-0.008766	-0.683594	-0.226318	0.673584	-0.128411	-0.734007	0.135047	-0.653075
23302		9.750723	0.028790	-1.154034	0.004948	-0.000157	-0.009139	-0.691895	-0.222412	0.668945	-0.128383	-0.734071	0.134946	-0.653029
23303		9.743092	0.019334	-1.152323	0.014841	-0.005144	-0.008501	-0.681152	-0.227295	0.670898	-0.128186	-0.734071	0.134799	-0.653099
23304		9.748566	0.041435	-1.158850	0.013581	-0.003998	-0.008841	-0.684570	-0.223389	0.674561	-0.128130	-0.734170	0.134659	-0.653027
23305		9.742973	-0.024488	-1.140508	0.024856	-0.009074	-0.012967	-0.693604	-0.226074	0.676270	-0.127869	-0.734343	0.134360	-0.652946
23306		9.736706	0.053067	-1.166059	0.018449	-0.006227	-0.014428	-0.691406	-0.231689	0.670166	-0.127717	-0.734414	0.134109	-0.652946
23307		9.743360	0.063765	-1.148365	0.016306	-0.005685	-0.012637	-0.682129	-0.227783	0.674316	-0.127761	-0.734426	0.133954	-0.652957
23308		9.733077	0.070068	-1.162654	0.007777	-0.005057	-0.009259	-0.681396	-0.231201	0.681152	-0.127754	-0.734536	0.133850	-0.652855
23309		9.721242	0.047165	-1.198574	0.006021	-0.000169	-0.008926	-0.692139	-0.225830	0.678467	-0.127784	-0.734670	0.133725	-0.652724
23310		9.738822	0.046792	-1.154192	0.008192	-0.000157	-0.008517	-0.694092	-0.228760	0.671631	-0.127675	-0.734690	0.133594	-0.652750
23311		9.749513	0.047721	-1.163594	0.013486	-0.006342	-0.006380	-0.685791	-0.229248	0.672852	-0.127607	-0.734680	0.133501	-0.652793
23312		9.724554	0.071549	-1.175165	0.009195	-0.002484	-0.005869	-0.691650	-0.217529	0.669922	-0.127603	-0.734712	0.133431	-0.652773
23313		9.737598	0.015510	-1.166130	0.004276	0.001950	-0.005533	-0.696777	-0.224121	0.671387	-0.127424	-0.734628	0.133383	-0.652911
23314		9.756887	0.062564	-1.167048	0.005248	-0.000932	-0.005078	-0.682861	-0.217285	0.675049	-0.127341	-0.734541	0.133351	-0.653032
23315		9.732412	0.038563	-1.162557	-0.003884	0.003600	-0.002749	-0.683350	-0.222412	0.669922	-0.127196	-0.734552	0.133353	-0.653048
23316		9.714889	0.031875	-1.172163	-0.001256	0.004193	-0.002309	-0.676270	-0.226318	0.668457	-0.127175	-0.734506	0.133388	-0.653096
23317		9.715671	0.026646	-1.158654	-0.000566	0.005666	-0.005674	-0.689453	-0.221436	0.673828	-0.127284	-0.734497	0.133402	-0.653083
23318		9.742956	0.037757	-1.145882	0.001872	0.007133	-0.006470	-0.687256	-0.225830	0.675049	-0.127201	-0.734430	0.133341	-0.653186
23319		9.759888	0.021298	-1.177388	0.001226	0.007425	-0.007738	-0.699951	-0.224854	0.664795	-0.127217	-0.734391	0.133278	-0.653240
23320		9.746000	0.035759	-1.160906	0.000752	0.006564	-0.008864	-0.687256	-0.231445	0.677002	-0.127290	-0.734168	0.133286	-0.653475
23321		9.736672	0.035416	-1.160285	0.001742	0.003962	-0.007313	-0.689209	-0.227295	0.674072	-0.127379	-0.734179	0.133231	-0.653456
23322		9.728247	0.069517	-1.149846	0.004419	0.005397	-0.003586	-0.686523	-0.227539	0.676514	-0.127353	-0.734138	0.133193	-0.653515
23323		9.727562	0.044810	-1.192205	-0.001165	0.006796	-0.003653	-0.687012	-0.225586	0.675049	-0.127372	-0.734120	0.133182	-0.653534
23324		9.742395	0.017589	-1.159460	-0.000302	0.004072	-0.004912	-0.687500	-0.227539	0.667236	-0.127362	-0.734113	0.133160	-0.653548
23325		9.744028	0.047960	-1.136346	0.001914	0.002807	-0.007171	-0.688477	-0.231445	0.671875	-0.127449	-0.734050	0.133156	-0.653603
23326		9.743481	0.055757	-1.147840	-0.001939	0.003920	-0.005766	-0.689209	-0.228027	0.679932	-0.127588	-0.734004	0.133176	-0.653624
23327		9.727080	0.005577	-1.164207	-0.002647	0.005209	-0.005460	-0.682129	-0.218018	0.666748	-0.127601	-0.734013	0.133146	-0.653617
23328		9.728106	0.042223	-1.153022	0.000041	0.004806	-0.006591	-0.683105	-0.223877	0.672119	-0.127538	-0.733974	0.133132	-0.653676
23329		9.746308	0.013259	-1.160443	0.003737	0.005127	-0.007039	-0.687012	-0.228027	0.676514	-0.127505	-0.733977	0.133067	-0.653693
23330		9.762078	0.031601	-1.151673	0.004160	0.005145	-0.009196	-0.688232	-0.230225	0.675537	-0.127515	-0.733991	0.132964	-0.653695
23331		9.755341	0.016177	-1.135850	0.003247	0.003983	-0.009260	-0.686523	-0.219971	0.676270	-0.127575	-0.733996	0.132882	-0.653695
23332		9.742036	0.034018	-1.141624	0.000023	0.004521	-0.007684	-0.682617	-0.228027	0.664062	-0.127474	-0.734010	0.132815	-0.653712
23333		9.740154	0.044740	-1.143817	0.006788	0.002698	-0.006790	-0.684082	-0.229248	0.672363	-0.127544	-0.733971	0.132791	-0.653747
23334		9.743429	0.024565	-1.115812	0.009936	-0.000165	-0.005925	-0.682617	-0.227051	0.669922	-0.127523	-0.734018	0.132707	-0.653715
23335		9.750249	0.043247	-1.130790	0.010739	-0.001891	-0.005610	-0.687012	-0.231445	0.671143	-0.127475	-0.734070	0.132632	-0.653682
23336		9.738661	0.019338	-1.166192	0.006065	0.000663	-0.005617	-0.690430	-0.228760	0.673340	-0.127531	-0.734069	0.132596	-0.653679
23337		9.741360	0.037122	-1.119550	0.001713	-0.002691	-0.005571	-0.687256	-0.226807	0.671387	-0.127551	-0.734084	0.132585	-0.653660
23338		9.733161	0.033214	-1.130115	0.010816	-0.002610	-0.006084	-0.687500	-0.233398	0.665527	-0.127480	-0.734121	0.132501	-0.653651
23339		9.735086	0.034627	-1.161987	0.016764	-0.006030	-0.004632	-0.685791	-0.222412	0.673096	-0.127489	-0.734140	0.132432	-0.653642
23340		9.736278	0.032620	-1.172487	0.009998	-0.004210	-0.005527	-0.685059	-0.233398	0.674561	-0.127342	-0.734210	0.132346	-0.653609
23341		9.729332	0.016316	-1.158666	0.008721	-0.003349	-0.006967	-0.688721	-0.225830	0.668945	-0.127395	-0.734283	0.132275	-0.653531
23342		9.723915	0.038986	-1.156314	0.005274	-0.002505	-0.008818	-0.684570	-0.226074	0.670898	-0.127401	-0.734280	0.132224	-0.653543
23343		9.746898	0.068523	-1.151862	0.005403	-0.002375	-0.006012	-0.689941	-0.227783	0.677490	-0.127385	-0.734313	0.132191	-0.653516
23344		9.757518	0.027716	-1.158348	0.002557	-0.000535	-0.003932	-0.688965	-0.219238	0.670410	-0.127353	-0.734338	0.132171	-0.653498
23345		9.727130	0.030730	-1.163392	0.007693	0.000810	-0.004758	-0.686279	-0.227295	0.677490	-0.127197	-0.734316	0.132113	-0.653565
23346		9.731775	0.007408	-1.144865	0.003091	-0.000674	-0.004376	-0.691406	-0.232422	0.681885	-0.127168	-0.734367	0.132084	-0.653519
23347		9.741951	0.045953	-1.134888	0.010983	-0.003771	-0.005932	-0.687744	-0.224121	0.671143	-0.127112	-0.734455	0.131971	-0.653454
23348		9.747898	0.029160	-1.160229	0.011925	-0.002044	-0.003680	-0.688965	-0.221680	0.673584	-0.126986	-0.734470	0.131905	-0.653474
23349		9.739623	-0.016224	-1.167978	0.008803	-0.000754	-0.008305	-0.681641	-0.228271	0.677002	-0.126879	-0.734488	0.131806	-0.653495
23350		9.753262	0.043292	-1.132295	0.005356	0.000088	-0.010157	-0.681885	-0.228760	0.668701	-0.126913	-0.734565	0.131713	-0.653421
23351		9.716103	0.039348	-1.156398	0.003771	0.000784	-0.007732	-0.675537	-0.216797	0.667969	-0.127002	-0.734566	0.131694	-0.653406
23352		9.724169	0.014899	-1.177753	0.002004	0.000494	-0.011391	-0.684326	-0.221680	0.677734	-0.126976	-0.734610	0.131639	-0.653373
23353		9.751218	0.018130	-1.132265	0.002719	0.002522	-0.012562	-0.692871	-0.217773	0.679443	-0.126949	-0.734654	0.131529	-0.653351
23354		9.750640	0.058855	-1.112734	0.003558	0.001366	-0.010058	-0.693848	-0.231445	0.674561	-0.126808	-0.734664	0.131426	-0.653388
23355		9.729760	0.042759	-1.181858	0.000197	0.003629	-0.006447	-0.685059	-0.226074	0.671631	-0.126898	-0.734601	0.131419	-0.653443
23356		9.714968	0.021789	-1.176124	-0.001989	0.003325	-0.007951	-0.686768	-0.222656	0.675537	-0.126978	-0.734574	0.131425	-0.653456
23357		9.748787	0.032309	-1.111243	0.001956	0.001778	-0.008725	-0.691895	-0.227783	0.671875	-0.126948	-0.734586	0.131370	-0.653459
23358		9.732626	0.033498	-1.164692	0.003200	0.000349	-0.009468	-0.688721	-0.222900	0.674072	-0.126994	-0.734556	0.131326	-0.653494
23359		9.744800	0.022773	-1.148277	0.004027	0.002229	-0.008929	-0.688965	-0.228027	0.674072	-0.126955	-0.734546	0.131260	-0.653525
23360		9.752951	0.030139	-1.137913	0.001403	0.001628	-0.009372	-0.687256	-0.235107	0.661377	-0.127013	-0.734536	0.131219	-0.653533
23361		9.735439	0.024902	-1.148037	0.002924	0.001932	-0.010225	-0.684814	-0.225342	0.677490	-0.127241	-0.734449	0.131227	-0.653586
23362		9.742907	0.038741	-1.150086	0.001385	0.001340	-0.010462	-0.692383	-0.233887	0.674805	-0.127254	-0.734492	0.131159	-0.653548
23363		9.732121	0.041646	-1.141185	0.004637	0.001370	-0.009842	-0.685791	-0.230469	0.673340	-0.127345	-0.734475	0.131093	-0.653562
23364		9.740927	0.052346	-1.152591	0.004734	0.000936	-0.009224	-0.690918	-0.223633	0.681152	-0.127404	-0.734490	0.131036	-0.653546
23365		9.766670	0.035104	-1.163054	0.001354	0.002913	-0.006710	-0.683838	-0.225830	0.675049	-0.127332	-0.734503	0.130987	-0.653556
23366		9.743021	0.046853	-1.148815	0.006723	-0.001211	-0.008081	-0.679932	-0.227051	0.673096	-0.127293	-0.734559	0.130916	-0.653514
23367		9.737593	0.027795	-1.143607	0.008570	-0.001632	-0.004899	-0.691162	-0.229492	0.666260	-0.127247	-0.734624	0.130871	-0.653460
23368		9.743705	0.011626	-1.168280	0.005815	0.000942	-0.009014	-0.687500	-0.228516	0.669189	-0.127310	-0.734561	0.130835	-0.653525
23369		9.730204	0.020015	-1.140862	0.001850	0.002199	-0.009333	-0.687012	-0.225586	0.673340	-0.127392	-0.734523	0.130815	-0.653555
23370		9.728199	0.031384	-1.143612	0.008933	0.000833	-0.011192	-0.688965	-0.230957	0.672852	-0.127362	-0.734541	0.130703	-0.653563
23371		9.750536	0.026417	-1.148141	0.008967	0.001405	-0.009008	-0.683105	-0.219482	0.674561	-0.127380	-0.734536	0.130619	-0.653582
23372		9.760661	0.034093	-1.169113	0.008852	-0.001769	-0.009843	-0.692871	-0.222656	0.671631	-0.127261	-0.734603	0.130514	-0.653551
23373		9.725441	0.043734	-1.125155	0.002088	0.000035	-0.010751	-0.681396	-0.228516	0.667236	-0.127251	-0.734573	0.130466	-0.653597
23374		9.742226	0.069170	-1.161338	0.012362	-0.003608	-0.009549	-0.689209	-0.225586	0.673584	-0.127252	-0.734620	0.130381	-0.653561
23375		9.730739	0.036169	-1.163389	0.010326	-0.003489	-0.007162	-0.682861	-0.225342	0.667969	-0.127166	-0.734657	0.130302	-0.653552
23376		9.724633	0.023578	-1.170761	0.007781	-0.001498	-0.008953	-0.686768	-0.226562	0.670166	-0.127163	-0.734674	0.130249	-0.653543
23377		9.750237	0.038686	-1.150326	0.006141	0.001657	-0.010681	-0.683350	-0.223877	0.670654	-0.127190	-0.734658	0.130182	-0.653570
23378		9.755061	0.016938	-1.131523	0.005867	-0.000078	-0.010567	-0.687988	-0.224609	0.664795	-0.127186	-0.734677	0.130115	-0.653562
23379		9.742167	0.038395	-1.159973	0.008902	0.000530	-0.012269	-0.683594	-0.219727	0.673584	-0.127198	-0.734639	0.130029	-0.653620
23380		9.740815	0.044078	-1.150487	0.007637	0.001668	-0.012618	-0.680420	-0.223633	0.670410	-0.127128	-0.734669	0.129904	-0.653625
23381		9.726564	0.068024	-1.169480	0.007001	0.000796	-0.007085	-0.685547	-0.229004	0.669678	-0.127090	-0.734691	0.129860	-0.653616
23382		9.738807	0.056600	-1.152974	0.002088	0.002184	-0.004820	-0.689941	-0.224365	0.675293	-0.127144	-0.734657	0.129889	-0.653638
23383		9.748519	0.019143	-1.149088	0.002938	0.002480	-0.008026	-0.690674	-0.223389	0.668457	-0.127120	-0.734641	0.129847	-0.653669
23384		9.729617	0.016341	-1.150485	0.012254	-0.003186	-0.010147	-0.687500	-0.217529	0.677002	-0.127039	-0.734646	0.129743	-0.653700
23385		9.745395	0.079522	-1.168226	0.010302	-0.003785	-0.008235	-0.683350	-0.223633	0.670410	-0.126852	-0.734718	0.129627	-0.653678
23386		9.723236	0.046978	-1.161136	0.004830	0.000767	-0.007496	-0.684814	-0.223389	0.666748	-0.126838	-0.734721	0.129599	-0.653683
23387		9.749739	0.023633	-1.159479	0.005895	0.000489	-0.008377	-0.686768	-0.223389	0.664551	-0.126835	-0.734701	0.129569	-0.653712
23388		9.723278	0.050616	-1.160635	0.002933	0.002474	-0.008023	-0.690918	-0.231934	0.669678	-0.126867	-0.734636	0.129574	-0.653777
23389		9.754416	0.044555	-1.142850	0.003294	0.000171	-0.007732	-0.694580	-0.228760	0.665771	-0.126960	-0.734599	0.129584	-0.653799
23390		9.747062	0.035133	-1.140245	0.005243	0.000766	-0.009640	-0.688721	-0.218262	0.671387	-0.127023	-0.734524	0.129564	-0.653875
23391		9.730248	0.032963	-1.172143	0.004591	0.001044	-0.010904	-0.686768	-0.226807	0.672607	-0.126953	-0.734515	0.129481	-0.653915
23392		9.742927	0.057859	-1.146040	0.005692	0.001346	-0.009606	-0.685791	-0.229492	0.668457	-0.126968	-0.734517	0.129426	-0.653921
23393		9.738353	0.042434	-1.161769	0.004393	0.000471	-0.006433	-0.686523	-0.230713	0.676025	-0.127023	-0.734498	0.129440	-0.653929
23394		9.728916	0.041717	-1.162342	0.008038	0.000220	-0.009043	-0.687012	-0.233154	0.668213	-0.127042	-0.734531	0.129374	-0.653902
23395		9.732786	0.066967	-1.158700	0.005889	0.000483	-0.008369	-0.684082	-0.223633	0.672119	-0.127141	-0.734509	0.129370	-0.653908
23396		9.744306	0.061975	-1.154911	0.004041	-0.000543	-0.005845	-0.687012	-0.230469	0.677002	-0.127103	-0.734528	0.129360	-0.653895
23397		9.734137	0.066902	-1.168019	0.007189	-0.000073	-0.005838	-0.681641	-0.226562	0.673340	-0.127094	-0.734559	0.129330	-0.653869
23398		9.735853	0.023934	-1.174439	0.005473	0.000481	-0.006222	-0.688965	-0.232666	0.674561	-0.127085	-0.734589	0.129312	-0.653840
23399		9.747800	0.044860	-1.127075	0.008234	-0.000644	-0.007804	-0.684326	-0.229980	0.666992	-0.127114	-0.734605	0.129272	-0.653825
23400		9.723973	0.065723	-1.147323	0.010481	-0.001340	-0.007858	-0.697510	-0.229980	0.678467	-0.127133	-0.734611	0.129234	-0.653822
23401		9.743144	0.040000	-1.177195	0.005289	0.001630	-0.006365	-0.683594	-0.219727	0.669189	-0.127116	-0.734583	0.129204	-0.653863
23402		9.753337	0.038129	-1.163780	0.002453	0.001586	-0.009134	-0.691162	-0.228271	0.673340	-0.127094	-0.734574	0.129175	-0.653882
23403		9.737678	0.055543	-1.139526	0.000305	0.001850	-0.008461	-0.687500	-0.226318	0.678467	-0.127154	-0.734543	0.129182	-0.653904
23404		9.731061	0.049199	-1.158154	0.003553	0.001891	-0.007836	-0.690186	-0.222656	0.682617	-0.127142	-0.734561	0.129147	-0.653893
23405		9.744064	0.041578	-1.162874	0.001122	0.003734	-0.007928	-0.690430	-0.225586	0.680420	-0.127093	-0.734571	0.129103	-0.653900
23406		9.745583	0.031318	-1.137392	0.006149	0.002208	-0.008475	-0.682617	-0.226074	0.677002	-0.127041	-0.734588	0.129032	-0.653905
23407		9.751175	0.021573	-1.173962	0.008029	0.000210	-0.009029	-0.689453	-0.229004	0.666992	-0.127009	-0.734642	0.128959	-0.653865
23408		9.750084	0.062023	-1.155150	0.008972	0.000066	-0.011610	-0.686035	-0.225342	0.672852	-0.127050	-0.734619	0.128896	-0.653896
23409		9.730522	0.056144	-1.135005	0.006696	-0.001247	-0.008032	-0.690186	-0.218262	0.679932	-0.127022	-0.734644	0.128858	-0.653880
23410		9.727666	0.073045	-1.150560	0.008924	0.001371	-0.008963	-0.684814	-0.234863	0.680420	-0.126874	-0.734672	0.128746	-0.653899
23411		9.745494	0.050485	-1.171300	0.012721	-0.002038	-0.007895	-0.692383	-0.230713	0.675293	-0.126863	-0.734753	0.128662	-0.653827
23412		9.748592	0.072330	-1.146344	0.010105	0.000954	-0.008135	-0.685547	-0.227539	0.675293	-0.126847	-0.734747	0.128598	-0.653850
23413		9.735363	0.048073	-1.150518	0.009408	-0.001069	-0.006961	-0.679932	-0.222656	0.670898	-0.126805	-0.734785	0.128549	-0.653825
23414		9.736735	0.046413	-1.159861	0.006647	0.000057	-0.005383	-0.680420	-0.223633	0.672119	-0.126755	-0.734809	0.128542	-0.653809
23415		9.723775	0.057077	-1.154508	0.007710	-0.000224	-0.006260	-0.693115	-0.225586	0.680664	-0.126708	-0.734842	0.128517	-0.653786
23416		9.716498	0.047171	-1.151704	0.003993	0.002460	-0.007797	-0.690430	-0.230713	0.671631	-0.126676	-0.734836	0.128478	-0.653806
23417		9.740336	0.038733	-1.165090	0.000986	0.002148	-0.005017	-0.691895	-0.221680	0.668945	-0.126741	-0.734789	0.128531	-0.653836
23418		9.747019	0.048649	-1.145542	0.001379	0.001846	-0.008245	-0.691406	-0.231689	0.675537	-0.126744	-0.734735	0.128538	-0.653895
23419		9.758622	0.043941	-1.141257	0.005707	0.001906	-0.007408	-0.691162	-0.230225	0.683105	-0.126776	-0.734718	0.128522	-0.653911
23420		9.736908	0.055303	-1.158022	0.007379	-0.000940	-0.004583	-0.688965	-0.232178	0.671875	-0.126722	-0.734761	0.128497	-0.653878
23421		9.739067	0.047228	-1.154585	0.001453	0.003023	-0.003900	-0.690918	-0.218750	0.671387	-0.126788	-0.734715	0.128560	-0.653904
23422		9.731150	0.042860	-1.163497	-0.001530	0.004710	-0.004644	-0.688965	-0.233643	0.675049	-0.126757	-0.734645	0.128608	-0.653980
23423		9.761011	0.039392	-1.135733	0.002863	0.003753	-0.005362	-0.691895	-0.229248	0.671631	-0.126825	-0.734614	0.128640	-0.653995
23424		9.749522	0.046950	-1.138903	0.003251	0.001748	-0.003980	-0.687500	-0.220459	0.674561	-0.126839	-0.734572	0.128683	-0.654031
23425		9.734294	0.031334	-1.145499	-0.000486	0.004134	-0.006606	-0.685547	-0.232666	0.672363	-0.126826	-0.734542	0.128703	-0.654063
23426		9.720642	0.048392	-1.152047	0.002847	-0.000147	-0.006651	-0.693604	-0.233643	0.669922	-0.126903	-0.734549	0.128739	-0.654034
23427		9.746780	0.066268	-1.153158	0.001599	0.001282	-0.005922	-0.684570	-0.226562	0.674561	-0.126989	-0.734496	0.128794	-0.654065
23428		9.735806	0.032608	-1.153689	-0.001060	0.001981	-0.003731	-0.685059	-0.226807	0.672852	-0.127017	-0.734490	0.128867	-0.654052
23429		9.737335	0.030901	-1.161836	-0.001922	0.006711	-0.006023	-0.679688	-0.231445	0.671631	-0.127085	-0.734438	0.128924	-0.654087
23430		9.744109	0.040803	-1.141294	-0.001205	0.005421	-0.006313	-0.688477	-0.219727	0.673096	-0.127205	-0.734413	0.128993	-0.654077
23431		9.753629	0.044970	-1.139739	0.001926	0.001995	-0.007591	-0.689697	-0.231689	0.671875	-0.127166	-0.734399	0.128991	-0.654101
23432		9.756683	0.075812	-1.148003	0.001347	0.003448	-0.004513	-0.690674	-0.226807	0.680176	-0.127224	-0.734354	0.129052	-0.654129
23433		9.729032	0.036900	-1.180265	0.001038	0.003029	-0.001756	-0.682617	-0.229736	0.675537	-0.127188	-0.734343	0.129109	-0.654137
23434		9.728490	0.034461	-1.157474	-0.001254	0.006732	-0.003672	-0.682129	-0.224609	0.673340	-0.127252	-0.734311	0.129186	-0.654145
23435		9.727947	0.032186	-1.134649	0.000386	0.003300	-0.003019	-0.686035	-0.225342	0.672363	-0.127251	-0.734302	0.129255	-0.654141
23436		9.766998	0.004773	-1.149880	0.009332	0.003552	-0.005182	-0.691406	-0.225342	0.674316	-0.127187	-0.734290	0.129232	-0.654172
23437		9.758536	0.033016	-1.127868	0.010788	0.002967	-0.009281	-0.689453	-0.225342	0.672363	-0.127128	-0.734279	0.129154	-0.654211
23438		9.744850	0.050396	-1.134562	0.010711	0.000084	-0.009015	-0.686279	-0.225586	0.672852	-0.127073	-0.734291	0.129089	-0.654221
23439		9.746984	0.043200	-1.131442	0.008219	-0.000663	-0.007763	-0.686768	-0.225098	0.670166	-0.127037	-0.734316	0.129060	-0.654205
23440		9.716534	0.046151	-1.136900	0.011118	-0.001624	-0.006546	-0.690674	-0.223145	0.676514	-0.126967	-0.734338	0.129025	-0.654201
23441		9.742479	0.028738	-1.147909	0.005624	-0.000985	-0.007128	-0.686523	-0.218262	0.668701	-0.126911	-0.734360	0.129008	-0.654191
23442		9.759200	0.035119	-1.115823	0.008048	0.000779	-0.006823	-0.688232	-0.221680	0.672119	-0.126822	-0.734353	0.128981	-0.654221
23443		9.754727	0.028425	-1.165681	0.007134	-0.000684	-0.007969	-0.690918	-0.232666	0.674072	-0.126766	-0.734366	0.128952	-0.654223
23444		9.725872	0.054703	-1.136657	0.007067	0.000335	-0.006415	-0.682617	-0.220459	0.669678	-0.126786	-0.734365	0.128958	-0.654220
23445		9.726593	0.049948	-1.124350	0.005743	-0.001117	-0.005423	-0.689209	-0.228760	0.670654	-0.126729	-0.734386	0.128972	-0.654204
23446		9.735245	0.059434	-1.136265	0.005677	-0.000097	-0.003870	-0.691162	-0.227539	0.668213	-0.126721	-0.734374	0.129015	-0.654211
23447		9.742424	0.036358	-1.148162	0.002899	0.000733	-0.003386	-0.687012	-0.229736	0.672119	-0.126728	-0.734332	0.129085	-0.654243
23448		9.763441	0.033399	-1.143439	0.000083	0.000967	-0.005071	-0.689941	-0.222900	0.684814	-0.126792	-0.734319	0.129163	-0.654230
23449		9.742479	0.038690	-1.147616	0.000958	0.001835	-0.006093	-0.682617	-0.229736	0.666504	-0.126756	-0.734346	0.129174	-0.654204
23450		9.743903	0.037095	-1.156778	0.009499	-0.001506	-0.006310	-0.688965	-0.225342	0.671631	-0.126761	-0.734362	0.129184	-0.654183
23451		9.730852	0.047705	-1.151761	0.004129	-0.000996	-0.005194	-0.676758	-0.228516	0.675781	-0.126745	-0.734363	0.129220	-0.654178
23452		9.728626	0.022502	-1.164349	0.006448	0.001195	-0.005507	-0.687988	-0.233398	0.672852	-0.126751	-0.734410	0.129239	-0.654120
23453		9.747467	0.029001	-1.162907	0.004882	-0.000002	-0.007915	-0.685059	-0.230713	0.668701	-0.126819	-0.734415	0.129262	-0.654097
23454		9.749650	0.057010	-1.150518	0.007866	-0.001683	-0.007164	-0.687500	-0.233887	0.677979	-0.126843	-0.734431	0.129276	-0.654072
23455		9.727879	0.024008	-1.143222	0.003131	-0.001739	-0.005870	-0.690918	-0.219971	0.675049	-0.126898	-0.734466	0.129329	-0.654011
23456		9.748849	0.021740	-1.138935	0.004330	-0.000162	-0.008561	-0.686523	-0.229492	0.666504	-0.126850	-0.734472	0.129312	-0.654017
23457		9.740112	0.014949	-1.127788	0.012629	-0.004935	-0.007570	-0.684082	-0.229492	0.675781	-0.126820	-0.734508	0.129289	-0.653987
23458		9.741379	0.048923	-1.129118	0.015574	-0.007215	-0.008982	-0.684326	-0.213623	0.670166	-0.126753	-0.734614	0.129219	-0.653894
23459		9.725185	0.048477	-1.183912	0.008410	-0.001530	-0.006512	-0.691650	-0.224365	0.669922	-0.126622	-0.734638	0.129188	-0.653900
23460		9.731817	0.014576	-1.140222	0.000240	0.001194	-0.010604	-0.686279	-0.224854	0.674561	-0.126683	-0.734603	0.129206	-0.653923
23461		9.739078	0.028581	-1.142447	0.001767	0.001794	-0.010361	-0.682373	-0.228271	0.665039	-0.126730	-0.734603	0.129211	-0.653913
23462		9.744096	0.051231	-1.148316	0.007290	-0.002147	-0.008886	-0.688232	-0.225830	0.676025	-0.126766	-0.734617	0.129221	-0.653889
23463		9.736819	0.041469	-1.146154	0.003023	-0.001321	-0.006480	-0.688965	-0.229004	0.665771	-0.126766	-0.734637	0.129255	-0.653860
23464		9.738229	0.039744	-1.155457	0.002873	0.000428	-0.004465	-0.687012	-0.222900	0.671631	-0.126801	-0.734595	0.129334	-0.653884
23465		9.724525	0.021045	-1.171339	0.000571	0.004120	-0.006389	-0.678467	-0.222900	0.671875	-0.126819	-0.734554	0.129381	-0.653918
23466		9.742038	0.031000	-1.159756	0.001851	0.004970	-0.009545	-0.685059	-0.226074	0.677734	-0.126867	-0.734544	0.129394	-0.653917
23467		9.744359	0.024252	-1.155419	-0.000103	0.004084	-0.008733	-0.690186	-0.216064	0.668457	-0.126925	-0.734536	0.129426	-0.653908
23468		9.753170	-0.000295	-1.175536	0.005158	0.003999	-0.010458	-0.687012	-0.218750	0.673096	-0.126876	-0.734490	0.129380	-0.653978
23469		9.748134	0.052556	-1.150193	0.007811	0.003293	-0.012634	-0.691406	-0.229492	0.667480	-0.126838	-0.734486	0.129296	-0.654007
23470		9.721440	0.044272	-1.160508	0.005383	0.003449	-0.008140	-0.688477	-0.220459	0.664062	-0.126880	-0.734430	0.129316	-0.654057
23471		9.725915	0.028407	-1.153404	0.006615	0.001717	-0.009942	-0.696289	-0.217529	0.672852	-0.126861	-0.734394	0.129290	-0.654107
23472		9.739645	0.050516	-1.136841	0.009155	-0.000543	-0.009217	-0.687744	-0.223145	0.669189	-0.126751	-0.734387	0.129221	-0.654150
23473		9.734668	0.032014	-1.130841	0.009323	0.001912	-0.008869	-0.690430	-0.226074	0.671875	-0.126712	-0.734373	0.129184	-0.654180
23474		9.751914	0.051035	-1.154522	0.012650	-0.002663	-0.009975	-0.679443	-0.216309	0.674561	-0.126658	-0.734405	0.129121	-0.654168
23475		9.725929	0.027346	-1.119877	0.010716	-0.003248	-0.008082	-0.685547	-0.228760	0.673340	-0.126536	-0.734484	0.129056	-0.654115
23476		9.726523	0.032533	-1.142080	0.009091	-0.001455	-0.012455	-0.685791	-0.221924	0.675293	-0.126566	-0.734523	0.129008	-0.654075
23477		9.744364	0.081554	-1.144280	0.006967	-0.000891	-0.010714	-0.687744	-0.229004	0.669434	-0.126540	-0.734559	0.128963	-0.654048
23478		9.726363	0.046139	-1.176398	0.003063	0.001245	-0.007821	-0.681641	-0.223389	0.676758	-0.126600	-0.734537	0.129012	-0.654052
23479		9.734590	0.009159	-1.141657	0.004969	-0.000448	-0.007276	-0.690918	-0.226318	0.673340	-0.126580	-0.734579	0.129019	-0.654007
23480		9.741570	0.057635	-1.135319	0.008381	-0.001840	-0.007569	-0.689697	-0.227783	0.675537	-0.126546	-0.734594	0.129012	-0.653998
23481		9.730761	0.033170	-1.170118	0.003081	0.001545	-0.006738	-0.683594	-0.230225	0.667969	-0.126569	-0.734584	0.129051	-0.653998
23482		9.735073	0.052220	-1.154069	0.002636	0.000961	-0.006768	-0.676270	-0.223145	0.667725	-0.126642	-0.734568	0.129125	-0.653986
23483		9.741826	0.027018	-1.143636	0.003142	0.004424	-0.007010	-0.681885	-0.229004	0.676270	-0.126673	-0.734551	0.129166	-0.653992
23484		9.743355	0.025820	-1.152080	0.002954	0.001663	-0.008433	-0.683594	-0.230225	0.673584	-0.126732	-0.734569	0.129200	-0.653953
23485		9.757713	0.050585	-1.157050	0.008546	0.000615	-0.007220	-0.686279	-0.222168	0.668945	-0.126739	-0.734588	0.129211	-0.653929
23486		9.741165	0.038078	-1.154900	0.003164	0.000817	-0.007200	-0.687256	-0.227295	0.674805	-0.126737	-0.734572	0.129243	-0.653940
23487		9.736248	0.019354	-1.148878	0.008525	0.000310	-0.008299	-0.693848	-0.228760	0.673584	-0.126721	-0.734588	0.129229	-0.653928
23488		9.740399	0.047446	-1.167061	0.008438	0.001035	-0.007833	-0.690918	-0.229980	0.670410	-0.126706	-0.734572	0.129223	-0.653951
23489		9.749765	0.051591	-1.166598	0.010093	-0.002389	-0.007164	-0.684814	-0.230957	0.673340	-0.126687	-0.734582	0.129228	-0.653942
23490		9.731703	0.042169	-1.155880	0.011384	-0.001246	-0.009232	-0.690674	-0.225586	0.669922	-0.126687	-0.734618	0.129206	-0.653906
23491		9.741843	0.040335	-1.143104	0.008414	-0.001240	-0.005396	-0.687988	-0.232422	0.673096	-0.126638	-0.734613	0.129225	-0.653917
23492		9.714312	0.036749	-1.166699	0.005320	0.000851	-0.006771	-0.687988	-0.220215	0.670654	-0.126685	-0.734606	0.129277	-0.653905
23493		9.730186	0.049680	-1.147068	0.003862	-0.000785	-0.008556	-0.682129	-0.223877	0.673096	-0.126665	-0.734608	0.129284	-0.653906
23494		9.763616	0.035572	-1.126358	0.008710	-0.000845	-0.008139	-0.689453	-0.236572	0.674805	-0.126631	-0.734643	0.129270	-0.653875
23495		9.752853	0.011258	-1.161359	0.007716	-0.001593	-0.008813	-0.686523	-0.231934	0.675781	-0.126695	-0.734663	0.129301	-0.653834
23496		9.720698	0.052832	-1.148269	0.004534	0.001222	-0.009726	-0.686523	-0.222412	0.678223	-0.126766	-0.734670	0.129329	-0.653807
23497		9.727870	0.066489	-1.150519	0.003917	0.002090	-0.008828	-0.687012	-0.227051	0.671631	-0.126759	-0.734678	0.129329	-0.653800
23498		9.743278	0.049778	-1.151947	0.006772	0.002484	-0.004981	-0.689697	-0.228027	0.668213	-0.126741	-0.734656	0.129366	-0.653821
23499		9.748151	-0.002005	-1.153854	0.003300	0.002956	-0.007931	-0.689697	-0.232910	0.677490	-0.126789	-0.734610	0.129411	-0.653855
23500		9.767454	0.034621	-1.130785	0.017176	-0.001176	-0.010280	-0.688477	-0.232178	0.674561	-0.126742	-0.734653	0.129334	-0.653830
23501		9.734717	0.046684	-1.139656	0.017260	-0.001906	-0.010739	-0.682373	-0.221191	0.667725	-0.126700	-0.734697	0.129256	-0.653804
23502		9.722900	0.063506	-1.177785	0.010052	0.001205	-0.006959	-0.686523	-0.231201	0.671387	-0.126637	-0.734696	0.129239	-0.653821
23503		9.732466	0.058838	-1.142705	0.008336	0.001745	-0.007354	-0.687744	-0.223389	0.669922	-0.126658	-0.734685	0.129264	-0.653824
23504		9.739985	0.036530	-1.153797	0.005367	0.003718	-0.007039	-0.686035	-0.228271	0.677490	-0.126647	-0.734647	0.129281	-0.653866
23505		9.749457	0.040144	-1.152411	0.007442	0.002529	-0.002635	-0.691895	-0.227539	0.673584	-0.126608	-0.734644	0.129338	-0.653866
23506		9.742420	0.028984	-1.149030	0.005746	0.003376	-0.001953	-0.682373	-0.228516	0.674805	-0.126571	-0.734600	0.129408	-0.653908
23507		9.718550	0.039591	-1.134423	0.001176	0.003516	-0.006197	-0.684326	-0.225586	0.668945	-0.126635	-0.734587	0.129492	-0.653894
23508		9.736279	0.013842	-1.132349	0.005136	0.002291	-0.005834	-0.681152	-0.224365	0.673828	-0.126639	-0.734565	0.129540	-0.653908
23509		9.747600	0.044294	-1.119159	0.011408	-0.000653	-0.007045	-0.683105	-0.224121	0.670410	-0.126581	-0.734605	0.129525	-0.653877
23510		9.751970	0.036474	-1.146850	0.009376	-0.000810	-0.005777	-0.690430	-0.227783	0.675049	-0.126530	-0.734624	0.129539	-0.653863
23511		9.741115	0.038194	-1.138319	0.005308	0.000834	-0.006756	-0.687988	-0.230225	0.667236	-0.126537	-0.734617	0.129576	-0.653862
23512		9.717822	0.052224	-1.145971	0.002091	0.001076	-0.006319	-0.677734	-0.229248	0.668457	-0.126603	-0.734584	0.129665	-0.653869
23513		9.726163	0.023969	-1.144725	0.000731	0.002927	-0.006225	-0.691162	-0.211914	0.676514	-0.126693	-0.734567	0.129770	-0.653850
23514		9.737094	0.025275	-1.152548	0.002211	0.002918	-0.008137	-0.687744	-0.229004	0.675781	-0.126620	-0.734549	0.129748	-0.653889
23515		9.751396	0.049953	-1.157086	0.000113	0.003797	-0.005331	-0.688232	-0.224854	0.665039	-0.126679	-0.734517	0.129845	-0.653894
23516		9.734188	0.042801	-1.166767	-0.000114	0.002373	-0.004128	-0.689209	-0.225098	0.668213	-0.126711	-0.734462	0.129949	-0.653929
23517		9.739902	0.058355	-1.159543	-0.000839	0.003662	-0.003851	-0.681152	-0.231934	0.667480	-0.126745	-0.734402	0.130056	-0.653969
23518		9.735984	0.032881	-1.140191	-0.004478	0.003627	-0.002367	-0.684082	-0.220215	0.668945	-0.126865	-0.734353	0.130247	-0.653962
23519		9.739153	0.018751	-1.123657	-0.003204	0.002503	-0.001999	-0.690674	-0.227051	0.666504	-0.126873	-0.734315	0.130376	-0.653977
23520		9.750095	0.019088	-1.131432	0.000240	0.003684	-0.003635	-0.679688	-0.224854	0.669678	-0.126908	-0.734248	0.130484	-0.654024
23521		9.737733	0.032060	-1.146970	0.002927	0.003586	-0.003639	-0.682617	-0.224121	0.684082	-0.126916	-0.734228	0.130572	-0.654027
23522		9.733013	0.012632	-1.140118	0.004407	0.003577	-0.005549	-0.683105	-0.235352	0.669434	-0.126897	-0.734251	0.130609	-0.653998
23523		9.724127	0.040854	-1.118245	0.002054	0.004678	-0.006131	-0.687744	-0.227783	0.674805	-0.127008	-0.734211	0.130722	-0.653999
23524		9.751857	0.029098	-1.171135	0.006867	0.002056	-0.004349	-0.687012	-0.224121	0.674316	-0.126984	-0.734204	0.130771	-0.654002
23525		9.758329	0.038461	-1.151685	0.006994	0.001944	-0.002655	-0.693359	-0.220215	0.673828	-0.126921	-0.734197	0.130822	-0.654012
23526		9.745713	0.012863	-1.154707	0.000699	0.004575	-0.002527	-0.688232	-0.234375	0.667236	-0.126880	-0.734141	0.130897	-0.654068
23527		9.715796	0.043988	-1.137252	-0.001546	0.005256	-0.002495	-0.684570	-0.229492	0.670898	-0.126982	-0.734065	0.131063	-0.654100
23528		9.724243	0.014835	-1.135495	0.003140	0.002746	-0.002405	-0.685791	-0.234131	0.671875	-0.127001	-0.734041	0.131176	-0.654100
23529		9.744572	0.017827	-1.142607	0.000767	0.003538	-0.004066	-0.691895	-0.229980	0.676758	-0.127087	-0.734008	0.131311	-0.654094
23530		9.772557	-0.011057	-1.127261	0.003288	0.002934	-0.007915	-0.688477	-0.230469	0.677002	-0.127135	-0.733989	0.131361	-0.654095
23531		9.737631	0.009585	-1.138607	0.004543	0.001502	-0.008622	-0.678955	-0.223389	0.667236	-0.127182	-0.733996	0.131404	-0.654070
23532		9.727128	0.041543	-1.108325	0.004630	0.000774	-0.009083	-0.687500	-0.230469	0.668457	-0.127207	-0.734008	0.131430	-0.654047
23533		9.708264	0.046714	-1.143665	0.009689	-0.000115	-0.007421	-0.682861	-0.225830	0.666260	-0.127204	-0.734011	0.131449	-0.654040
23534		9.731493	0.044450	-1.169729	0.006276	0.001269	-0.007143	-0.688965	-0.229004	0.677734	-0.127209	-0.734004	0.131484	-0.654040
23535		9.764356	0.027398	-1.126651	0.003079	0.001818	-0.005634	-0.683105	-0.227783	0.668945	-0.127235	-0.734002	0.131559	-0.654022
23536		9.737779	0.017490	-1.137246	0.002568	0.002270	-0.004126	-0.683838	-0.231201	0.668945	-0.127262	-0.733982	0.131657	-0.654019
23537		9.738615	0.012401	-1.124465	0.004588	0.000168	-0.002955	-0.683838	-0.228760	0.673828	-0.127280	-0.733979	0.131767	-0.653997
23538		9.729236	0.010762	-1.125144	0.007108	-0.000439	-0.006801	-0.686768	-0.230957	0.665039	-0.127285	-0.734005	0.131811	-0.653958
23539		9.723827	0.035665	-1.144357	0.008205	-0.000107	-0.005508	-0.682617	-0.229492	0.678955	-0.127287	-0.733995	0.131863	-0.653959
23540		9.753221	0.003460	-1.139221	0.008598	-0.002399	-0.005197	-0.683105	-0.226562	0.667969	-0.127265	-0.734054	0.131918	-0.653885
23541		9.760249	0.016339	-1.142279	0.006557	-0.000609	-0.007444	-0.687012	-0.227295	0.667236	-0.127270	-0.734067	0.131953	-0.653862
23542		9.747047	0.027125	-1.137368	0.007302	-0.001589	-0.006642	-0.689941	-0.222168	0.666260	-0.127259	-0.734075	0.131989	-0.653848
23543		9.747760	0.022512	-1.125680	0.011126	-0.004956	-0.005529	-0.691895	-0.225830	0.671875	-0.127158	-0.734107	0.131982	-0.653834
23544		9.722467	0.009499	-1.147294	0.020856	-0.006406	-0.007275	-0.687988	-0.225098	0.662842	-0.126999	-0.734177	0.131895	-0.653803
23545		9.731781	0.051550	-1.161055	0.015151	-0.007218	-0.006687	-0.683105	-0.223877	0.666260	-0.126896	-0.734228	0.131867	-0.653771
23546		9.754042	0.007993	-1.154048	0.005358	-0.002477	-0.005837	-0.687012	-0.229248	0.668457	-0.126882	-0.734246	0.131921	-0.653744
23547		9.744909	0.036321	-1.133580	-0.000406	0.000007	-0.006151	-0.683838	-0.230469	0.667236	-0.126959	-0.734228	0.132035	-0.653726
23548		9.734722	0.040962	-1.146636	0.000034	0.000591	-0.006121	-0.692871	-0.222412	0.672363	-0.127046	-0.734211	0.132155	-0.653704
23549		9.736769	0.003679	-1.164642	0.003485	-0.000172	-0.004242	-0.689941	-0.232666	0.674561	-0.127007	-0.734197	0.132212	-0.653716
23550		9.762733	0.013137	-1.131774	0.006283	0.001567	-0.006059	-0.682129	-0.223145	0.678223	-0.127037	-0.734186	0.132280	-0.653709
23551		9.731572	0.021031	-1.148792	0.001617	0.004385	-0.005082	-0.688965	-0.221191	0.666260	-0.127050	-0.734176	0.132357	-0.653702
23552		9.722469	0.011060	-1.114242	0.002674	0.004097	-0.005942	-0.685059	-0.222900	0.672119	-0.127042	-0.734122	0.132399	-0.653755
23553		9.735627	0.011942	-1.152500	0.004591	0.004667	-0.007817	-0.690430	-0.224609	0.672119	-0.127048	-0.734096	0.132421	-0.653779
23554		9.736671	0.045960	-1.151633	0.000958	0.004633	-0.006343	-0.686768	-0.228760	0.673340	-0.127079	-0.734048	0.132487	-0.653814
23555		9.760794	-0.000165	-1.151150	-0.002672	0.006850	-0.007303	-0.687256	-0.225342	0.672363	-0.127188	-0.733989	0.132594	-0.653837
23556		9.754985	0.014144	-1.112847	-0.004408	0.007073	-0.008779	-0.686035	-0.226562	0.670654	-0.127300	-0.733926	0.132685	-0.653867
23557		9.731782	0.028591	-1.119284	-0.001946	0.005559	-0.007574	-0.687500	-0.229248	0.677734	-0.127388	-0.733876	0.132775	-0.653888
23558		9.739565	0.006782	-1.129757	0.001975	0.003720	-0.009349	-0.686279	-0.226807	0.671875	-0.127461	-0.733865	0.132829	-0.653875
23559		9.746667	0.020541	-1.131899	0.008798	0.000954	-0.009888	-0.678223	-0.221924	0.666992	-0.127461	-0.733877	0.132818	-0.653864
23560		9.743533	-0.001025	-1.134386	0.006832	0.003985	-0.007836	-0.686768	-0.226562	0.681396	-0.127449	-0.733866	0.132825	-0.653877
23561		9.744457	-0.004689	-1.120972	0.007740	0.003488	-0.011459	-0.683838	-0.218018	0.672119	-0.127466	-0.733882	0.132800	-0.653861
23562		9.741549	0.042053	-1.114784	0.007519	0.002069	-0.010256	-0.691406	-0.222168	0.671143	-0.127426	-0.733893	0.132757	-0.653865
23563		9.735229	0.035417	-1.133500	0.008993	-0.000196	-0.009725	-0.690918	-0.225830	0.672119	-0.127381	-0.733901	0.132719	-0.653873
23564		9.726594	0.037242	-1.155446	0.005969	0.003124	-0.006818	-0.688721	-0.230225	0.677490	-0.127372	-0.733874	0.132745	-0.653899
23565		9.734371	0.015120	-1.166337	0.005929	0.002497	-0.008966	-0.687256	-0.220703	0.673828	-0.127408	-0.733875	0.132773	-0.653885
23566		9.753381	0.043612	-1.109297	0.008572	-0.000471	-0.008677	-0.691162	-0.230225	0.673828	-0.127354	-0.733901	0.132747	-0.653872
23567		9.747049	0.036194	-1.128219	0.008101	0.000612	-0.005024	-0.687744	-0.233398	0.666992	-0.127333	-0.733898	0.132794	-0.653869
23568		9.736075	0.008034	-1.140782	0.004669	0.001679	-0.005831	-0.691406	-0.227783	0.666748	-0.127384	-0.733872	0.132881	-0.653871
23569		9.736956	0.003729	-1.127779	0.004978	0.002365	-0.007490	-0.688965	-0.229736	0.664307	-0.127404	-0.733836	0.132920	-0.653900
23570		9.731579	0.020456	-1.112809	0.006196	-0.001942	-0.007905	-0.692871	-0.223389	0.669922	-0.127427	-0.733837	0.132965	-0.653885
23571		9.761839	0.030295	-1.141853	0.009844	0.000651	-0.010729	-0.688232	-0.237549	0.671875	-0.127393	-0.733834	0.132915	-0.653905
23572		9.754858	0.020734	-1.138829	0.004537	0.001778	-0.007518	-0.684326	-0.227783	0.675293	-0.127481	-0.733821	0.133005	-0.653885
23573		9.737833	0.005699	-1.114792	0.004058	0.000563	-0.009694	-0.687500	-0.226807	0.668945	-0.127528	-0.733841	0.133040	-0.653846
23574		9.745542	0.022399	-1.139050	0.006610	0.000570	-0.011376	-0.684570	-0.226807	0.663818	-0.127559	-0.733844	0.133032	-0.653838
23575		9.740140	0.039840	-1.124105	-0.001636	-0.000255	-0.009119	-0.685059	-0.231689	0.668945	-0.127652	-0.733831	0.133118	-0.653817
23576		9.733057	0.001133	-1.142738	0.004545	-0.000213	-0.012266	-0.688721	-0.225342	0.675049	-0.127741	-0.733844	0.133144	-0.653780
23577		9.747897	0.021613	-1.135527	0.004650	0.001614	-0.014080	-0.690430	-0.234863	0.666504	-0.127795	-0.733853	0.133114	-0.653765
23578		9.736228	0.060180	-1.118217	0.007028	-0.001406	-0.009982	-0.692383	-0.225830	0.670166	-0.127853	-0.733855	0.133150	-0.653744
23579		9.733791	0.041418	-1.143037	0.004712	0.000314	-0.008427	-0.689209	-0.223633	0.670654	-0.127858	-0.733845	0.133171	-0.653750
23580		9.731510	0.014198	-1.133714	0.003379	-0.001759	-0.009589	-0.686768	-0.224121	0.669678	-0.127871	-0.733861	0.133190	-0.653726
23581		9.743869	0.042531	-1.130692	0.007449	-0.003381	-0.008591	-0.687744	-0.228760	0.670410	-0.127843	-0.733897	0.133192	-0.653690
23582		9.745946	0.043709	-1.162571	0.012707	-0.005390	-0.006759	-0.687500	-0.224365	0.674561	-0.127777	-0.733954	0.133192	-0.653640
23583		9.737465	-0.001718	-1.138726	0.004826	-0.002346	-0.005378	-0.689453	-0.232910	0.665039	-0.127747	-0.733982	0.133242	-0.653604
23584		9.742868	0.014448	-1.132726	0.005986	-0.000808	-0.008048	-0.687988	-0.224609	0.676270	-0.127789	-0.733972	0.133297	-0.653595
23585		9.739640	0.030980	-1.148635	0.002990	0.000839	-0.008828	-0.682129	-0.226562	0.668457	-0.127809	-0.733980	0.133327	-0.653576
23586		9.759163	0.032721	-1.134993	0.004034	-0.002008	-0.008323	-0.694336	-0.231201	0.680908	-0.127836	-0.734005	0.133374	-0.653533
23587		9.756011	0.011263	-1.138716	0.009558	-0.003965	-0.010293	-0.687988	-0.226318	0.675781	-0.127829	-0.734060	0.133365	-0.653475
23588		9.742510	0.031229	-1.168292	0.008838	-0.000122	-0.011382	-0.692383	-0.230957	0.670166	-0.127826	-0.734086	0.133333	-0.653453
23589		9.722281	0.031306	-1.160420	0.005627	0.000111	-0.010961	-0.689209	-0.230225	0.673340	-0.127875	-0.734079	0.133347	-0.653448
23590		9.744196	0.024771	-1.143349	0.011607	-0.000944	-0.011827	-0.696533	-0.233643	0.669922	-0.127872	-0.734108	0.133306	-0.653425
23591		9.752009	0.003527	-1.155011	0.011493	-0.000533	-0.012439	-0.693604	-0.223389	0.672852	-0.127888	-0.734107	0.133268	-0.653431
23592		9.734852	0.027637	-1.143845	0.006465	0.003196	-0.014400	-0.686768	-0.216309	0.677002	-0.127912	-0.734087	0.133203	-0.653461
23593		9.739476	0.051326	-1.149297	0.006575	0.002782	-0.013783	-0.689453	-0.225830	0.670410	-0.127892	-0.734099	0.133117	-0.653469
23594		9.755153	0.065915	-1.129098	0.008331	0.002887	-0.011232	-0.690186	-0.227783	0.665283	-0.127895	-0.734083	0.133082	-0.653494
23595		9.714809	0.033634	-1.134250	0.006809	-0.000284	-0.010117	-0.690430	-0.231445	0.665771	-0.127911	-0.734074	0.133086	-0.653500
23596		9.748346	0.029393	-1.146811	0.010256	0.003766	-0.012023	-0.682373	-0.230469	0.671143	-0.127940	-0.734040	0.133054	-0.653539
23597		9.736593	0.067768	-1.128883	0.004683	0.002528	-0.010840	-0.693359	-0.227539	0.668701	-0.128008	-0.734038	0.133080	-0.653523
23598		9.736056	0.037704	-1.127944	0.002339	0.001378	-0.009004	-0.687256	-0.220703	0.672607	-0.128050	-0.734008	0.133122	-0.653539
23599		9.728256	0.033768	-1.137666	0.009183	-0.001054	-0.008445	-0.686523	-0.224365	0.668457	-0.127984	-0.734034	0.133088	-0.653530
23600		9.737535	0.038420	-1.137480	0.010442	-0.002489	-0.009136	-0.684570	-0.225098	0.668213	-0.127936	-0.734065	0.133060	-0.653511
23601		9.739723	0.039942	-1.168409	0.009187	0.001496	-0.009803	-0.689209	-0.226562	0.673340	-0.127919	-0.734066	0.133035	-0.653518
23602		9.757773	0.045036	-1.145003	0.003207	0.002544	-0.008942	-0.694580	-0.222656	0.663818	-0.127951	-0.734048	0.133065	-0.653525
23603		9.738486	0.039103	-1.124038	0.005317	0.001963	-0.010645	-0.680420	-0.232910	0.668945	-0.127955	-0.734008	0.133048	-0.653574
23604		9.744032	0.026760	-1.138478	0.005274	0.001322	-0.012783	-0.692871	-0.223633	0.675049	-0.128049	-0.734018	0.133067	-0.653540
23605		9.743700	0.067400	-1.151251	0.007144	0.001022	-0.009619	-0.688721	-0.226074	0.675537	-0.128024	-0.734018	0.133043	-0.653550
23606		9.732295	0.037371	-1.142233	0.012271	-0.000880	-0.009464	-0.687256	-0.229492	0.673584	-0.127967	-0.734051	0.132995	-0.653534
23607		9.740033	0.045263	-1.132809	0.006590	-0.001708	-0.008899	-0.681641	-0.227051	0.668945	-0.127979	-0.734078	0.133019	-0.653496
23608		9.746376	0.026538	-1.135539	0.008719	-0.001970	-0.009530	-0.688965	-0.227539	0.669434	-0.127972	-0.734113	0.133016	-0.653458
23609		9.735061	0.066928	-1.140435	0.007458	-0.000538	-0.008839	-0.682617	-0.225098	0.665527	-0.127968	-0.734118	0.133025	-0.653452
23610		9.730569	0.048625	-1.134316	0.005720	-0.000334	-0.010315	-0.687988	-0.224609	0.671143	-0.127988	-0.734127	0.133029	-0.653437
23611		9.732992	0.041982	-1.130903	0.003609	0.000247	-0.008614	-0.690918	-0.231689	0.666504	-0.128001	-0.734126	0.133055	-0.653431
23612		9.749844	0.060868	-1.154969	0.004569	-0.001863	-0.007647	-0.688477	-0.223877	0.672852	-0.128037	-0.734122	0.133121	-0.653414
23613		9.756207	0.041936	-1.157684	0.009264	-0.001798	-0.008880	-0.687500	-0.225830	0.671631	-0.127989	-0.734150	0.133096	-0.653397
23614		9.725077	0.041547	-1.141611	0.004362	-0.000722	-0.007807	-0.690918	-0.224609	0.674561	-0.127995	-0.734159	0.133130	-0.653379
23615		9.717289	0.037639	-1.151384	0.002944	0.000478	-0.009869	-0.693604	-0.225586	0.671387	-0.128018	-0.734158	0.133145	-0.653373
23616		9.768813	0.036486	-1.141326	0.004546	0.000362	-0.010074	-0.681152	-0.223389	0.672363	-0.128034	-0.734147	0.133151	-0.653380
23617		9.768569	0.068414	-1.120276	0.011732	-0.000742	-0.009023	-0.683350	-0.234375	0.677979	-0.127972	-0.734186	0.133104	-0.653358
23618		9.748321	0.045815	-1.167992	0.006211	-0.001338	-0.005711	-0.683350	-0.229980	0.671387	-0.127990	-0.734221	0.133178	-0.653301
23619		9.701713	0.033153	-1.170895	0.003211	0.002847	-0.007862	-0.686279	-0.232178	0.671631	-0.128040	-0.734205	0.133237	-0.653297
23620		9.738629	0.035886	-1.112109	0.007634	0.000537	-0.011096	-0.694092	-0.226807	0.666748	-0.128081	-0.734214	0.133242	-0.653277
23621		9.754563	0.061011	-1.148617	0.013722	-0.000920	-0.011330	-0.689697	-0.224609	0.668213	-0.128032	-0.734218	0.133173	-0.653297
23622		9.765047	0.030910	-1.156406	0.007836	0.001939	-0.012294	-0.686279	-0.228760	0.672852	-0.128039	-0.734205	0.133130	-0.653319
23623		9.755491	0.060863	-1.135529	0.006738	0.001583	-0.013579	-0.680664	-0.230225	0.673096	-0.128090	-0.734212	0.133101	-0.653307
23624		9.730390	0.078600	-1.134170	0.005406	0.001523	-0.010007	-0.685547	-0.229492	0.672119	-0.128136	-0.734224	0.133124	-0.653280
23625		9.716062	0.033337	-1.162028	0.004219	-0.000648	-0.009477	-0.684326	-0.235352	0.673096	-0.128178	-0.734238	0.133160	-0.653249
23626		9.743331	0.041772	-1.138700	0.008888	-0.000906	-0.011772	-0.689453	-0.229004	0.668945	-0.128227	-0.734269	0.133164	-0.653204
23627		9.765592	0.067775	-1.122863	0.014019	-0.005348	-0.010243	-0.688477	-0.228271	0.672363	-0.128172	-0.734322	0.133118	-0.653164
23628		9.745294	0.045481	-1.171455	0.018635	-0.004228	-0.009948	-0.677979	-0.224121	0.683350	-0.128068	-0.734383	0.133031	-0.653134
23629		9.735211	0.042480	-1.151274	0.017075	-0.002953	-0.013690	-0.687988	-0.231201	0.667480	-0.127990	-0.734485	0.132896	-0.653061
23630		9.732298	0.084009	-1.134523	0.015038	-0.003430	-0.013510	-0.689697	-0.226807	0.670654	-0.127972	-0.734527	0.132823	-0.653032
23631		9.725064	0.082788	-1.166810	0.011696	-0.003632	-0.008699	-0.685547	-0.220947	0.675537	-0.127917	-0.734562	0.132798	-0.653009
23632		9.728056	0.037589	-1.150873	0.006388	-0.002819	-0.006597	-0.683838	-0.232910	0.671143	-0.127861	-0.734600	0.132805	-0.652976
23633		9.744723	0.078117	-1.119995	0.006358	-0.000600	-0.009028	-0.687744	-0.231689	0.675293	-0.127902	-0.734613	0.132847	-0.652945
23634		9.725124	0.079369	-1.134089	0.005378	-0.001875	-0.003617	-0.688965	-0.227295	0.665527	-0.127892	-0.734627	0.132936	-0.652912
23635		9.729512	0.079149	-1.195706	0.005550	0.001747	-0.007250	-0.689209	-0.223145	0.662354	-0.127899	-0.734595	0.132974	-0.652940
23636		9.725825	0.022016	-1.175951	0.000345	-0.000717	-0.004236	-0.683838	-0.224609	0.682129	-0.127904	-0.734563	0.133069	-0.652956
23637		9.752091	0.056681	-1.110118	0.007915	-0.001875	-0.005279	-0.677979	-0.224365	0.668701	-0.127842	-0.734610	0.133085	-0.652911
23638		9.729410	0.042259	-1.161465	0.010019	-0.002463	-0.006970	-0.688965	-0.225098	0.675537	-0.127789	-0.734650	0.133083	-0.652877
23639		9.736183	0.055659	-1.164658	0.005712	-0.000051	-0.009215	-0.685303	-0.226562	0.669434	-0.127788	-0.734659	0.133086	-0.652867
23640		9.739629	0.043513	-1.148321	0.007303	0.002378	-0.010783	-0.685303	-0.234375	0.669678	-0.127805	-0.734646	0.133071	-0.652880
23641		9.729029	0.078210	-1.140271	0.004249	-0.000019	-0.007330	-0.688477	-0.222900	0.679443	-0.127861	-0.734641	0.133153	-0.652858
23642		9.742416	0.070871	-1.145072	0.000196	0.001904	-0.007280	-0.685791	-0.232666	0.669922	-0.127882	-0.734633	0.133201	-0.652854
23643		9.717689	0.057490	-1.164431	0.001082	0.003405	-0.006159	-0.684814	-0.233643	0.677002	-0.127953	-0.734593	0.133304	-0.652864
23644		9.738895	0.056133	-1.158939	-0.003216	0.003272	-0.007039	-0.679932	-0.224121	0.676514	-0.128068	-0.734567	0.133432	-0.652845
23645		9.749234	0.055453	-1.144819	-0.001964	0.004379	-0.009085	-0.688232	-0.219971	0.676025	-0.128143	-0.734549	0.133485	-0.652839
23646		9.742521	0.045708	-1.141080	0.001175	0.002670	-0.006608	-0.687744	-0.222900	0.670410	-0.128136	-0.734529	0.133518	-0.652856
23647		9.739164	0.061655	-1.156396	-0.001595	0.003484	-0.006175	-0.691162	-0.227051	0.676270	-0.128173	-0.734485	0.133595	-0.652883
23648		9.728364	0.063437	-1.147127	0.000648	0.002816	-0.006184	-0.691406	-0.223877	0.674805	-0.128204	-0.734455	0.133666	-0.652896
23649		9.726351	0.043738	-1.170987	-0.002342	0.001900	-0.005615	-0.689209	-0.229248	0.675781	-0.128239	-0.734424	0.133755	-0.652906
23650		9.738467	0.071745	-1.166743	0.003858	0.005460	-0.006888	-0.692383	-0.227051	0.674805	-0.128263	-0.734382	0.133798	-0.652939
23651		9.728468	0.035703	-1.143580	-0.002566	0.005583	-0.007144	-0.686279	-0.229004	0.665527	-0.128335	-0.734321	0.133883	-0.652976
23652		9.756512	0.046373	-1.140569	0.003382	0.004217	-0.009044	-0.680664	-0.218994	0.672363	-0.128389	-0.734276	0.133924	-0.653008
23653		9.747971	0.048021	-1.161827	0.001781	0.004329	-0.008841	-0.686768	-0.224609	0.666504	-0.128399	-0.734257	0.133926	-0.653027
23654		9.744899	0.056304	-1.142739	0.001582	0.002927	-0.007640	-0.685791	-0.233643	0.677490	-0.128430	-0.734221	0.133975	-0.653052
23655		9.718184	0.076307	-1.131853	0.003380	0.004215	-0.009041	-0.685791	-0.230225	0.673096	-0.128495	-0.734203	0.134020	-0.653049
23656		9.728695	0.053748	-1.173206	0.004446	0.001379	-0.008520	-0.685303	-0.227539	0.673584	-0.128527	-0.734201	0.134055	-0.653038
23657		9.746026	0.056460	-1.128194	0.009173	0.002105	-0.007608	-0.685547	-0.225098	0.670410	-0.128495	-0.734202	0.134046	-0.653045
23658		9.738352	0.051696	-1.137505	0.005795	0.001256	-0.004940	-0.690186	-0.231445	0.678955	-0.128462	-0.734193	0.134084	-0.653054
23659		9.739950	0.049590	-1.146479	0.008133	-0.000144	-0.005398	-0.686279	-0.230469	0.672607	-0.128430	-0.734207	0.134118	-0.653037
23660		9.704491	0.068518	-1.158652	0.002434	0.001228	-0.007280	-0.683838	-0.230957	0.672363	-0.128472	-0.734199	0.134184	-0.653025
23661		9.761123	0.049784	-1.141196	0.000621	0.002480	-0.007243	-0.689209	-0.223145	0.664551	-0.128537	-0.734182	0.134264	-0.653015
23662		9.743508	0.040151	-1.129336	0.003916	0.001521	-0.008094	-0.681641	-0.229004	0.676025	-0.128541	-0.734153	0.134288	-0.653042
23663		9.739148	0.061875	-1.157627	0.004464	0.001702	-0.007451	-0.682129	-0.222656	0.672363	-0.128557	-0.734162	0.134321	-0.653021
23664		9.731747	0.049547	-1.132749	0.005085	0.000820	-0.008321	-0.686768	-0.231934	0.680176	-0.128543	-0.734174	0.134321	-0.653011
23665		9.737842	0.060478	-1.113986	0.006605	-0.001097	-0.006706	-0.687256	-0.228516	0.672363	-0.128536	-0.734205	0.134355	-0.652970
23666		9.735001	0.078593	-1.151940	0.005983	-0.000216	-0.005835	-0.690918	-0.235352	0.679688	-0.128521	-0.734210	0.134397	-0.652959
23667		9.744187	0.050630	-1.150515	0.003600	0.000523	-0.007505	-0.682373	-0.231201	0.674072	-0.128566	-0.734214	0.134461	-0.652932
23668		9.751815	0.026227	-1.139738	0.005395	0.001810	-0.008904	-0.691406	-0.228760	0.674805	-0.128598	-0.734220	0.134485	-0.652915
23669		9.737566	0.075298	-1.147815	0.006016	0.000927	-0.009774	-0.684326	-0.218262	0.668213	-0.128612	-0.734218	0.134487	-0.652913
23670		9.740151	0.068214	-1.143808	0.000134	0.003278	-0.004692	-0.682861	-0.229248	0.669922	-0.128601	-0.734182	0.134544	-0.652944
23671		9.734422	0.052244	-1.127520	0.002668	0.003278	-0.006348	-0.691162	-0.229980	0.671143	-0.128633	-0.734158	0.134608	-0.652953
23672		9.729393	0.071383	-1.134000	0.002955	0.001073	-0.007694	-0.691895	-0.231445	0.665283	-0.128668	-0.734139	0.134664	-0.652955
23673		9.738403	0.051458	-1.166231	0.000445	0.004270	-0.005277	-0.683594	-0.232178	0.670166	-0.128725	-0.734072	0.134771	-0.652996
23674		9.750559	0.039185	-1.127416	0.005938	-0.000878	-0.007956	-0.689209	-0.220215	0.674072	-0.128746	-0.734089	0.134811	-0.652965
23675		9.756333	0.057977	-1.143111	0.012379	-0.000662	-0.006626	-0.682861	-0.234619	0.674072	-0.128632	-0.734111	0.134756	-0.652974
23676		9.727503	0.056162	-1.157590	0.007869	0.000332	-0.007676	-0.684570	-0.224121	0.671631	-0.128643	-0.734130	0.134785	-0.652945
23677		9.756330	0.061229	-1.142969	0.004434	0.001362	-0.008505	-0.689209	-0.225830	0.674316	-0.128646	-0.734129	0.134794	-0.652944
23678		9.738722	0.051543	-1.131268	0.003500	0.001251	-0.007049	-0.685791	-0.234375	0.669434	-0.128648	-0.734121	0.134828	-0.652946
23679		9.724994	0.070032	-1.160485	0.002758	-0.000331	-0.006490	-0.687500	-0.227295	0.680176	-0.128698	-0.734118	0.134917	-0.652920
23680		9.722437	0.048141	-1.162888	0.002619	0.002611	-0.008469	-0.687256	-0.229004	0.674072	-0.128724	-0.734116	0.134939	-0.652913
23681		9.734585	0.036396	-1.124231	0.006342	-0.000626	-0.008983	-0.689453	-0.229492	0.676270	-0.128728	-0.734134	0.134947	-0.652890
23682		9.756361	0.038146	-1.141250	0.011857	0.000291	-0.011198	-0.687500	-0.229248	0.674561	-0.128701	-0.734157	0.134888	-0.652882
23683		9.742891	0.049935	-1.136320	0.007519	-0.000521	-0.014207	-0.687500	-0.226318	0.672363	-0.128738	-0.734185	0.134839	-0.652853
23684		9.738685	0.065191	-1.130881	0.012196	-0.000451	-0.015413	-0.687012	-0.226074	0.678467	-0.128731	-0.734218	0.134731	-0.652840
23685		9.733192	0.061498	-1.171903	0.013912	-0.003836	-0.014690	-0.689453	-0.233887	0.668945	-0.128689	-0.734293	0.134612	-0.652788
23686		9.729170	0.068995	-1.133072	0.021213	-0.004504	-0.017992	-0.682129	-0.224365	0.671387	-0.128651	-0.734365	0.134450	-0.652748
23687		9.747652	0.046403	-1.131882	0.018750	-0.002710	-0.018149	-0.689941	-0.224609	0.673828	-0.128597	-0.734439	0.134261	-0.652715
23688		9.743985	0.096724	-1.149273	0.009939	0.000193	-0.015396	-0.697266	-0.222412	0.667725	-0.128602	-0.734459	0.134164	-0.652711
23689		9.727959	0.085343	-1.147063	0.008149	-0.001094	-0.013996	-0.683350	-0.237305	0.671143	-0.128605	-0.734457	0.134102	-0.652726
23690		9.722764	0.105484	-1.154159	0.004396	0.001009	-0.009551	-0.680664	-0.227295	0.672363	-0.128678	-0.734457	0.134154	-0.652701
23691		9.732138	0.077969	-1.152452	0.005729	0.000574	-0.007040	-0.677979	-0.231689	0.680176	-0.128670	-0.734468	0.134176	-0.652685
23692		9.739831	0.085639	-1.142398	0.004889	0.002597	-0.006340	-0.685791	-0.228516	0.674805	-0.128679	-0.734481	0.134210	-0.652661
23693		9.760166	0.057451	-1.148740	0.006487	0.002487	-0.006537	-0.689209	-0.225586	0.665771	-0.128665	-0.734472	0.134230	-0.652671
23694		9.747364	0.070053	-1.165139	0.010543	0.000577	-0.006566	-0.685059	-0.235596	0.669922	-0.128607	-0.734459	0.134225	-0.652697
23695		9.732283	0.083759	-1.150822	0.005916	0.001964	-0.008237	-0.685059	-0.234131	0.672607	-0.128650	-0.734446	0.134271	-0.652694
23696		9.740124	0.059483	-1.139515	0.005053	0.003653	-0.008599	-0.691895	-0.231689	0.668213	-0.128696	-0.734424	0.134307	-0.652702
23697		9.739188	0.066755	-1.151735	0.008494	-0.000239	-0.007454	-0.677246	-0.229004	0.674316	-0.128687	-0.734416	0.134332	-0.652708
23698		9.739196	0.068381	-1.151572	0.004436	0.001669	-0.007424	-0.695068	-0.235107	0.675049	-0.128702	-0.734427	0.134360	-0.652686
23699		9.743636	0.082574	-1.123333	0.007653	0.001784	-0.006755	-0.684570	-0.232666	0.671387	-0.128705	-0.734407	0.134400	-0.652701
23700		9.753709	0.056759	-1.143338	0.006084	-0.000639	-0.005190	-0.686768	-0.228516	0.672119	-0.128702	-0.734415	0.134461	-0.652680
23701		9.727327	0.078367	-1.155429	0.009639	-0.001275	-0.008733	-0.686523	-0.221680	0.677002	-0.128673	-0.734438	0.134445	-0.652663
23702		9.746133	0.078425	-1.120343	0.006661	-0.002196	-0.008172	-0.686768	-0.224365	0.670410	-0.128630	-0.734474	0.134426	-0.652635
23703		9.743151	0.096562	-1.158517	0.006367	0.000014	-0.006834	-0.685547	-0.221924	0.670410	-0.128602	-0.734474	0.134440	-0.652637
23704		9.720531	0.071703	-1.153216	0.004747	-0.000213	-0.007698	-0.685791	-0.229248	0.681152	-0.128585	-0.734478	0.134449	-0.652634
23705		9.720541	0.073527	-1.153018	0.004836	0.001916	-0.008452	-0.686768	-0.234375	0.664795	-0.128598	-0.734487	0.134457	-0.652620
23706		9.742650	0.067087	-1.135691	0.011472	-0.002192	-0.007694	-0.692871	-0.234375	0.671387	-0.128577	-0.734502	0.134473	-0.652604
23707		9.749851	0.082535	-1.161141	0.006592	-0.003994	-0.006352	-0.686768	-0.232178	0.669678	-0.128580	-0.734523	0.134536	-0.652567
23708		9.756002	0.061038	-1.141777	0.003597	0.000818	-0.006414	-0.685059	-0.222412	0.679932	-0.128611	-0.734508	0.134606	-0.652563
23709		9.728974	0.080181	-1.131954	0.008201	-0.000901	-0.005797	-0.686523	-0.228760	0.675781	-0.128538	-0.734540	0.134592	-0.652544
23710		9.715938	0.067954	-1.182187	0.010103	-0.000022	-0.006577	-0.690918	-0.220703	0.674805	-0.128488	-0.734556	0.134585	-0.652537
23711		9.724572	0.070095	-1.159748	0.005619	0.001295	-0.006580	-0.688477	-0.221436	0.677246	-0.128448	-0.734545	0.134587	-0.652557
23712		9.756994	0.061033	-1.128800	0.007094	0.001586	-0.007387	-0.692139	-0.226807	0.670654	-0.128401	-0.734546	0.134566	-0.652570
23713		9.738130	0.064192	-1.164108	0.004240	0.000264	-0.006215	-0.684814	-0.224365	0.670166	-0.128401	-0.734528	0.134616	-0.652579
23714		9.727029	0.098253	-1.156421	0.002304	0.001912	-0.006804	-0.680420	-0.231689	0.681885	-0.128416	-0.734510	0.134660	-0.652588
23715		9.737540	0.064879	-1.141802	0.005738	0.000893	-0.005963	-0.680176	-0.228271	0.670654	-0.128409	-0.734535	0.134689	-0.652555
23716		9.718095	0.090209	-1.122583	0.010111	-0.002890	-0.006259	-0.685547	-0.225342	0.670898	-0.128357	-0.734576	0.134693	-0.652518
23717		9.734710	0.051362	-1.179323	0.008623	-0.000317	-0.005763	-0.688232	-0.218750	0.664795	-0.128306	-0.734584	0.134702	-0.652518
23718		9.751693	0.086422	-1.135917	0.005551	-0.000500	-0.004760	-0.681885	-0.225098	0.676025	-0.128254	-0.734569	0.134734	-0.652538
23719		9.737414	0.069525	-1.142605	0.006381	0.000340	-0.005764	-0.690186	-0.232910	0.670166	-0.128218	-0.734585	0.134747	-0.652524
23720		9.732141	0.088117	-1.149832	0.006599	-0.000799	-0.005594	-0.686768	-0.229736	0.670898	-0.128218	-0.734581	0.134809	-0.652516
23721		9.738314	0.066283	-1.130639	0.009400	-0.004135	-0.004635	-0.682617	-0.230957	0.667969	-0.128164	-0.734616	0.134847	-0.652480
23722		9.742213	0.087634	-1.138041	0.008534	-0.002448	-0.005001	-0.689209	-0.225830	0.674072	-0.128134	-0.734637	0.134893	-0.652452
23723		9.739057	0.037954	-1.152496	0.007265	-0.001012	-0.004337	-0.692627	-0.233154	0.670898	-0.128083	-0.734644	0.134927	-0.652447
23724		9.760916	0.063148	-1.136403	0.006620	-0.000463	-0.004533	-0.693115	-0.230225	0.669922	-0.128076	-0.734632	0.135000	-0.652447
23725		9.737101	0.075568	-1.144880	0.009666	-0.000622	-0.006591	-0.687500	-0.232422	0.675049	-0.128046	-0.734627	0.135022	-0.652455
23726		9.727071	0.046942	-1.157308	0.010409	-0.001910	-0.006836	-0.690674	-0.227051	0.673584	-0.128013	-0.734654	0.135032	-0.652428
23727		9.748540	0.080195	-1.175635	0.007971	0.000224	-0.005952	-0.687988	-0.227295	0.675049	-0.127978	-0.734651	0.135051	-0.652435
23728		9.736299	0.052497	-1.156889	0.006375	0.000333	-0.005759	-0.687256	-0.234131	0.674561	-0.127956	-0.734651	0.135081	-0.652432
23729		9.733652	0.063071	-1.160450	0.002849	-0.000008	-0.010831	-0.691650	-0.227051	0.670898	-0.128036	-0.734657	0.135121	-0.652402
23730		9.732687	0.070752	-1.172645	0.001832	0.003835	-0.008198	-0.688232	-0.226562	0.669678	-0.128085	-0.734611	0.135169	-0.652434
23731		9.743968	0.064806	-1.146552	0.005051	-0.002115	-0.007951	-0.688477	-0.230713	0.671875	-0.128091	-0.734623	0.135200	-0.652413
