// Start Time: Unknown
// Update Rate: 40.0Hz
// Filter Profile: human (46.1)
// Firmware Version: 4.6.0
PacketCounter	SampleTimeFine	Acc_X	Acc_Y	Acc_Z	Gyr_X	Gyr_Y	Gyr_Z	Mag_X	Mag_Y	Mag_Z	Quat_q0	Quat_q1	Quat_q2	Quat_q3
23208		9.710032	0.090365	-0.576457	-0.005883	0.005901	0.004575	-0.774902	0.116943	-0.333008	0.675556	-0.118652	-0.718045	-0.118136
23209		9.713439	0.067608	-0.583996	-0.006835	0.004973	0.002708	-0.765625	0.116943	-0.328125	0.675595	-0.118726	-0.717989	-0.118182
23210		9.721303	0.079918	-0.601565	-0.001100	0.002669	0.003433	-0.765137	0.119141	-0.328369	0.675622	-0.118765	-0.717960	-0.118166
23211		9.736817	0.113824	-0.585637	-0.001044	-0.000872	0.006279	-0.768555	0.120117	-0.327148	0.675621	-0.118831	-0.717958	-0.118121
23212		9.727227	0.115928	-0.566025	-0.001431	0.004028	0.007832	-0.763184	0.111816	-0.330322	0.675665	-0.118907	-0.717911	-0.118074
23213		9.707014	0.106263	-0.563544	-0.006976	0.005443	0.006891	-0.756592	0.117188	-0.324951	0.675712	-0.119017	-0.717846	-0.118090
23214		9.699069	0.094454	-0.604176	-0.006229	0.002778	0.005313	-0.766602	0.118896	-0.326904	0.675736	-0.119108	-0.717805	-0.118110
23215		9.724910	0.101382	-0.592349	-0.007168	0.000966	0.004157	-0.761230	0.114502	-0.330322	0.675735	-0.119199	-0.717785	-0.118147
23216		9.730071	0.061827	-0.601445	-0.006631	0.003199	0.003205	-0.762451	0.120361	-0.329834	0.675752	-0.119272	-0.717750	-0.118192
23217		9.716473	0.059360	-0.602393	-0.006681	0.002104	0.006363	-0.762451	0.118896	-0.331787	0.675760	-0.119379	-0.717722	-0.118204
23218		9.696616	0.088367	-0.577923	0.002512	0.005017	0.009296	-0.767578	0.115234	-0.332764	0.675808	-0.119435	-0.717683	-0.118110
23219		9.709379	0.122522	-0.597676	-0.000199	0.002497	0.008463	-0.765381	0.119629	-0.330078	0.675827	-0.119507	-0.717664	-0.118044
23220		9.730365	0.105164	-0.583838	-0.008893	-0.000163	0.008449	-0.765625	0.120850	-0.323975	0.675804	-0.119652	-0.717659	-0.118059
23221		9.724892	0.103542	-0.596448	-0.009582	0.000471	0.005749	-0.759033	0.119385	-0.330566	0.675777	-0.119777	-0.717656	-0.118109
23222		9.718589	0.084443	-0.585450	-0.009824	0.004901	0.003123	-0.763916	0.117676	-0.333740	0.675790	-0.119867	-0.717614	-0.118192
23223		9.720152	0.078512	-0.592455	-0.010743	0.004440	0.004510	-0.772217	0.121094	-0.331543	0.675797	-0.119973	-0.717577	-0.118272
23224		9.719891	0.088598	-0.599297	-0.008041	0.000080	0.009513	-0.761475	0.112305	-0.327393	0.675764	-0.120111	-0.717584	-0.118280
23225		9.731621	0.113602	-0.544219	-0.010102	-0.000418	0.009248	-0.764404	0.120361	-0.336914	0.675730	-0.120253	-0.717588	-0.118306
23226		9.736398	0.084769	-0.561283	-0.014071	0.000360	0.006367	-0.757324	0.114746	-0.325684	0.675707	-0.120403	-0.717569	-0.118398
23227		9.712109	0.070822	-0.580339	-0.010199	0.003549	0.002441	-0.767578	0.117188	-0.327881	0.675712	-0.120481	-0.717535	-0.118496
23228		9.721205	0.089844	-0.613519	-0.002142	0.003299	0.002597	-0.762695	0.114502	-0.334473	0.675711	-0.120490	-0.717530	-0.118523
23229		9.733706	0.084097	-0.595794	-0.011769	0.001065	0.003258	-0.762451	0.120361	-0.330811	0.675696	-0.120572	-0.717514	-0.118618
23230		9.715164	0.058539	-0.595448	-0.013039	-0.002519	0.005377	-0.765869	0.110596	-0.331787	0.675640	-0.120723	-0.717528	-0.118704
23231		9.727328	0.063895	-0.585776	-0.003790	0.001488	0.005153	-0.765625	0.110352	-0.325195	0.675629	-0.120732	-0.717535	-0.118714
23232		9.714930	0.068499	-0.602013	-0.000971	0.006207	-0.000327	-0.757812	0.116943	-0.326660	0.675636	-0.120676	-0.717530	-0.118758
23233		9.711906	0.081971	-0.644449	-0.008761	0.004895	-0.002438	-0.761719	0.118164	-0.337891	0.675640	-0.120720	-0.717500	-0.118875
23234		9.728390	0.082359	-0.605947	-0.008610	-0.001100	0.000084	-0.770020	0.119141	-0.335938	0.675620	-0.120764	-0.717500	-0.118944
23235		9.726298	0.057171	-0.567553	-0.004166	0.000139	0.004464	-0.763428	0.113037	-0.325195	0.675591	-0.120808	-0.717519	-0.118949
23236		9.729176	0.107618	-0.575617	0.001548	0.004960	0.006728	-0.764404	0.114014	-0.336426	0.675593	-0.120815	-0.717523	-0.118904
23237		9.708367	0.121297	-0.587877	-0.003872	0.005278	0.008021	-0.764160	0.124268	-0.325684	0.675647	-0.120838	-0.717473	-0.118879
23238		9.711120	0.121374	-0.610727	-0.008679	0.001806	0.003660	-0.766357	0.110596	-0.328857	0.675598	-0.121003	-0.717479	-0.118952
23239		9.744202	0.111918	-0.587175	-0.007946	0.000034	0.001365	-0.768066	0.111328	-0.327881	0.675539	-0.120982	-0.717524	-0.119039
23240		9.726394	0.113927	-0.556837	-0.007093	0.000281	0.002427	-0.757324	0.119873	-0.332275	0.675472	-0.120968	-0.717576	-0.119116
23241		9.723008	0.084749	-0.562312	-0.008216	0.004710	0.004453	-0.763916	0.119385	-0.336426	0.675524	-0.121066	-0.717502	-0.119170
23242		9.720845	0.061798	-0.582996	-0.006985	0.003184	0.005077	-0.762451	0.119385	-0.326172	0.675568	-0.121122	-0.717446	-0.119201
23243		9.720312	0.083800	-0.597460	-0.004046	-0.000968	0.006694	-0.761475	0.125732	-0.325195	0.675514	-0.121235	-0.717476	-0.119211
23244		9.706395	0.092881	-0.606495	-0.003426	0.000596	0.004008	-0.764404	0.118896	-0.331055	0.675465	-0.121410	-0.717488	-0.119240
23245		9.742179	0.084247	-0.606383	-0.001931	0.003750	0.004934	-0.768066	0.113525	-0.335449	0.675482	-0.121438	-0.717467	-0.119239
23246		9.713465	0.085356	-0.600600	-0.001355	0.003322	0.006115	-0.769287	0.122559	-0.329590	0.675517	-0.121362	-0.717451	-0.119216
23247		9.699320	0.105828	-0.616455	-0.001432	0.000874	0.006724	-0.768311	0.114990	-0.335693	0.675473	-0.121465	-0.717478	-0.119198
23248		9.713760	0.132507	-0.584769	-0.008913	0.000696	0.007751	-0.762451	0.112061	-0.330078	0.675476	-0.121484	-0.717467	-0.119223
23249		9.737898	0.093163	-0.580082	-0.013580	0.000586	0.009298	-0.758057	0.117188	-0.336182	0.675451	-0.121545	-0.717469	-0.119295
23250		9.731242	0.084803	-0.576900	-0.007894	0.001829	0.007177	-0.765869	0.112549	-0.323975	0.675529	-0.121582	-0.717388	-0.119302
23251		9.691312	0.097717	-0.603908	-0.003437	0.004599	0.004434	-0.766846	0.112305	-0.336670	0.675464	-0.121550	-0.717444	-0.119366
23252		9.713214	0.099154	-0.612280	-0.007063	0.003849	0.006823	-0.766113	0.112793	-0.326416	0.675522	-0.121457	-0.717403	-0.119382
23253		9.754478	0.089559	-0.599337	-0.009459	0.001571	0.009834	-0.755127	0.108643	-0.336426	0.675446	-0.121517	-0.717453	-0.119446
23254		9.725489	0.101100	-0.601505	-0.006523	0.000532	0.012582	-0.763428	0.118164	-0.331787	0.675551	-0.121411	-0.717383	-0.119384
23255		9.700511	0.117499	-0.582689	-0.005513	0.002555	0.011299	-0.760010	0.117188	-0.337158	0.675569	-0.121500	-0.717355	-0.119361
23256		9.707278	0.121821	-0.584887	-0.009580	0.002674	0.007608	-0.769531	0.111572	-0.333496	0.675664	-0.121512	-0.717262	-0.119365
23257		9.745751	0.114429	-0.608589	-0.009523	0.000667	0.003315	-0.767822	0.120361	-0.330322	0.675625	-0.121399	-0.717301	-0.119463
23258		9.741793	0.108545	-0.629058	-0.013070	0.002363	0.005100	-0.764160	0.117676	-0.330078	0.675573	-0.121547	-0.717306	-0.119581
23259		9.730883	0.042153	-0.601434	-0.016220	0.003623	0.008997	-0.769531	0.108398	-0.334229	0.675549	-0.121706	-0.717282	-0.119699
23260		9.714564	0.037504	-0.578752	-0.002365	0.001282	0.007409	-0.769775	0.104492	-0.336182	0.675541	-0.121479	-0.717328	-0.119698
23261		9.709456	0.086271	-0.575943	-0.000968	0.000647	0.006391	-0.764160	0.119385	-0.330078	0.675553	-0.121130	-0.717378	-0.119686
23262		9.718942	0.092676	-0.601735	-0.005941	0.005645	0.007070	-0.771729	0.116943	-0.333984	0.675562	-0.121237	-0.717345	-0.119725
23263		9.717207	0.046222	-0.607514	-0.009997	0.004879	0.004087	-0.764648	0.117432	-0.332764	0.675557	-0.121227	-0.717337	-0.119808
23264		9.733413	0.056548	-0.576230	-0.003597	-0.000307	0.005652	-0.761963	0.115723	-0.331543	0.675547	-0.121228	-0.717347	-0.119807
23265		9.723751	0.059089	-0.557129	-0.005481	-0.000797	0.004456	-0.769531	0.117920	-0.332520	0.675527	-0.121221	-0.717360	-0.119844
23266		9.706147	0.051729	-0.579131	-0.001372	0.005083	0.004712	-0.770752	0.110352	-0.335449	0.675534	-0.121195	-0.717357	-0.119850
23267		9.718417	0.059984	-0.627830	0.005371	0.007910	0.005278	-0.762451	0.122070	-0.332764	0.675607	-0.120906	-0.717346	-0.119795
23268		9.705443	0.096206	-0.605720	0.003868	0.001647	0.003207	-0.769287	0.116943	-0.332520	0.675640	-0.120936	-0.717322	-0.119725
23269		9.735048	0.119924	-0.580592	-0.006156	-0.001034	0.002462	-0.764893	0.116455	-0.333740	0.675576	-0.120932	-0.717373	-0.119789
23270		9.724368	0.108039	-0.598357	-0.007768	0.003153	0.001578	-0.759766	0.119873	-0.337891	0.675596	-0.120901	-0.717347	-0.119860
23271		9.728859	0.088997	-0.561706	-0.002878	0.005935	0.004211	-0.768799	0.114502	-0.331787	0.675756	-0.120865	-0.717213	-0.119798
23272		9.700398	0.082073	-0.608313	-0.008034	0.004702	0.003543	-0.759521	0.116699	-0.336182	0.675726	-0.120843	-0.717227	-0.119906
23273		9.713672	0.106424	-0.620546	-0.008712	0.001351	0.000410	-0.763184	0.121338	-0.334473	0.675798	-0.120791	-0.717159	-0.119957
23274		9.737453	0.080367	-0.622985	-0.006728	0.002508	0.002421	-0.763916	0.113037	-0.323975	0.675834	-0.120865	-0.717108	-0.119983
23275		9.725302	0.070342	-0.571947	-0.009166	0.003784	0.002599	-0.758057	0.118164	-0.332275	0.675692	-0.120946	-0.717194	-0.120190
23276		9.709008	0.070286	-0.608978	-0.001403	0.004635	0.001453	-0.765869	0.111572	-0.335693	0.675753	-0.120935	-0.717135	-0.120206
23277		9.719550	0.093153	-0.597371	-0.000275	0.002438	0.001258	-0.757812	0.114502	-0.330322	0.675787	-0.120706	-0.717139	-0.120222
23278		9.709517	0.119619	-0.591917	-0.001939	0.004619	0.004243	-0.767090	0.113770	-0.334961	0.675814	-0.120681	-0.717112	-0.120257
23279		9.718005	0.108079	-0.594533	-0.006322	0.004291	0.006382	-0.762695	0.112305	-0.329346	0.675841	-0.120615	-0.717092	-0.120288
23280		9.728963	0.106483	-0.568363	-0.006513	0.002064	0.005463	-0.768555	0.117188	-0.330078	0.675782	-0.120608	-0.717133	-0.120385
23281		9.729006	0.105530	-0.567819	-0.007939	0.002254	0.003219	-0.763916	0.118408	-0.331299	0.675696	-0.120692	-0.717181	-0.120499
23282		9.713122	0.082205	-0.590380	-0.006288	0.004965	-0.000039	-0.761475	0.112549	-0.325439	0.675688	-0.120738	-0.717164	-0.120598
23283		9.715950	0.083576	-0.613008	-0.006172	0.003852	0.002189	-0.758789	0.111816	-0.327881	0.675590	-0.120755	-0.717228	-0.120750
23284		9.707407	0.105057	-0.615761	-0.009158	0.002890	0.003309	-0.759033	0.115967	-0.330566	0.675543	-0.120747	-0.717251	-0.120878
23285		9.720235	0.148628	-0.582727	-0.012100	0.000587	0.009107	-0.769775	0.118408	-0.338867	0.675525	-0.120888	-0.717234	-0.120944
23286		9.701769	0.110146	-0.574912	-0.013964	0.001427	0.010469	-0.760254	0.111816	-0.333740	0.675574	-0.120978	-0.717171	-0.120953
23287		9.727265	0.139694	-0.577335	-0.014402	0.003207	0.003680	-0.759277	0.118164	-0.328369	0.675609	-0.120918	-0.717129	-0.121071
23288		9.727302	0.139484	-0.576771	-0.011062	0.001071	-0.000444	-0.770508	0.119385	-0.338135	0.675541	-0.121049	-0.717142	-0.121236
23289		9.733264	0.119493	-0.608751	-0.013602	0.005678	-0.000638	-0.764893	0.109131	-0.333252	0.675594	-0.121063	-0.717071	-0.121352
23290		9.730293	0.055797	-0.592428	-0.014308	0.000759	0.003352	-0.768311	0.108887	-0.330811	0.675560	-0.120945	-0.717098	-0.121497
23291		9.708245	0.063633	-0.590510	-0.008547	-0.002007	0.008028	-0.772461	0.119141	-0.332764	0.675452	-0.120863	-0.717199	-0.121583
23292		9.714515	0.088730	-0.547777	0.000227	0.001769	0.004895	-0.763916	0.117188	-0.333008	0.675399	-0.120898	-0.717244	-0.121581
23293		9.725213	0.114153	-0.595916	0.000210	0.007550	0.003925	-0.771973	0.120117	-0.335693	0.675461	-0.120865	-0.717191	-0.121575
23294		9.733700	0.102955	-0.598285	-0.006064	0.003622	0.003719	-0.763428	0.116211	-0.332031	0.675465	-0.120919	-0.717173	-0.121607
23295		9.726996	0.095538	-0.595136	-0.006987	-0.000849	0.004664	-0.765625	0.118652	-0.332520	0.675426	-0.120959	-0.717194	-0.121660
23296		9.702014	0.113606	-0.576568	-0.005297	0.001411	0.005382	-0.769531	0.110596	-0.323242	0.675406	-0.121037	-0.717195	-0.121689
23297		9.723926	0.114833	-0.585408	-0.010622	0.002387	0.007498	-0.758545	0.120605	-0.338135	0.675212	-0.121116	-0.717334	-0.121870
23298		9.731385	0.087885	-0.625611	-0.005758	0.004727	0.006873	-0.765381	0.118408	-0.333984	0.675368	-0.121172	-0.717186	-0.121819
23299		9.716508	0.077793	-0.610832	0.000560	0.003304	0.011317	-0.763184	0.121338	-0.332764	0.675408	-0.121220	-0.717155	-0.121735
23300		9.711794	0.113630	-0.600400	-0.002614	-0.000776	0.012217	-0.764893	0.110596	-0.331787	0.675403	-0.121395	-0.717141	-0.121665
23301		9.720897	0.139339	-0.581177	-0.003773	0.001877	0.008445	-0.759766	0.114746	-0.329346	0.675384	-0.121290	-0.717175	-0.121680
23302		9.729343	0.126858	-0.584314	-0.003107	0.002998	0.009736	-0.770020	0.120605	-0.334717	0.675376	-0.121325	-0.717176	-0.121680
23303		9.725624	0.108073	-0.597062	-0.000871	0.004388	0.008368	-0.760254	0.113770	-0.333008	0.675398	-0.121391	-0.717151	-0.121636
23304		9.710415	0.121501	-0.597085	-0.003202	0.001439	0.009628	-0.761963	0.118652	-0.329346	0.675428	-0.121352	-0.717135	-0.121607
23305		9.712082	0.101978	-0.597828	-0.007762	0.000205	0.013407	-0.769043	0.116943	-0.329102	0.675379	-0.121554	-0.717146	-0.121612
23306		9.715352	0.065881	-0.599532	-0.001344	0.001489	0.007560	-0.770508	0.112061	-0.336182	0.675292	-0.121599	-0.717217	-0.121630
23307		9.731249	0.098511	-0.582754	-0.006203	0.002257	0.009337	-0.760986	0.115479	-0.330078	0.675305	-0.121491	-0.717223	-0.121628
23308		9.719263	0.078333	-0.584800	-0.008453	0.002649	0.009295	-0.759766	0.110352	-0.322754	0.675291	-0.121565	-0.717217	-0.121673
23309		9.719309	0.076314	-0.584297	-0.005838	0.001380	0.008182	-0.767822	0.115723	-0.325195	0.675164	-0.121579	-0.717318	-0.121766
23310		9.708182	0.082983	-0.556506	-0.007516	0.001335	0.009321	-0.773926	0.113770	-0.331787	0.675025	-0.121714	-0.717411	-0.121854
23311		9.727619	0.073270	-0.594517	-0.011057	0.002128	0.011825	-0.759521	0.116943	-0.334961	0.674955	-0.121758	-0.717461	-0.121906
23312		9.734685	0.053686	-0.582282	-0.008914	0.001961	0.010347	-0.768311	0.123291	-0.337402	0.675028	-0.121805	-0.717387	-0.121888
23313		9.705573	0.089708	-0.598851	-0.004261	0.000756	0.006230	-0.774902	0.117676	-0.333984	0.675068	-0.121899	-0.717338	-0.121859
23314		9.741150	0.092089	-0.606046	-0.007447	0.002461	0.006165	-0.760254	0.123779	-0.329834	0.675024	-0.121925	-0.717366	-0.121911
23315		9.719426	0.076373	-0.589018	-0.017568	0.001339	0.006457	-0.763916	0.116699	-0.333008	0.674991	-0.122234	-0.717322	-0.122045
23316		9.696189	0.065292	-0.564569	-0.014077	-0.004160	0.009935	-0.755859	0.117188	-0.333984	0.674941	-0.122339	-0.717343	-0.122098
23317		9.716470	0.083276	-0.573507	-0.005882	-0.001265	0.003057	-0.768311	0.119629	-0.330566	0.674985	-0.122305	-0.717304	-0.122113
23318		9.724619	0.096135	-0.591249	-0.008239	0.005141	0.000534	-0.764648	0.114990	-0.328369	0.674952	-0.122356	-0.717306	-0.122232
23319		9.734486	0.080745	-0.602287	-0.012644	0.002594	0.000818	-0.778076	0.120117	-0.339111	0.674882	-0.122369	-0.717342	-0.122394
23320		9.729078	0.080785	-0.614792	-0.013478	-0.001215	0.002572	-0.765137	0.109131	-0.329102	0.674850	-0.122408	-0.717349	-0.122491
23321		9.707384	0.054092	-0.591649	-0.010288	-0.003815	0.003340	-0.765381	0.114746	-0.329346	0.674738	-0.122298	-0.717454	-0.122604
23322		9.704338	0.075120	-0.582669	-0.003621	0.001441	0.004257	-0.764160	0.115967	-0.329834	0.674692	-0.122257	-0.717497	-0.122648
23323		9.739928	0.078193	-0.589570	-0.002137	0.004158	0.001935	-0.765137	0.115967	-0.330811	0.674684	-0.122201	-0.717506	-0.122694
23324		9.720578	0.112346	-0.624773	-0.005334	0.002760	0.000715	-0.761963	0.116211	-0.332275	0.674665	-0.122155	-0.717518	-0.122771
23325		9.708602	0.082438	-0.620317	-0.011145	-0.003157	0.001570	-0.763916	0.110840	-0.333496	0.674624	-0.122163	-0.717539	-0.122864
23326		9.740058	0.065674	-0.582095	-0.008233	-0.001540	0.002200	-0.766846	0.114502	-0.321045	0.674608	-0.122018	-0.717569	-0.122925
23327		9.727781	0.070833	-0.598878	-0.005884	0.004513	0.002105	-0.758789	0.126953	-0.337646	0.674464	-0.122086	-0.717665	-0.123086
23328		9.708573	0.093168	-0.626449	-0.001860	0.005724	0.001119	-0.760742	0.118164	-0.330811	0.674613	-0.122179	-0.717513	-0.123061
23329		9.698836	0.108477	-0.613383	-0.005154	0.002770	-0.000215	-0.762207	0.116943	-0.326904	0.674620	-0.122177	-0.717495	-0.123132
23330		9.740032	0.088412	-0.593513	-0.007491	-0.000182	0.001040	-0.765137	0.114746	-0.326660	0.674537	-0.122228	-0.717546	-0.123241
23331		9.741302	0.106393	-0.615964	0.000407	0.001755	0.003977	-0.763428	0.122070	-0.324219	0.674471	-0.122189	-0.717611	-0.123262
23332		9.721753	0.135946	-0.591206	0.003420	0.004034	0.005426	-0.759766	0.114502	-0.336914	0.674411	-0.122329	-0.717642	-0.123266
23333		9.694624	0.120617	-0.586387	-0.004927	0.004513	0.004695	-0.760986	0.110840	-0.330078	0.674529	-0.122218	-0.717553	-0.123250
23334		9.709601	0.139556	-0.606532	-0.004012	0.001889	0.002146	-0.760986	0.114990	-0.335449	0.674524	-0.122071	-0.717577	-0.123285
23335		9.738511	0.124518	-0.603623	-0.006442	0.002269	0.003038	-0.766357	0.112549	-0.330811	0.674588	-0.121993	-0.717527	-0.123304
23336		9.725090	0.098824	-0.590468	-0.016075	0.001352	0.006265	-0.766357	0.113525	-0.330566	0.674542	-0.122029	-0.717543	-0.123427
23337		9.707723	0.067956	-0.598159	-0.012130	0.003212	0.007032	-0.763672	0.116211	-0.331543	0.674518	-0.122061	-0.717545	-0.123512
23338		9.721429	0.067361	-0.595812	-0.002280	0.001873	0.008259	-0.765381	0.108154	-0.335449	0.674527	-0.122069	-0.717540	-0.123485
23339		9.715451	0.109024	-0.576712	-0.001248	0.002117	0.008393	-0.764404	0.120117	-0.328857	0.674580	-0.121848	-0.717540	-0.123413
23340		9.744194	0.116367	-0.588068	-0.010166	0.003039	0.006483	-0.763672	0.110840	-0.329346	0.674545	-0.122027	-0.717528	-0.123502
23341		9.741658	0.077714	-0.542242	-0.008946	0.001505	0.007093	-0.765137	0.116211	-0.333008	0.674510	-0.121992	-0.717557	-0.123557
23342		9.696630	0.091572	-0.582121	-0.003320	0.003414	0.006720	-0.763916	0.114502	-0.329102	0.674540	-0.121976	-0.717534	-0.123545
23343		9.718452	0.116239	-0.604758	-0.010069	0.004592	0.006602	-0.767334	0.116211	-0.328857	0.674526	-0.122026	-0.717524	-0.123626
23344		9.740638	0.082020	-0.591865	-0.007831	0.000205	0.006181	-0.763916	0.121338	-0.332520	0.674454	-0.122102	-0.717567	-0.123695
23345		9.736149	0.119211	-0.581083	0.002392	0.002883	0.006002	-0.762451	0.117188	-0.325928	0.674487	-0.122146	-0.717537	-0.123644
23346		9.709936	0.129475	-0.546341	-0.005440	0.003087	0.012184	-0.769531	0.110840	-0.322998	0.674446	-0.122297	-0.717548	-0.123656
23347		9.715789	0.118675	-0.585586	-0.015108	0.004441	0.010028	-0.766602	0.117432	-0.331787	0.674329	-0.122400	-0.717615	-0.123799
23348		9.716361	0.084975	-0.623255	-0.009960	0.002562	0.009536	-0.764160	0.119385	-0.329346	0.674326	-0.122501	-0.717595	-0.123836
23349		9.739416	0.088359	-0.587274	0.000249	0.002140	0.008192	-0.759521	0.112793	-0.325928	0.674315	-0.122568	-0.717599	-0.123808
23350		9.735049	0.113429	-0.568944	-0.004071	0.003836	0.006478	-0.758301	0.111816	-0.331787	0.674296	-0.122538	-0.717618	-0.123830
23351		9.717623	0.082592	-0.576510	-0.013732	0.002508	0.006431	-0.752930	0.124268	-0.334961	0.674327	-0.122504	-0.717584	-0.123887
23352		9.700226	0.039864	-0.577186	-0.010914	0.001668	0.007651	-0.758789	0.121338	-0.327148	0.674417	-0.122700	-0.717463	-0.123910
23353		9.744015	0.067855	-0.609047	0.001043	0.006027	-0.000806	-0.770264	0.121826	-0.323975	0.674427	-0.122733	-0.717438	-0.123968
23354		9.719165	0.098413	-0.596403	0.002105	0.003992	0.004714	-0.770508	0.112061	-0.328369	0.674334	-0.122861	-0.717495	-0.124014
23355		9.746466	0.111063	-0.599731	-0.004085	-0.001054	0.006718	-0.760986	0.114014	-0.331299	0.674246	-0.122798	-0.717587	-0.124024
23356		9.708067	0.103527	-0.568240	-0.004513	0.003552	0.010804	-0.762207	0.116455	-0.329590	0.674287	-0.122778	-0.717560	-0.123977
23357		9.709539	0.119863	-0.589569	-0.006768	0.006632	0.008658	-0.770264	0.115234	-0.335449	0.674322	-0.122826	-0.717515	-0.123998
23358		9.711078	0.113352	-0.596759	-0.006340	0.002026	0.004571	-0.767822	0.119629	-0.327393	0.674335	-0.122764	-0.717510	-0.124019
23359		9.748139	0.111176	-0.612235	-0.006825	0.000035	0.003042	-0.767090	0.113525	-0.328857	0.674246	-0.122870	-0.717558	-0.124118
23360		9.731670	0.095542	-0.582859	-0.011303	0.002124	0.005540	-0.764404	0.111328	-0.339600	0.674198	-0.122881	-0.717587	-0.124202
23361		9.721046	0.059020	-0.586128	-0.008830	0.003451	0.010500	-0.764648	0.117188	-0.324219	0.674308	-0.122759	-0.717515	-0.124141
23362		9.718184	0.066712	-0.569060	-0.003784	0.000915	0.009183	-0.769043	0.110107	-0.329102	0.674224	-0.122872	-0.717570	-0.124171
23363		9.718094	0.124137	-0.604294	-0.006989	0.003111	0.005149	-0.764404	0.113525	-0.327637	0.674187	-0.122770	-0.717615	-0.124214
23364		9.714292	0.082791	-0.603144	-0.007454	0.002422	0.006195	-0.769775	0.116455	-0.322754	0.674149	-0.122769	-0.717641	-0.124264
23365		9.743137	0.066438	-0.600089	-0.006218	0.003083	0.008676	-0.760742	0.117188	-0.330811	0.674043	-0.122902	-0.717704	-0.124345
23366		9.729077	0.094298	-0.562842	-0.002365	-0.000205	0.012137	-0.755615	0.116455	-0.331787	0.674053	-0.122953	-0.717699	-0.124273
23367		9.708596	0.119232	-0.583121	-0.003197	0.001762	0.012944	-0.768311	0.116211	-0.338623	0.674116	-0.122981	-0.717651	-0.124180
23368		9.718402	0.101143	-0.594558	-0.005832	0.003515	0.010090	-0.764648	0.113525	-0.338867	0.674200	-0.122939	-0.717590	-0.124119
23369		9.735030	0.090164	-0.608522	-0.004536	0.003132	0.007537	-0.763672	0.118652	-0.330566	0.674297	-0.122799	-0.717535	-0.124046
23370		9.710244	0.096246	-0.582247	-0.007657	0.001105	0.004554	-0.764160	0.112305	-0.330566	0.674277	-0.122859	-0.717534	-0.124103
23371		9.698053	0.100587	-0.599281	-0.005955	-0.000237	0.008097	-0.760254	0.123535	-0.333252	0.674254	-0.122810	-0.717565	-0.124094
23372		9.725409	0.100411	-0.595502	-0.007048	0.002354	0.011595	-0.771973	0.120361	-0.333740	0.674301	-0.122986	-0.717495	-0.124070
23373		9.750308	0.066834	-0.606151	-0.005832	0.004406	0.009393	-0.758057	0.116699	-0.338135	0.674317	-0.123071	-0.717465	-0.124075
23374		9.702158	0.098135	-0.576647	-0.006786	-0.000066	0.010311	-0.765625	0.118408	-0.329834	0.674403	-0.123043	-0.717402	-0.123994
23375		9.706137	0.123748	-0.569977	-0.013716	-0.000692	0.012537	-0.760010	0.117676	-0.333496	0.674353	-0.123225	-0.717410	-0.124045
23376		9.727030	0.061714	-0.587789	-0.013045	0.004001	0.011033	-0.763672	0.116455	-0.332764	0.674408	-0.123314	-0.717340	-0.124062
23377		9.753362	0.046962	-0.620997	-0.006968	0.002603	0.009143	-0.763672	0.117676	-0.334717	0.674432	-0.123324	-0.717317	-0.124053
23378		9.714943	0.063524	-0.603524	-0.005489	0.002241	0.005653	-0.767090	0.120850	-0.336182	0.674470	-0.123293	-0.717288	-0.124045
23379		9.727194	0.068363	-0.593077	-0.010658	0.001031	0.004979	-0.762695	0.123291	-0.327637	0.674486	-0.123345	-0.717256	-0.124089
23380		9.701307	0.036250	-0.590168	-0.007070	0.002842	0.007621	-0.759033	0.120361	-0.331543	0.674459	-0.123516	-0.717243	-0.124141
23381		9.711081	0.030987	-0.608714	0.000711	0.002792	0.007166	-0.764160	0.114990	-0.334473	0.674500	-0.123518	-0.717214	-0.124084
23382		9.728780	0.058296	-0.599532	0.000812	0.002548	0.008692	-0.766846	0.117676	-0.326660	0.674548	-0.123416	-0.717202	-0.123996
23383		9.739639	0.079002	-0.587766	-0.004255	0.001995	0.008840	-0.769531	0.120117	-0.336914	0.674491	-0.123491	-0.717238	-0.124020
23384		9.723226	0.109601	-0.586555	-0.001720	0.003168	0.008065	-0.767578	0.123047	-0.332275	0.674540	-0.123476	-0.717205	-0.123964
23385		9.705574	0.066876	-0.587378	-0.004741	0.001807	0.005902	-0.764893	0.120361	-0.333008	0.674530	-0.123560	-0.717196	-0.123983
23386		9.724729	0.089728	-0.586559	-0.006422	0.002652	0.006345	-0.763916	0.121338	-0.337158	0.674544	-0.123604	-0.717172	-0.124000
23387		9.720892	0.095446	-0.614057	-0.005856	0.002201	0.007526	-0.764893	0.121094	-0.339844	0.674602	-0.123631	-0.717118	-0.123973
23388		9.729091	0.059402	-0.603266	-0.009040	0.001213	0.009581	-0.769531	0.114014	-0.332520	0.674669	-0.123676	-0.717053	-0.123940
23389		9.704285	0.064886	-0.577406	-0.013278	-0.000408	0.008218	-0.769287	0.116943	-0.338867	0.674621	-0.123711	-0.717080	-0.124012
23390		9.733055	0.060260	-0.582110	-0.007277	0.000628	0.006681	-0.769531	0.123047	-0.333008	0.674652	-0.123663	-0.717060	-0.124002
23391		9.724916	0.081206	-0.584687	-0.000884	0.004790	0.004454	-0.763428	0.119629	-0.334229	0.674672	-0.123677	-0.717041	-0.123995
23392		9.718147	0.073707	-0.580702	-0.003313	0.006067	0.004651	-0.763428	0.114990	-0.336914	0.674734	-0.123644	-0.716988	-0.123989
23393		9.721132	0.074202	-0.603626	-0.007746	-0.000066	0.007727	-0.765381	0.114258	-0.329346	0.674762	-0.123599	-0.716973	-0.123976
23394		9.721152	0.072429	-0.603518	-0.006427	0.000847	0.007752	-0.765137	0.110840	-0.335205	0.674719	-0.123606	-0.717005	-0.124010
23395		9.741592	0.054468	-0.589732	-0.004354	0.003127	0.006621	-0.760742	0.121582	-0.331299	0.674755	-0.123479	-0.716996	-0.123997
23396		9.711523	0.072859	-0.582975	-0.006420	0.003543	0.005650	-0.766113	0.114990	-0.327881	0.674774	-0.123537	-0.716965	-0.124018
23397		9.711571	0.071249	-0.582379	-0.007360	0.001258	0.008443	-0.757324	0.119141	-0.331055	0.674718	-0.123586	-0.717000	-0.124067
23398		9.718471	0.075700	-0.584686	-0.006326	0.001497	0.008579	-0.766113	0.111328	-0.329834	0.674735	-0.123637	-0.716978	-0.124054
23399		9.720029	0.080849	-0.599435	-0.006603	0.003521	0.006588	-0.763184	0.114990	-0.337402	0.674716	-0.123586	-0.716996	-0.124100
23400		9.703478	0.076783	-0.576867	-0.006159	0.002028	0.003658	-0.773682	0.116211	-0.327881	0.674764	-0.123477	-0.716971	-0.124094
23401		9.711822	0.077202	-0.587232	-0.009240	0.002592	0.005838	-0.763184	0.123291	-0.334473	0.674684	-0.123549	-0.717015	-0.124207
23402		9.742061	0.068068	-0.599571	-0.005022	0.002921	0.004620	-0.768311	0.118652	-0.332520	0.674719	-0.123579	-0.716977	-0.124203
23403		9.727184	0.094277	-0.606497	-0.005756	0.002838	0.008362	-0.765869	0.113770	-0.323975	0.674717	-0.123617	-0.716972	-0.124206
23404		9.687203	0.091853	-0.567072	-0.011792	-0.002184	0.009417	-0.770752	0.122314	-0.322998	0.674592	-0.123739	-0.717051	-0.124310
23405		9.739188	0.060725	-0.575291	-0.010281	0.000548	0.007107	-0.768066	0.121338	-0.325439	0.674467	-0.123951	-0.717109	-0.124439
23406		9.725649	0.070500	-0.583676	-0.005121	0.003166	0.003097	-0.760742	0.118896	-0.324463	0.674403	-0.124030	-0.717140	-0.124529
23407		9.736959	0.073044	-0.617491	-0.003988	0.003158	0.004758	-0.765137	0.117432	-0.338379	0.674364	-0.124075	-0.717160	-0.124577
23408		9.708152	0.063059	-0.605243	-0.014416	0.000485	0.005867	-0.764648	0.120605	-0.333984	0.674393	-0.124087	-0.717123	-0.124624
23409		9.722973	0.022221	-0.590541	-0.008419	-0.000279	0.005729	-0.769043	0.124756	-0.326416	0.674388	-0.124129	-0.717116	-0.124647
23410		9.721757	0.049410	-0.596048	0.002211	0.002796	0.006973	-0.762939	0.109619	-0.322021	0.674346	-0.124217	-0.717143	-0.124633
23411		9.708375	0.070861	-0.610700	0.001765	0.007503	0.003818	-0.768799	0.115723	-0.329590	0.674327	-0.124076	-0.717184	-0.124642
23412		9.735681	0.059921	-0.598858	-0.008591	0.002401	0.004564	-0.766602	0.116455	-0.328613	0.674290	-0.124078	-0.717206	-0.124710
23413		9.731904	0.066427	-0.626362	-0.008126	0.002194	0.004219	-0.759766	0.118408	-0.334473	0.674252	-0.124089	-0.717228	-0.124778
23414		9.717806	0.071731	-0.574713	-0.007279	0.001511	0.005991	-0.758057	0.121826	-0.330322	0.674289	-0.124079	-0.717197	-0.124769
23415		9.717738	0.058687	-0.567175	-0.008592	0.002398	0.004566	-0.768311	0.119385	-0.323730	0.674299	-0.124149	-0.717167	-0.124816
23416		9.719319	0.065158	-0.581812	-0.009352	0.003352	0.000333	-0.769287	0.110840	-0.329834	0.674215	-0.124220	-0.717206	-0.124971
23417		9.703128	0.043153	-0.604837	-0.005026	0.005234	-0.000760	-0.767334	0.119385	-0.333984	0.674205	-0.124062	-0.717232	-0.125038
23418		9.727641	0.054914	-0.583769	-0.003826	0.001893	0.001238	-0.769531	0.111816	-0.330811	0.674210	-0.124013	-0.717231	-0.125064
23419		9.721110	0.083952	-0.601829	-0.001859	0.001722	0.000683	-0.768066	0.114746	-0.321289	0.674182	-0.123862	-0.717280	-0.125085
23420		9.716725	0.086336	-0.569645	0.000298	0.000151	0.003879	-0.766602	0.111328	-0.330566	0.674073	-0.123851	-0.717377	-0.125125
23421		9.718413	0.104085	-0.591604	-0.005955	0.003321	0.005320	-0.768066	0.126709	-0.334961	0.674072	-0.123763	-0.717392	-0.125132
23422		9.716104	0.105679	-0.627210	-0.010657	0.002815	0.003597	-0.768555	0.112305	-0.327881	0.674084	-0.123900	-0.717343	-0.125217
23423		9.709150	0.086655	-0.616930	-0.012445	0.002106	0.003917	-0.768555	0.117188	-0.331787	0.674030	-0.123899	-0.717376	-0.125320
23424		9.722722	0.075467	-0.607712	-0.013598	0.000837	-0.000334	-0.767090	0.125000	-0.330322	0.673987	-0.123912	-0.717390	-0.125455
23425		9.727952	0.063154	-0.587869	-0.013322	-0.000294	0.000957	-0.761719	0.113281	-0.331055	0.673930	-0.124063	-0.717392	-0.125604
23426		9.714309	0.062348	-0.589358	-0.007955	0.002732	-0.000699	-0.770752	0.110352	-0.335938	0.673934	-0.123955	-0.717395	-0.125665
23427		9.706269	0.084608	-0.591697	-0.004185	0.003647	0.001716	-0.760742	0.114014	-0.330322	0.673964	-0.123774	-0.717400	-0.125661
23428		9.733630	0.086188	-0.587470	-0.008897	0.001338	0.001391	-0.765381	0.113281	-0.331299	0.673954	-0.123718	-0.717409	-0.125717
23429		9.715970	0.068702	-0.602951	-0.007581	0.001350	0.002117	-0.753418	0.114746	-0.330811	0.673939	-0.123648	-0.717427	-0.125759
23430		9.714690	0.085366	-0.601109	-0.002602	0.003055	-0.000257	-0.766357	0.126221	-0.329834	0.673983	-0.123514	-0.717411	-0.125749
23431		9.713420	0.102365	-0.599065	-0.005420	0.003007	-0.000772	-0.766113	0.111328	-0.332031	0.673964	-0.123602	-0.717396	-0.125850
23432		9.741979	0.075438	-0.589036	-0.010009	0.002623	0.002322	-0.765625	0.117676	-0.320801	0.673960	-0.123524	-0.717403	-0.125907
23433		9.727042	0.090306	-0.589075	-0.005220	0.001072	0.006968	-0.760742	0.114746	-0.327881	0.673865	-0.123647	-0.717457	-0.125983
23434		9.702463	0.119912	-0.577157	-0.002505	0.000470	0.006655	-0.760742	0.118896	-0.332520	0.673848	-0.123621	-0.717484	-0.125952
23435		9.728379	0.125348	-0.565022	-0.010670	0.001000	0.005003	-0.766113	0.120117	-0.332031	0.673856	-0.123669	-0.717461	-0.125991
23436		9.731145	0.103200	-0.574289	-0.013779	0.001709	-0.000090	-0.768799	0.116699	-0.328613	0.673834	-0.123728	-0.717448	-0.126126
23437		9.731454	0.072436	-0.612672	-0.007386	0.003174	-0.000212	-0.767090	0.120117	-0.329102	0.673800	-0.123715	-0.717465	-0.126227
23438		9.732935	0.067363	-0.620260	-0.002689	0.002777	0.002208	-0.766357	0.115967	-0.331543	0.673782	-0.123728	-0.717472	-0.126268
23439		9.711106	0.075991	-0.617763	-0.006640	0.000406	0.005416	-0.763428	0.118408	-0.329346	0.673765	-0.123724	-0.717486	-0.126280
23440		9.708132	0.072385	-0.593933	-0.003905	0.001078	0.007696	-0.770508	0.119385	-0.327393	0.673755	-0.123764	-0.717491	-0.126263
23441		9.708318	0.083000	-0.600239	-0.000230	0.004579	0.003201	-0.763672	0.124268	-0.331787	0.673735	-0.123771	-0.717504	-0.126293
23442		9.752374	0.087023	-0.617371	0.000518	0.004145	0.003445	-0.765137	0.120605	-0.330322	0.673769	-0.123798	-0.717469	-0.126286
23443		9.725260	0.096230	-0.627030	-0.006521	0.003761	0.004152	-0.768311	0.109619	-0.327393	0.673774	-0.123852	-0.717446	-0.126334
23444		9.714110	0.103762	-0.598777	-0.001194	0.001909	0.002697	-0.758301	0.123535	-0.332275	0.673739	-0.123716	-0.717504	-0.126323
23445		9.708530	0.080152	-0.597188	-0.004682	0.000769	0.000871	-0.766357	0.115967	-0.331787	0.673752	-0.123748	-0.717480	-0.126361
23446		9.727855	0.103984	-0.595703	-0.005469	0.006706	0.002196	-0.767578	0.114014	-0.332764	0.673790	-0.123697	-0.717447	-0.126397
23447		9.732260	0.088467	-0.619200	-0.006598	0.005284	0.005221	-0.762695	0.115234	-0.333252	0.673822	-0.123654	-0.717423	-0.126406
23448		9.723862	0.074005	-0.600114	-0.007736	0.004395	0.004257	-0.765869	0.117676	-0.316650	0.673861	-0.123618	-0.717389	-0.126420
23449		9.718448	0.116641	-0.580285	-0.003091	-0.000352	0.002884	-0.760010	0.112793	-0.333008	0.673727	-0.123705	-0.717484	-0.126515
23450		9.732149	0.116542	-0.577972	0.001183	0.004332	0.005457	-0.768555	0.118164	-0.331299	0.673791	-0.123564	-0.717464	-0.126420
23451		9.722904	0.154423	-0.578570	-0.001347	0.004958	0.004834	-0.754883	0.116943	-0.325928	0.673812	-0.123549	-0.717449	-0.126413
23452		9.706730	0.131419	-0.601699	-0.011307	0.003878	0.004196	-0.763916	0.109131	-0.330078	0.673812	-0.123609	-0.717425	-0.126487
23453		9.720453	0.131347	-0.599054	-0.010566	0.002541	0.005138	-0.763916	0.108398	-0.333252	0.673807	-0.123544	-0.717438	-0.126507
23454		9.742030	0.096850	-0.586757	-0.010394	0.000760	0.005596	-0.765381	0.112061	-0.328369	0.673811	-0.123451	-0.717452	-0.126497
23455		9.720065	0.092941	-0.577274	-0.012624	0.002425	0.008160	-0.767334	0.124512	-0.328369	0.673787	-0.123495	-0.717458	-0.126543
23456		9.702598	0.086200	-0.599246	-0.009320	0.004975	0.006240	-0.761963	0.111328	-0.336426	0.673777	-0.123674	-0.717419	-0.126642
23457		9.723076	0.079868	-0.592106	-0.005022	0.002348	0.008635	-0.761230	0.113525	-0.328125	0.673837	-0.123571	-0.717398	-0.126546
23458		9.720603	0.111175	-0.588669	-0.006038	0.003374	0.011096	-0.759766	0.127441	-0.332764	0.673848	-0.123597	-0.717390	-0.126503
23459		9.729012	0.110233	-0.599053	-0.009822	0.000660	0.010073	-0.767822	0.119141	-0.334961	0.673861	-0.123805	-0.717339	-0.126527
23460		9.715234	0.095689	-0.593331	-0.013461	0.004013	0.005700	-0.767090	0.114746	-0.328369	0.673884	-0.123878	-0.717292	-0.126596
23461		9.708214	0.076292	-0.582772	-0.009237	0.004350	0.004478	-0.761963	0.112793	-0.338379	0.673870	-0.123892	-0.717292	-0.126659
23462		9.709899	0.082561	-0.596961	-0.010834	0.004570	0.003163	-0.763916	0.115723	-0.327881	0.673944	-0.123790	-0.717240	-0.126659
23463		9.730345	0.077216	-0.590048	-0.010026	0.000806	0.003728	-0.763184	0.113770	-0.338135	0.673901	-0.123823	-0.717262	-0.126730
23464		9.732994	0.096857	-0.567268	-0.003811	0.001700	0.008536	-0.764893	0.120117	-0.327881	0.673962	-0.123731	-0.717240	-0.126622
23465		9.714899	0.096321	-0.536704	-0.001831	0.001893	0.011273	-0.757812	0.119141	-0.334473	0.673949	-0.123823	-0.717243	-0.126579
23466		9.691058	0.118420	-0.577415	-0.005874	0.002124	0.007569	-0.762207	0.117188	-0.324707	0.673998	-0.123828	-0.717205	-0.126529
23467		9.721469	0.120790	-0.597033	-0.011153	0.000280	0.006058	-0.766113	0.125977	-0.331055	0.673934	-0.123935	-0.717232	-0.126614
23468		9.763727	0.105397	-0.592511	-0.004561	0.002675	0.004305	-0.763428	0.124268	-0.328369	0.673931	-0.124036	-0.717209	-0.126659
23469		9.714436	0.100316	-0.586550	-0.002313	0.002277	0.004337	-0.770996	0.111572	-0.332520	0.673918	-0.124111	-0.717204	-0.126687
23470		9.717329	0.089178	-0.602961	-0.007776	-0.000138	0.007753	-0.767090	0.122070	-0.340332	0.673890	-0.124080	-0.717238	-0.126672
23471		9.703291	0.062538	-0.590894	-0.004389	0.000347	0.008753	-0.772949	0.127197	-0.332520	0.673937	-0.124101	-0.717202	-0.126603
23472		9.721469	0.101435	-0.588272	0.001560	0.003821	0.007589	-0.766846	0.117432	-0.333740	0.673949	-0.124187	-0.717182	-0.126576
23473		9.732749	0.091194	-0.615199	-0.003532	0.001462	0.009131	-0.768066	0.118164	-0.332031	0.673963	-0.124190	-0.717177	-0.126521
23474		9.741153	0.090658	-0.625718	-0.003346	0.001489	0.008194	-0.755615	0.129150	-0.328857	0.673960	-0.124206	-0.717183	-0.126486
23475		9.707941	0.094416	-0.588960	-0.003363	-0.000320	0.009587	-0.760254	0.113770	-0.331299	0.673958	-0.124370	-0.717161	-0.126460
23476		9.702680	0.093151	-0.601408	-0.003617	0.002624	0.006910	-0.762451	0.120605	-0.329590	0.673984	-0.124306	-0.717158	-0.126406
23477		9.718040	0.099737	-0.614105	-0.007276	0.003275	0.004626	-0.766357	0.116455	-0.333496	0.673986	-0.124353	-0.717141	-0.126445
23478		9.734177	0.065890	-0.614357	-0.010569	0.002529	0.005155	-0.759521	0.124023	-0.327148	0.673992	-0.124364	-0.717126	-0.126484
23479		9.699955	0.056647	-0.615024	-0.005792	0.001499	0.005807	-0.764648	0.119141	-0.329102	0.673974	-0.124463	-0.717121	-0.126514
23480		9.730193	0.089643	-0.595391	-0.001379	0.001317	0.007638	-0.766113	0.112305	-0.326416	0.673963	-0.124476	-0.717136	-0.126473
23481		9.705369	0.095093	-0.569063	-0.007452	0.003597	0.008863	-0.759521	0.114746	-0.335938	0.673946	-0.124480	-0.717153	-0.126467
23482		9.718865	0.082178	-0.559525	-0.009440	0.002505	0.006821	-0.754639	0.121338	-0.338135	0.673993	-0.124444	-0.717119	-0.126442
23483		9.708548	0.094077	-0.591471	-0.005046	0.001062	0.006051	-0.758789	0.115967	-0.328613	0.674060	-0.124425	-0.717070	-0.126383
23484		9.741192	0.093628	-0.574744	-0.002042	0.001133	0.005628	-0.760742	0.114746	-0.328613	0.674058	-0.124379	-0.717087	-0.126340
23485		9.720844	0.097228	-0.580710	-0.006176	0.001085	0.004387	-0.762939	0.118408	-0.333984	0.674041	-0.124346	-0.717108	-0.126345
23486		9.723724	0.086191	-0.597063	-0.007948	0.001633	0.007308	-0.766113	0.115234	-0.328613	0.674059	-0.124367	-0.717089	-0.126333
23487		9.723540	0.072523	-0.589523	-0.008302	0.003383	0.007794	-0.770508	0.116943	-0.329834	0.674049	-0.124396	-0.717091	-0.126348
23488		9.711354	0.065251	-0.599077	-0.005224	0.001935	0.006296	-0.766602	0.114746	-0.333496	0.674023	-0.124408	-0.717112	-0.126358
23489		9.710692	0.104214	-0.611092	-0.005607	0.000968	0.008868	-0.761963	0.112061	-0.329590	0.674029	-0.124388	-0.717119	-0.126307
23490		9.722728	0.096048	-0.593637	-0.007949	0.001630	0.007311	-0.769775	0.120361	-0.335449	0.674023	-0.124358	-0.717133	-0.126289
23491		9.723950	0.077221	-0.594606	-0.011224	0.002139	0.010445	-0.765381	0.111572	-0.328369	0.674035	-0.124455	-0.717104	-0.126292
23492		9.699269	0.052038	-0.607525	-0.005401	0.002806	0.006542	-0.763916	0.118408	-0.334717	0.674024	-0.124406	-0.717126	-0.126277
23493		9.682160	0.100284	-0.604302	-0.002675	0.003110	0.005529	-0.763672	0.122559	-0.331787	0.674064	-0.124352	-0.717107	-0.126224
23494		9.723191	0.101525	-0.598136	-0.008425	0.001481	0.004361	-0.767578	0.108154	-0.330566	0.674058	-0.124409	-0.717095	-0.126265
23495		9.739729	0.091913	-0.612514	-0.007762	0.002215	0.002380	-0.765625	0.112061	-0.327637	0.674040	-0.124295	-0.717129	-0.126285
23496		9.709201	0.117564	-0.553063	-0.005246	0.000116	0.007690	-0.763428	0.120361	-0.326660	0.674001	-0.124276	-0.717172	-0.126264
23497		9.689506	0.080037	-0.546818	-0.012841	0.001108	0.006528	-0.766113	0.114990	-0.332275	0.673956	-0.124407	-0.717175	-0.126353
23498		9.732340	0.057378	-0.595274	-0.011411	0.002658	0.007395	-0.765869	0.116943	-0.336182	0.673960	-0.124427	-0.717165	-0.126370
23499		9.751853	0.079770	-0.593920	-0.002977	0.001525	0.006332	-0.764648	0.108643	-0.326904	0.673992	-0.124357	-0.717161	-0.126296
23500		9.724568	0.076637	-0.597234	-0.005412	0.001893	0.007242	-0.766357	0.109375	-0.332520	0.673968	-0.124297	-0.717198	-0.126272
23501		9.707554	0.060421	-0.568457	-0.008644	-0.000713	0.003392	-0.760254	0.117432	-0.335693	0.673941	-0.124198	-0.717241	-0.126268
23502		9.725474	0.046145	-0.591582	-0.004580	0.001409	0.001716	-0.764648	0.112061	-0.332031	0.673976	-0.124091	-0.717233	-0.126227
23503		9.713961	0.106356	-0.582608	-0.000519	0.002968	0.004035	-0.769531	0.117920	-0.330566	0.673998	-0.123957	-0.717248	-0.126159
23504		9.709882	0.089124	-0.596132	-0.011225	0.002686	0.006460	-0.761475	0.114502	-0.330322	0.673980	-0.124027	-0.717243	-0.126217
23505		9.708618	0.062267	-0.626627	-0.013505	0.000928	0.004519	-0.766846	0.116455	-0.331787	0.673961	-0.124046	-0.717248	-0.126271
23506		9.723311	0.075766	-0.586985	-0.008844	-0.001655	0.005026	-0.760498	0.113525	-0.330078	0.673922	-0.124053	-0.717281	-0.126286
23507		9.731707	0.076179	-0.597827	-0.004572	0.001749	0.005019	-0.761719	0.116943	-0.331055	0.673928	-0.123987	-0.717293	-0.126250
23508		9.698303	0.103548	-0.618912	-0.005666	0.004499	0.001273	-0.758301	0.119629	-0.330078	0.673953	-0.123923	-0.717278	-0.126267
23509		9.707884	0.088084	-0.630391	-0.008320	0.002678	0.001208	-0.761230	0.120117	-0.334473	0.673961	-0.123915	-0.717264	-0.126313
23510		9.726292	0.063935	-0.601537	-0.005896	0.001403	0.000992	-0.766602	0.117188	-0.326416	0.673981	-0.123854	-0.717256	-0.126306
23511		9.725743	0.104339	-0.613455	-0.001017	0.001010	0.002472	-0.764160	0.115723	-0.334717	0.673938	-0.123833	-0.717296	-0.126329
23512		9.744722	0.103997	-0.598174	0.000812	0.004441	0.000075	-0.753418	0.114258	-0.334473	0.673989	-0.123663	-0.717289	-0.126268
23513		9.721594	0.118476	-0.586748	-0.006060	0.003185	0.000543	-0.769531	0.128174	-0.327881	0.674046	-0.123518	-0.717267	-0.126223
23514		9.695743	0.112226	-0.597986	-0.013376	0.003943	-0.000026	-0.763672	0.111084	-0.329590	0.674007	-0.123684	-0.717242	-0.126414
23515		9.718693	0.085998	-0.600812	-0.008982	0.002504	-0.000804	-0.763184	0.119141	-0.338379	0.673990	-0.123599	-0.717261	-0.126480
23516		9.728230	0.071131	-0.612968	-0.010249	-0.000829	-0.001224	-0.768799	0.115479	-0.336182	0.673999	-0.123519	-0.717263	-0.126496
23517		9.725678	0.093105	-0.602983	-0.008528	0.001394	-0.000459	-0.755127	0.111084	-0.334961	0.674003	-0.123427	-0.717272	-0.126520
23518		9.725172	0.068913	-0.588278	-0.011927	0.006734	0.003457	-0.762451	0.120850	-0.333984	0.674085	-0.123326	-0.717214	-0.126503
23519		9.738623	0.056790	-0.578372	-0.006533	0.002812	0.004892	-0.768555	0.114990	-0.332520	0.674116	-0.123321	-0.717191	-0.126478
23520		9.717470	0.089574	-0.589405	0.001055	0.001483	0.002747	-0.756592	0.116211	-0.335693	0.674115	-0.123213	-0.717220	-0.126425
23521		9.734444	0.134779	-0.578261	0.002831	0.000948	-0.000179	-0.761475	0.119385	-0.320312	0.674162	-0.123010	-0.717231	-0.126307
23522		9.728917	0.123569	-0.583703	-0.002309	0.002819	0.000361	-0.759521	0.107666	-0.331055	0.674100	-0.123076	-0.717256	-0.126430
23523		9.710039	0.123871	-0.597526	-0.003425	0.003757	-0.001996	-0.764160	0.113770	-0.327637	0.674120	-0.122888	-0.717270	-0.126426
23524		9.688888	0.157882	-0.608418	-0.010498	0.001556	0.000104	-0.765381	0.115479	-0.328613	0.674077	-0.122893	-0.717291	-0.126536
23525		9.745534	0.115351	-0.596578	-0.012177	0.002391	0.000564	-0.769043	0.120361	-0.333252	0.674043	-0.122923	-0.717297	-0.126654
23526		9.739722	0.091864	-0.595178	-0.009280	0.001254	0.003298	-0.764648	0.106689	-0.333740	0.674029	-0.122957	-0.717296	-0.126698
23527		9.707612	0.144653	-0.585719	-0.006662	0.000352	0.005443	-0.758545	0.111328	-0.329346	0.674030	-0.122844	-0.717325	-0.126640
23528		9.695106	0.125829	-0.589032	-0.008632	0.000514	0.006007	-0.765137	0.104980	-0.328613	0.674017	-0.122831	-0.717340	-0.126635
23529		9.738139	0.146676	-0.604894	-0.013669	0.003260	0.000088	-0.768799	0.110352	-0.327881	0.673990	-0.122768	-0.717358	-0.126740
23530		9.750542	0.121558	-0.633618	-0.008826	0.000143	0.003643	-0.765381	0.109619	-0.323975	0.673932	-0.122772	-0.717400	-0.126805
23531		9.725093	0.104340	-0.593511	-0.008091	0.005760	0.001507	-0.754639	0.119629	-0.334229	0.673907	-0.122771	-0.717404	-0.126918
23532		9.703087	0.101701	-0.583679	-0.007590	0.001322	0.002150	-0.763672	0.110107	-0.334473	0.673942	-0.122725	-0.717384	-0.126892
23533		9.696126	0.094834	-0.580991	-0.007602	0.000413	0.002842	-0.757080	0.118164	-0.335205	0.673947	-0.122615	-0.717405	-0.126855
23534		9.707722	0.098422	-0.614752	0.000917	0.005078	0.000921	-0.766357	0.112305	-0.327637	0.674027	-0.122459	-0.717373	-0.126757
23535		9.743226	0.088965	-0.613766	-0.002467	0.004931	0.003226	-0.760498	0.112305	-0.332031	0.674026	-0.122419	-0.717377	-0.126779
23536		9.728506	0.104041	-0.613297	-0.001292	0.001570	0.005190	-0.763184	0.110840	-0.333496	0.674046	-0.122322	-0.717390	-0.126693
23537		9.728403	0.133063	-0.573508	0.002739	0.000975	0.005593	-0.763184	0.109375	-0.331055	0.674069	-0.122171	-0.717418	-0.126554
23538		9.715107	0.143137	-0.581563	-0.000406	0.004498	0.004192	-0.764893	0.108643	-0.334961	0.674101	-0.122048	-0.717421	-0.126487
23539		9.711358	0.138224	-0.601656	-0.002479	0.004022	0.003918	-0.758545	0.110596	-0.319824	0.674146	-0.121889	-0.717422	-0.126394
23540		9.727430	0.169601	-0.627849	-0.003825	0.001871	0.001271	-0.758789	0.117432	-0.334473	0.674077	-0.121931	-0.717458	-0.126520
23541		9.711449	0.136867	-0.600488	-0.012097	0.001540	0.006093	-0.763428	0.112793	-0.332275	0.674102	-0.121950	-0.717434	-0.126505
23542		9.725631	0.094945	-0.586213	-0.015113	0.000885	0.010517	-0.767334	0.116943	-0.333252	0.674096	-0.122033	-0.717425	-0.126507
23543		9.706454	0.081235	-0.593564	-0.004184	0.003037	0.005765	-0.770020	0.118164	-0.330078	0.674114	-0.122011	-0.717418	-0.126469
23544		9.713697	0.128793	-0.562490	0.001274	0.003659	0.003734	-0.765381	0.115479	-0.341064	0.674114	-0.121986	-0.717425	-0.126453
23545		9.742507	0.146953	-0.624357	-0.010173	0.004703	0.005235	-0.759277	0.119629	-0.337646	0.674196	-0.121889	-0.717381	-0.126367
23546		9.705881	0.106590	-0.595945	-0.016960	0.003168	0.007233	-0.764404	0.108887	-0.337402	0.674249	-0.121932	-0.717326	-0.126353
23547		9.721781	0.072355	-0.596680	-0.012669	0.001096	0.005611	-0.761719	0.111572	-0.335205	0.674270	-0.121852	-0.717327	-0.126305
23548		9.724859	0.104291	-0.580409	-0.007591	0.001319	0.002153	-0.771484	0.119629	-0.331543	0.674289	-0.121742	-0.717336	-0.126265
23549		9.716490	0.102386	-0.568804	-0.009418	0.004844	0.001483	-0.767334	0.107910	-0.328369	0.674286	-0.121777	-0.717317	-0.126352
23550		9.715598	0.088359	-0.605574	-0.003691	0.004649	0.004037	-0.761963	0.115479	-0.326660	0.674280	-0.121732	-0.717327	-0.126376
23551		9.718382	0.107706	-0.582039	-0.002140	0.001686	0.007425	-0.766357	0.115479	-0.337646	0.674259	-0.121779	-0.717339	-0.126372
23552		9.709567	0.145238	-0.583120	-0.002374	-0.001406	0.007131	-0.761475	0.116211	-0.331787	0.674273	-0.121686	-0.717366	-0.126232
23553		9.723234	0.145023	-0.581298	-0.007228	0.000483	0.000966	-0.767334	0.115479	-0.331299	0.674261	-0.121650	-0.717380	-0.126254
23554		9.719805	0.153230	-0.608427	-0.004702	0.005904	-0.000785	-0.763672	0.109863	-0.330566	0.674279	-0.121585	-0.717365	-0.126301
23555		9.727966	0.142828	-0.611253	-0.010747	0.003932	0.001450	-0.764648	0.116455	-0.330078	0.674277	-0.121553	-0.717360	-0.126368
23556		9.727986	0.142201	-0.611085	-0.014235	-0.002913	0.005283	-0.762695	0.116455	-0.334229	0.674210	-0.121657	-0.717392	-0.126448
23557		9.716692	0.148887	-0.584143	-0.014147	-0.003189	0.006813	-0.765137	0.114746	-0.327637	0.674177	-0.121710	-0.717414	-0.126449
23558		9.702364	0.122619	-0.572630	-0.007208	0.002036	0.006892	-0.765137	0.113281	-0.330566	0.674151	-0.121779	-0.717420	-0.126488
23559		9.723085	0.128499	-0.572354	-0.002756	0.004246	0.003342	-0.755615	0.119141	-0.337891	0.674166	-0.121721	-0.717418	-0.126475
23560		9.722863	0.138026	-0.623224	-0.004785	0.000766	0.006667	-0.761963	0.113525	-0.322510	0.674226	-0.121642	-0.717400	-0.126336
23561		9.716943	0.113290	-0.622600	-0.008496	-0.002204	0.007149	-0.762451	0.123047	-0.329834	0.674133	-0.121786	-0.717445	-0.126436
23562		9.731941	0.085161	-0.571153	-0.009315	-0.000583	0.004693	-0.770264	0.116943	-0.332764	0.674100	-0.121885	-0.717449	-0.126489
23563		9.720780	0.062196	-0.583043	-0.001298	0.001231	0.001892	-0.770508	0.112061	-0.326904	0.674091	-0.121817	-0.717474	-0.126466
23564		9.701920	0.115145	-0.615641	0.003829	0.004514	-0.000332	-0.763916	0.106445	-0.325928	0.674077	-0.121716	-0.717502	-0.126479
23565		9.715651	0.115651	-0.612620	-0.001340	0.004559	0.001601	-0.766846	0.118896	-0.329590	0.674068	-0.121626	-0.717522	-0.126497
23566		9.736013	0.109588	-0.605733	-0.007517	0.000449	0.007686	-0.769531	0.109863	-0.329590	0.674040	-0.121717	-0.717530	-0.126517
23567		9.734614	0.112649	-0.597296	-0.004334	-0.000347	0.007008	-0.767578	0.105225	-0.334961	0.674002	-0.121703	-0.717573	-0.126487
23568		9.716383	0.112583	-0.566771	-0.000504	0.004166	0.006678	-0.768799	0.114258	-0.336670	0.674049	-0.121536	-0.717581	-0.126348
23569		9.702101	0.139776	-0.572734	0.000166	0.004596	0.001389	-0.767334	0.110840	-0.337646	0.674100	-0.121376	-0.717575	-0.126262
23570		9.701239	0.178896	-0.628207	-0.000024	0.004557	0.002329	-0.770020	0.118652	-0.329102	0.674162	-0.121183	-0.717571	-0.126143
23571		9.712813	0.159178	-0.603656	-0.010045	0.001082	0.007073	-0.766357	0.106445	-0.328857	0.674123	-0.121303	-0.717577	-0.126207
23572		9.742653	0.137396	-0.609482	-0.009753	0.001754	0.006974	-0.760254	0.112793	-0.327637	0.674097	-0.121314	-0.717596	-0.126226
23573		9.712191	0.132075	-0.589063	-0.002856	0.003926	0.005817	-0.763428	0.115234	-0.333008	0.674107	-0.121305	-0.717590	-0.126212
23574		9.711596	0.159589	-0.593099	0.000445	0.004675	0.005289	-0.760742	0.110352	-0.337646	0.674154	-0.121222	-0.717575	-0.126125
23575		9.713842	0.177501	-0.614123	-0.010965	0.002388	0.007088	-0.760010	0.109375	-0.333008	0.674202	-0.121152	-0.717557	-0.126042
23576		9.730695	0.126285	-0.616601	-0.017832	0.002035	0.006868	-0.763672	0.116699	-0.327393	0.674207	-0.121188	-0.717540	-0.126075
23577		9.717758	0.095130	-0.612847	-0.010585	0.002779	0.008520	-0.769287	0.102783	-0.333984	0.674188	-0.121316	-0.717526	-0.126135
23578		9.704087	0.122406	-0.574437	-0.006174	0.002575	0.010348	-0.770264	0.114014	-0.332764	0.674205	-0.121238	-0.717541	-0.126029
23579		9.726263	0.122648	-0.582465	-0.006800	0.004240	0.006953	-0.765137	0.117920	-0.328857	0.674221	-0.121239	-0.717529	-0.126010
23580		9.715898	0.122888	-0.607188	-0.005898	0.002020	0.007629	-0.763184	0.118408	-0.334717	0.674207	-0.121313	-0.717528	-0.126021
23581		9.708491	0.132219	-0.557620	-0.006436	0.004035	0.012384	-0.765137	0.110596	-0.333008	0.674261	-0.121352	-0.717489	-0.125921
23582		9.725471	0.132446	-0.578377	-0.007490	0.002885	0.012937	-0.765137	0.115234	-0.327393	0.674286	-0.121373	-0.717478	-0.125829
23583		9.727982	0.108029	-0.587814	-0.009376	0.002451	0.011723	-0.765869	0.108154	-0.333496	0.674267	-0.121509	-0.717469	-0.125849
23584		9.734666	0.099909	-0.582979	-0.006851	0.001500	0.009025	-0.765869	0.115479	-0.325684	0.674276	-0.121465	-0.717482	-0.125769
23585		9.719059	0.130504	-0.580827	-0.004742	0.004106	0.011235	-0.760498	0.115967	-0.334961	0.674266	-0.121579	-0.717471	-0.125778
23586		9.713109	0.104792	-0.579321	-0.009187	0.002488	0.010785	-0.774658	0.111328	-0.319580	0.674305	-0.121599	-0.717445	-0.125696
23587		9.738106	0.094578	-0.604544	-0.006489	0.001287	0.014459	-0.763672	0.116943	-0.330078	0.674213	-0.121823	-0.717479	-0.125775
23588		9.722482	0.154138	-0.563281	0.000430	-0.000784	0.014276	-0.770264	0.109131	-0.326416	0.674206	-0.121872	-0.717501	-0.125644
23589		9.694785	0.137812	-0.560509	-0.006783	0.000303	0.011248	-0.764404	0.112793	-0.330078	0.674156	-0.121944	-0.717537	-0.125633
23590		9.720206	0.140352	-0.592387	-0.012542	0.003842	0.008412	-0.774170	0.110840	-0.332031	0.674161	-0.122005	-0.717518	-0.125656
23591		9.730253	0.094419	-0.599264	-0.010710	0.001224	0.008382	-0.770020	0.116699	-0.332031	0.674134	-0.122035	-0.717538	-0.125656
23592		9.723678	0.098306	-0.603262	-0.007700	0.001298	0.007954	-0.765137	0.127197	-0.324463	0.674121	-0.122076	-0.717546	-0.125644
23593		9.701576	0.094148	-0.594518	-0.011907	-0.002383	0.009470	-0.767334	0.118652	-0.334473	0.674037	-0.122338	-0.717559	-0.125768
23594		9.730854	0.059649	-0.594032	-0.008807	0.002561	0.008914	-0.768066	0.112793	-0.335205	0.674056	-0.122376	-0.717540	-0.125733
23595		9.702164	0.061144	-0.589126	-0.001889	0.000488	0.008727	-0.769775	0.113525	-0.334717	0.674071	-0.122299	-0.717562	-0.125603
23596		9.728980	0.058949	-0.629519	0.000414	0.003131	0.009999	-0.762207	0.113525	-0.330322	0.674108	-0.122225	-0.717565	-0.125457
23597		9.713011	0.077480	-0.620736	0.000291	0.001587	0.009845	-0.769531	0.116455	-0.331787	0.674122	-0.122187	-0.717579	-0.125340
23598		9.722490	0.089725	-0.593390	-0.001823	-0.000710	0.010948	-0.764404	0.122803	-0.327881	0.674105	-0.122202	-0.717609	-0.125242
23599		9.706502	0.108266	-0.585198	0.003941	0.000590	0.008811	-0.765381	0.119629	-0.330078	0.674095	-0.122232	-0.717627	-0.125168
23600		9.699447	0.140882	-0.594272	0.000101	0.001238	0.007473	-0.765381	0.117920	-0.330811	0.674093	-0.122232	-0.717640	-0.125105
23601		9.722115	0.112807	-0.597435	-0.002175	0.004662	0.003855	-0.765625	0.118896	-0.328125	0.674117	-0.122192	-0.717627	-0.125085
23602		9.722161	0.111430	-0.596939	-0.007082	-0.000687	0.008042	-0.772217	0.118896	-0.337158	0.674076	-0.122276	-0.717649	-0.125097
23603		9.707123	0.113567	-0.590485	-0.007912	0.000338	0.009591	-0.757080	0.111084	-0.335449	0.674082	-0.122298	-0.717651	-0.125032
23604		9.705777	0.115823	-0.581665	-0.006837	0.002699	0.011669	-0.769043	0.119385	-0.328369	0.674139	-0.122250	-0.717631	-0.124890
23605		9.728881	0.098996	-0.591789	-0.003757	0.000969	0.006826	-0.765381	0.115479	-0.330322	0.674110	-0.122297	-0.717650	-0.124891
23606		9.705342	0.110756	-0.625547	-0.006560	0.002155	0.008943	-0.764160	0.112061	-0.325928	0.674111	-0.122326	-0.717650	-0.124857
23607		9.710602	0.107500	-0.612184	-0.010972	0.002674	0.010433	-0.759521	0.113525	-0.334473	0.674090	-0.122418	-0.717651	-0.124876
23608		9.722438	0.098413	-0.594701	-0.014213	0.000428	0.009867	-0.767090	0.115967	-0.333008	0.674101	-0.122451	-0.717642	-0.124836
23609		9.709254	0.066914	-0.591330	-0.013601	0.002684	0.008983	-0.759766	0.119141	-0.336426	0.674107	-0.122514	-0.717624	-0.124841
23610		9.726226	0.068172	-0.612503	-0.009506	0.000576	0.008281	-0.764648	0.118408	-0.331787	0.674134	-0.122516	-0.717610	-0.124774
23611		9.711708	0.082306	-0.612175	-0.009639	0.003571	0.010479	-0.766602	0.114258	-0.333984	0.674155	-0.122583	-0.717583	-0.124749
23612		9.722652	0.089703	-0.592590	-0.009384	0.002413	0.011758	-0.765869	0.116699	-0.329590	0.674176	-0.122609	-0.717572	-0.124673
23613		9.741551	0.086680	-0.577445	-0.009127	0.000958	0.009718	-0.764160	0.117188	-0.328369	0.674158	-0.122680	-0.717579	-0.124664
23614		9.741100	0.072313	-0.570315	-0.007963	0.002732	0.010013	-0.767334	0.123291	-0.328857	0.674155	-0.122754	-0.717571	-0.124654
23615		9.694110	0.086318	-0.586308	-0.006332	0.004309	0.009955	-0.769531	0.114502	-0.333984	0.674165	-0.122857	-0.717544	-0.124657
23616		9.719612	0.088839	-0.617668	-0.006904	0.003878	0.009465	-0.761719	0.121582	-0.327637	0.674193	-0.122843	-0.717532	-0.124587
23617		9.731786	0.050793	-0.595399	-0.006732	-0.001235	0.010174	-0.762451	0.114502	-0.322510	0.674157	-0.122950	-0.717549	-0.124576
23618		9.739897	0.067735	-0.559807	-0.001346	-0.000026	0.009920	-0.762207	0.111084	-0.332031	0.674112	-0.123001	-0.717589	-0.124543
23619		9.712771	0.104820	-0.575007	0.005648	0.002138	0.013615	-0.764648	0.115967	-0.332764	0.674156	-0.122898	-0.717606	-0.124307
23620		9.708182	0.115140	-0.593684	-0.002577	0.003937	0.009764	-0.772705	0.121094	-0.336670	0.674195	-0.122863	-0.717593	-0.124201
23621		9.712932	0.111029	-0.624942	-0.008916	0.001914	0.008093	-0.766113	0.118896	-0.336182	0.674208	-0.122884	-0.717584	-0.124163
23622		9.747199	0.075434	-0.611453	-0.005927	0.001069	0.008350	-0.763428	0.117188	-0.329590	0.674229	-0.122859	-0.717583	-0.124076
23623		9.714166	0.050464	-0.569878	-0.001981	0.000744	0.007211	-0.758789	0.115723	-0.330078	0.674222	-0.122841	-0.717604	-0.124017
23624		9.695879	0.061018	-0.591039	-0.004997	0.000964	0.010965	-0.763672	0.118896	-0.328369	0.674230	-0.122858	-0.717608	-0.123932
23625		9.695621	0.087345	-0.595264	0.001282	0.004187	0.010418	-0.761230	0.108154	-0.328857	0.674256	-0.122861	-0.717599	-0.123840
23626		9.747405	0.066603	-0.609194	-0.003571	0.005529	0.008256	-0.763672	0.119873	-0.333496	0.674292	-0.122792	-0.717591	-0.123757
23627		9.728096	0.053246	-0.616360	-0.008918	0.001912	0.008097	-0.764648	0.116455	-0.332520	0.674305	-0.122819	-0.717579	-0.123725
23628		9.718269	0.054084	-0.596691	-0.001882	0.001655	0.011382	-0.759521	0.118896	-0.320312	0.674325	-0.122802	-0.717585	-0.123600
23629		9.725436	0.057459	-0.598269	0.004482	0.004585	0.012369	-0.765137	0.114258	-0.337402	0.674327	-0.122875	-0.717582	-0.123540
23630		9.706427	0.084233	-0.616523	-0.004125	0.006302	0.010402	-0.768066	0.117676	-0.331787	0.674408	-0.122794	-0.717544	-0.123393
23631		9.707344	0.065511	-0.617116	-0.006899	0.003581	0.006154	-0.759521	0.124268	-0.332764	0.674418	-0.122792	-0.717537	-0.123380
23632		9.732535	0.086376	-0.601925	-0.008768	0.004368	0.007570	-0.763428	0.115479	-0.333740	0.674456	-0.122844	-0.717494	-0.123373
23633		9.723557	0.070554	-0.583560	-0.010876	0.003275	0.011306	-0.765869	0.115234	-0.325684	0.674484	-0.122878	-0.717472	-0.123314
23634		9.720866	0.077792	-0.565748	-0.012820	0.004065	0.007867	-0.766602	0.115723	-0.337402	0.674462	-0.122982	-0.717462	-0.123389
23635		9.717132	0.072314	-0.586331	-0.013465	0.000886	0.009437	-0.765869	0.122070	-0.341309	0.674475	-0.122992	-0.717457	-0.123335
23636		9.729701	0.046542	-0.570424	-0.015262	0.004419	0.008795	-0.760986	0.121338	-0.322266	0.674538	-0.123008	-0.717403	-0.123288
23637		9.718057	0.051691	-0.586599	-0.011911	0.002749	0.007851	-0.757080	0.116455	-0.333984	0.674497	-0.123181	-0.717392	-0.123406
23638		9.705013	0.061723	-0.594726	-0.008561	0.001079	0.006905	-0.768066	0.121338	-0.331299	0.674515	-0.123152	-0.717390	-0.123346
23639		9.714774	0.045669	-0.562466	-0.012639	-0.000139	0.007887	-0.762939	0.118896	-0.332031	0.674482	-0.123246	-0.717399	-0.123382
23640		9.716183	0.039061	-0.570517	-0.008986	0.003388	0.009214	-0.762939	0.111084	-0.331787	0.674503	-0.123282	-0.717379	-0.123350
23641		9.713423	0.086937	-0.608936	-0.004186	0.002965	0.005830	-0.766113	0.124023	-0.324951	0.674520	-0.123193	-0.717390	-0.123275
23642		9.717238	0.089025	-0.587402	-0.008693	-0.000466	0.006747	-0.764893	0.117188	-0.333008	0.674458	-0.123328	-0.717411	-0.123358
23643		9.713887	0.084773	-0.564251	-0.019477	-0.002874	0.007256	-0.762451	0.111816	-0.325439	0.674405	-0.123424	-0.717435	-0.123414
23644		9.729716	0.062388	-0.572581	-0.009553	0.002675	0.005401	-0.760010	0.120850	-0.327148	0.674380	-0.123443	-0.717448	-0.123454
23645		9.713505	0.081776	-0.608337	-0.011713	0.002507	0.003592	-0.765381	0.125488	-0.324463	0.674361	-0.123511	-0.717440	-0.123544
23646		9.705996	0.033539	-0.594333	-0.019299	0.000495	0.006050	-0.766846	0.123047	-0.331787	0.674291	-0.123736	-0.717434	-0.123735
23647		9.757027	0.001626	-0.603026	-0.010413	-0.001755	0.005273	-0.766846	0.122803	-0.328125	0.674249	-0.123792	-0.717458	-0.123767
23648		9.718096	0.064966	-0.588946	-0.003327	-0.000190	0.007183	-0.769531	0.123047	-0.326660	0.674217	-0.123833	-0.717483	-0.123753
23649		9.704898	0.063014	-0.546050	-0.005943	0.001310	0.011697	-0.765869	0.118164	-0.321289	0.674190	-0.123952	-0.717489	-0.123745
23650		9.719524	0.055686	-0.596954	-0.006404	0.001228	0.008726	-0.768555	0.119385	-0.326660	0.674139	-0.124048	-0.717515	-0.123779
23651		9.720748	0.078558	-0.610096	-0.006441	-0.001159	0.003444	-0.764893	0.115479	-0.333252	0.674080	-0.124065	-0.717561	-0.123817
23652		9.741549	0.084163	-0.610440	-0.006123	0.000706	0.005990	-0.758057	0.127930	-0.331055	0.674082	-0.124006	-0.717580	-0.123750
23653		9.731243	0.044936	-0.579630	-0.009386	0.001799	0.005151	-0.762939	0.123291	-0.334473	0.674087	-0.124082	-0.717555	-0.123797
23654		9.715931	0.018223	-0.613136	-0.007682	-0.001168	0.007580	-0.761963	0.115723	-0.325195	0.674080	-0.124107	-0.717563	-0.123758
23655		9.723070	0.022635	-0.615454	0.000365	0.000921	0.008093	-0.764648	0.119629	-0.331299	0.674065	-0.124076	-0.717597	-0.123678
23656		9.693961	0.071037	-0.568677	0.002365	0.001679	0.006835	-0.763184	0.121338	-0.328369	0.674081	-0.124001	-0.717614	-0.123566
23657		9.728168	0.047053	-0.606348	-0.001611	0.004135	0.005077	-0.759521	0.119873	-0.330566	0.674098	-0.123978	-0.717606	-0.123541
23658		9.744489	0.065704	-0.625288	0.000011	0.001464	0.005971	-0.765381	0.114746	-0.325439	0.674113	-0.123919	-0.717617	-0.123458
23659		9.718876	0.087984	-0.597397	-0.002844	0.000799	0.009475	-0.763184	0.115967	-0.329346	0.674089	-0.123922	-0.717650	-0.123392
23660		9.706623	0.081249	-0.607429	-0.008046	0.002702	0.005195	-0.760498	0.115967	-0.329834	0.674090	-0.123902	-0.717654	-0.123383
23661		9.721075	0.063643	-0.606613	-0.005966	0.003162	0.005472	-0.761475	0.123291	-0.338379	0.674106	-0.123860	-0.717653	-0.123345
23662		9.730383	0.047248	-0.618415	-0.002651	0.003902	0.004941	-0.760986	0.123291	-0.325439	0.674169	-0.123778	-0.717623	-0.123257
23663		9.716773	0.045690	-0.619706	-0.003551	0.001885	0.005229	-0.758789	0.125732	-0.332520	0.674152	-0.123817	-0.717629	-0.123278
23664		9.727079	0.041834	-0.594117	-0.004204	-0.001297	0.006791	-0.763916	0.116943	-0.320557	0.674145	-0.123841	-0.717638	-0.123240
23665		9.711989	0.073276	-0.592017	-0.001452	0.003533	0.008150	-0.763916	0.119141	-0.333008	0.674124	-0.123871	-0.717654	-0.123226
23666		9.710686	0.076161	-0.582756	-0.004379	0.002896	0.006791	-0.768555	0.114990	-0.321777	0.674150	-0.123835	-0.717648	-0.123162
23667		9.699808	0.065105	-0.600992	-0.007007	0.002930	0.005336	-0.761963	0.118652	-0.326904	0.674110	-0.123864	-0.717673	-0.123204
23668		9.732314	0.063600	-0.583658	-0.007219	0.001689	0.003637	-0.766846	0.121094	-0.324707	0.674090	-0.123866	-0.717686	-0.123232
23669		9.714199	0.075807	-0.604368	-0.008593	0.003193	0.004020	-0.762939	0.126709	-0.333740	0.674063	-0.123923	-0.717688	-0.123310
23670		9.712307	0.038403	-0.584009	-0.010596	0.002434	0.005279	-0.764160	0.120117	-0.333984	0.674074	-0.123992	-0.717658	-0.123358
23671		9.714355	0.044702	-0.598546	-0.009115	0.001547	0.005747	-0.769287	0.119385	-0.330811	0.674082	-0.123992	-0.717653	-0.123345
23672		9.722205	0.061530	-0.606797	-0.003534	0.003066	0.007878	-0.768555	0.117432	-0.336914	0.674092	-0.123982	-0.717655	-0.123290
23673		9.741058	0.058779	-0.591342	-0.008631	0.002538	0.008038	-0.761230	0.116699	-0.328125	0.674119	-0.123956	-0.717645	-0.123223
23674		9.704594	0.042493	-0.577680	-0.009532	0.000520	0.008325	-0.765869	0.124268	-0.327637	0.674101	-0.123992	-0.717659	-0.123207
23675		9.708668	0.056102	-0.607336	-0.000042	0.002671	0.003758	-0.757568	0.114746	-0.328857	0.674097	-0.123978	-0.717666	-0.123202
23676		9.720286	0.105418	-0.598693	-0.000685	0.003998	0.007706	-0.763672	0.123779	-0.328857	0.674133	-0.123902	-0.717663	-0.123094
23677		9.734741	0.058294	-0.593249	-0.012493	0.002290	0.007393	-0.765869	0.121094	-0.328613	0.674121	-0.124013	-0.717645	-0.123157
23678		9.722445	0.080258	-0.608071	-0.011732	-0.000296	0.010532	-0.763428	0.116455	-0.327148	0.674087	-0.124127	-0.717654	-0.123170
23679		9.705403	0.103407	-0.591075	-0.003707	0.000863	0.011733	-0.764648	0.120117	-0.325684	0.674079	-0.124147	-0.717674	-0.123078
23680		9.715708	0.098251	-0.565364	-0.010391	0.000603	0.010577	-0.766357	0.117920	-0.328369	0.674046	-0.124258	-0.717684	-0.123091
23681		9.729714	0.079121	-0.609666	-0.014664	0.002393	0.008919	-0.764404	0.121094	-0.326660	0.674031	-0.124347	-0.717677	-0.123127
23682		9.745461	0.055814	-0.617532	-0.010257	0.002137	0.010747	-0.764160	0.120850	-0.326904	0.674017	-0.124454	-0.717670	-0.123137
23683		9.729795	0.045329	-0.604198	-0.009274	0.000522	0.012255	-0.765381	0.124756	-0.332520	0.673995	-0.124563	-0.717675	-0.123117
23684		9.723996	0.032121	-0.610298	-0.008029	0.000543	0.008116	-0.766113	0.121826	-0.322998	0.673988	-0.124622	-0.717672	-0.123111
23685		9.724696	0.042504	-0.616771	-0.003339	-0.000222	0.007198	-0.767578	0.114014	-0.334473	0.673941	-0.124668	-0.717708	-0.123111
23686		9.714153	0.031220	-0.590589	-0.004284	0.003751	0.010992	-0.756348	0.123535	-0.333008	0.673985	-0.124605	-0.717703	-0.122967
23687		9.724089	0.025701	-0.609127	-0.009792	0.001936	0.010397	-0.765381	0.124268	-0.330566	0.674010	-0.124674	-0.717673	-0.122934
23688		9.739135	0.019425	-0.615152	-0.006765	0.001745	0.006627	-0.777588	0.125000	-0.334229	0.674007	-0.124712	-0.717669	-0.122937
23689		9.735805	0.043856	-0.595830	-0.004245	0.001085	0.007230	-0.760010	0.111816	-0.330811	0.673997	-0.124727	-0.717680	-0.122906
23690		9.707811	0.029347	-0.592995	-0.008935	0.001848	0.008150	-0.760254	0.123535	-0.327393	0.674010	-0.124677	-0.717691	-0.122824
23691		9.696186	0.005879	-0.604939	-0.010414	0.002735	0.007686	-0.756836	0.118652	-0.325195	0.674007	-0.124762	-0.717673	-0.122861
23692		9.733417	0.001677	-0.619730	-0.005015	0.000604	0.007684	-0.766602	0.121826	-0.326172	0.673992	-0.124772	-0.717692	-0.122824
23693		9.735850	0.007732	-0.589827	-0.000685	0.000649	0.007974	-0.763428	0.122559	-0.337158	0.673971	-0.124777	-0.717719	-0.122771
23694		9.735955	0.034842	-0.593977	-0.000353	0.002242	0.007196	-0.761719	0.115723	-0.329346	0.674016	-0.124703	-0.717711	-0.122652
23695		9.703998	0.063210	-0.569980	0.001155	0.002275	0.006978	-0.763428	0.119141	-0.330322	0.674035	-0.124602	-0.717731	-0.122526
23696		9.701712	0.082877	-0.603616	-0.002015	0.002819	0.004343	-0.770020	0.118652	-0.330811	0.674050	-0.124529	-0.717739	-0.122470
23697		9.723959	0.083626	-0.611706	-0.007310	0.002241	0.005452	-0.757568	0.122803	-0.324463	0.674045	-0.124511	-0.717750	-0.122454
23698		9.711582	0.048441	-0.617377	-0.012168	0.000545	0.006887	-0.771484	0.110840	-0.327393	0.674010	-0.124619	-0.717752	-0.122524
23699		9.722457	0.027530	-0.593716	-0.009152	0.000611	0.006450	-0.760498	0.117188	-0.332520	0.673977	-0.124579	-0.717797	-0.122486
23700		9.706514	0.047057	-0.629568	-0.006541	0.002716	0.005003	-0.763672	0.124756	-0.330811	0.674001	-0.124515	-0.717795	-0.122431
23701		9.745455	0.038970	-0.607958	-0.006767	0.001736	0.006634	-0.761230	0.123535	-0.325928	0.674001	-0.124551	-0.717788	-0.122430
23702		9.724632	0.030971	-0.607327	-0.008276	0.001702	0.006854	-0.763428	0.124023	-0.328125	0.673984	-0.124623	-0.717787	-0.122465
23703		9.711747	0.041348	-0.615303	-0.005423	0.002634	0.006680	-0.761719	0.126465	-0.332031	0.673984	-0.124657	-0.717780	-0.122466
23704		9.718999	0.046233	-0.616764	-0.003688	0.003646	0.004831	-0.760498	0.119141	-0.321289	0.674012	-0.124654	-0.717756	-0.122457
23705		9.715612	0.042412	-0.592623	-0.010045	0.001666	0.003148	-0.765625	0.114990	-0.334229	0.673969	-0.124695	-0.717775	-0.122538
23706		9.719089	0.044786	-0.615450	-0.009137	0.003681	0.002868	-0.771729	0.118408	-0.326660	0.673994	-0.124605	-0.717772	-0.122507
23707		9.722464	0.017926	-0.633366	-0.008816	0.005524	0.005430	-0.763672	0.119629	-0.332764	0.673997	-0.124619	-0.717763	-0.122537
23708		9.739209	0.008005	-0.602546	-0.007477	0.003097	0.005723	-0.761719	0.124756	-0.322021	0.674018	-0.124592	-0.717753	-0.122505
23709		9.705185	0.029008	-0.563621	-0.003512	0.000623	0.007471	-0.761719	0.121582	-0.326660	0.673981	-0.124668	-0.717771	-0.122526
23710		9.713905	0.057690	-0.578600	-0.001157	0.000826	0.008338	-0.766357	0.129883	-0.326172	0.673972	-0.124671	-0.717789	-0.122464
23711		9.717401	0.058945	-0.601394	-0.009314	0.004793	0.006473	-0.766602	0.125488	-0.325684	0.673970	-0.124802	-0.717752	-0.122564
23712		9.727377	0.054823	-0.619515	-0.012048	0.004225	0.004165	-0.767334	0.122803	-0.330811	0.673955	-0.124896	-0.717730	-0.122677
23713		9.730111	0.045150	-0.635947	-0.007242	0.000503	0.001004	-0.763916	0.125488	-0.329834	0.673930	-0.124873	-0.717750	-0.122719
23714		9.717965	0.011196	-0.596958	-0.008702	0.002561	0.003198	-0.759521	0.116699	-0.318604	0.673924	-0.124908	-0.717739	-0.122781
23715		9.712148	-0.000608	-0.602548	-0.007945	0.003284	0.006086	-0.758057	0.125000	-0.332520	0.673900	-0.124933	-0.717753	-0.122804
23716		9.720934	0.028722	-0.616793	-0.001138	0.003898	0.004757	-0.761719	0.122559	-0.330566	0.673940	-0.124896	-0.717728	-0.122764
23717		9.701956	0.045925	-0.583717	-0.000910	0.004879	0.003128	-0.764893	0.129639	-0.335205	0.673976	-0.124830	-0.717712	-0.122733
23718		9.749743	0.022944	-0.618974	-0.006751	0.004802	0.003059	-0.758545	0.124268	-0.326416	0.674009	-0.124860	-0.717666	-0.122788
23719		9.721908	0.038456	-0.620067	-0.000507	0.002839	0.004135	-0.769043	0.116943	-0.332764	0.674015	-0.124839	-0.717666	-0.122774
23720		9.724554	0.073883	-0.593809	0.002061	0.004267	0.006711	-0.767578	0.122070	-0.331299	0.674055	-0.124722	-0.717672	-0.122641
23721		9.695185	0.064305	-0.582070	-0.007208	0.002838	0.006318	-0.761719	0.119873	-0.328857	0.674060	-0.124738	-0.717665	-0.122638
23722		9.706515	0.055509	-0.608833	-0.007882	0.005128	0.004723	-0.768799	0.120605	-0.325684	0.674083	-0.124729	-0.717643	-0.122648
23723		9.727260	0.032233	-0.603477	0.000960	0.004105	0.001698	-0.768555	0.119629	-0.331299	0.674083	-0.124646	-0.717661	-0.122630
23725		9.726993	0.062027	-0.580153	-0.006139	0.002324	0.005897	-0.765137	0.114502	-0.330322	0.674104	-0.124730	-0.717629	-0.122613
23726		9.716347	0.064938	-0.578020	-0.003239	0.003682	0.007823	-0.769287	0.121338	-0.331299	0.674130	-0.124656	-0.717636	-0.122509
23727		9.730073	0.063527	-0.574972	-0.002542	0.004471	0.005836	-0.765869	0.121582	-0.329346	0.674153	-0.124620	-0.717627	-0.122467
23728		9.708448	0.072494	-0.616581	-0.010303	0.003078	0.005222	-0.766846	0.114014	-0.328857	0.674149	-0.124657	-0.717618	-0.122508
23730		9.724179	0.050405	-0.602215	-0.013848	0.000530	0.002714	-0.763916	0.120361	-0.334717	0.674101	-0.124777	-0.717619	-0.122646
23731		9.709659	0.007726	-0.570630	-0.012404	0.002859	0.008289	-0.764648	0.116699	-0.333008	0.674120	-0.124818	-0.717595	-0.122638
