// Start Time: Unknown
// Update Rate: 40.0Hz
// Filter Profile: human (46.1)
// Firmware Version: 4.6.0
PacketCounter	SampleTimeFine	Acc_X	Acc_Y	Acc_Z	Gyr_X	Gyr_Y	Gyr_Z	Mag_X	Mag_Y	Mag_Z	Quat_q0	Quat_q1	Quat_q2	Quat_q3
23208		9.727730	0.281394	-0.811462	0.003207	-0.006797	-0.012124	-0.848877	-0.215820	0.603271	-0.132780	-0.725435	0.123482	-0.663977
23209		9.752192	0.326232	-0.824266	0.005431	-0.010901	-0.012802	-0.842041	-0.215820	0.611084	-0.132820	-0.725554	0.123339	-0.663865
23210		9.740612	0.319854	-0.835247	0.004970	-0.008106	-0.011123	-0.844727	-0.212402	0.609131	-0.132812	-0.725663	0.123217	-0.663771
23211		9.739570	0.299212	-0.833472	0.009046	-0.009699	-0.014146	-0.842285	-0.210205	0.610840	-0.132756	-0.725794	0.123043	-0.663671
23212		9.746247	0.361290	-0.819733	0.012867	-0.010122	-0.011527	-0.835449	-0.217529	0.606201	-0.132610	-0.725938	0.122866	-0.663576
23213		9.732509	0.324748	-0.863237	0.012301	-0.012825	-0.009637	-0.835205	-0.212158	0.610596	-0.132578	-0.726079	0.122689	-0.663460
23214		9.740363	0.297903	-0.845022	0.008707	-0.005359	-0.010962	-0.841309	-0.209961	0.613037	-0.132517	-0.726173	0.122529	-0.663399
23215		9.744003	0.321444	-0.817862	0.005239	-0.001974	-0.012204	-0.836914	-0.217529	0.608154	-0.132470	-0.726243	0.122386	-0.663359
23216		9.745970	0.347695	-0.845938	0.004595	0.000936	-0.011266	-0.840332	-0.206787	0.607178	-0.132542	-0.726264	0.122229	-0.663350
23217		9.761648	0.356201	-0.828639	0.004039	0.003111	-0.006351	-0.839844	-0.208984	0.605225	-0.132465	-0.726277	0.122132	-0.663369
23218		9.729113	0.288763	-0.834055	0.003534	-0.001253	-0.005227	-0.844971	-0.214844	0.606689	-0.132422	-0.726318	0.122042	-0.663350
23219		9.746563	0.335124	-0.804845	0.005719	0.004979	-0.007817	-0.846436	-0.208496	0.609619	-0.132447	-0.726319	0.121890	-0.663371
23220		9.741451	0.309795	-0.867738	0.005432	0.005225	-0.006923	-0.841797	-0.208008	0.614746	-0.132394	-0.726326	0.121754	-0.663399
23221		9.738743	0.264663	-0.834511	0.006989	0.005542	-0.009888	-0.835693	-0.210449	0.611084	-0.132331	-0.726372	0.121571	-0.663395
23222		9.736041	0.355275	-0.814425	0.006076	-0.000126	-0.009369	-0.838135	-0.213135	0.605225	-0.132306	-0.726434	0.121408	-0.663362
23223		9.741032	0.330921	-0.826569	0.001010	-0.004223	-0.008195	-0.847900	-0.207520	0.604980	-0.132368	-0.726478	0.121299	-0.663322
23224		9.735405	0.320652	-0.851987	-0.000321	-0.005563	-0.006870	-0.839111	-0.217285	0.610596	-0.132364	-0.726518	0.121232	-0.663290
23225		9.756489	0.293868	-0.826946	-0.001884	0.003542	-0.008200	-0.840088	-0.208496	0.603027	-0.132488	-0.726539	0.121118	-0.663263
23226		9.727114	0.312608	-0.828229	0.003507	0.000254	-0.008449	-0.837402	-0.217773	0.615234	-0.132489	-0.726533	0.120993	-0.663292
23227		9.731094	0.273721	-0.856471	0.001811	-0.005740	-0.011617	-0.843262	-0.213867	0.608643	-0.132575	-0.726675	0.120830	-0.663150
23228		9.756097	0.301493	-0.828826	0.003080	-0.007617	-0.015198	-0.840088	-0.218018	0.603516	-0.132650	-0.726777	0.120658	-0.663054
23229		9.747901	0.372453	-0.815475	0.009350	-0.007519	-0.013486	-0.837158	-0.212158	0.607178	-0.132720	-0.726854	0.120451	-0.662993
23230		9.726881	0.347611	-0.838138	0.005694	-0.005378	-0.008250	-0.841553	-0.218262	0.607178	-0.132705	-0.726925	0.120314	-0.662944
23231		9.709359	0.310943	-0.808683	0.004062	-0.008159	-0.009157	-0.842773	-0.216797	0.611816	-0.132782	-0.727011	0.120180	-0.662858
23232		9.736362	0.314102	-0.825555	0.007280	-0.011449	-0.011003	-0.834961	-0.211426	0.614258	-0.132800	-0.727156	0.120010	-0.662726
23233		9.756540	0.305491	-0.842917	0.005572	-0.009374	-0.011250	-0.838867	-0.211426	0.599121	-0.132761	-0.727310	0.119849	-0.662594
23234		9.757391	0.322795	-0.827897	0.001264	0.001909	-0.009283	-0.845703	-0.208740	0.603027	-0.132824	-0.727229	0.119750	-0.662688
23235		9.728354	0.332773	-0.809210	0.006190	0.001425	-0.007864	-0.842285	-0.218994	0.614502	-0.132767	-0.727168	0.119621	-0.662790
23236		9.718961	0.348801	-0.845961	0.003518	-0.002945	-0.008336	-0.842041	-0.214600	0.599609	-0.132823	-0.727244	0.119496	-0.662718
23237		9.721684	0.309516	-0.850362	-0.001210	-0.003326	-0.007407	-0.838623	-0.205078	0.613281	-0.132926	-0.727192	0.119446	-0.662763
23238		9.764364	0.286521	-0.824390	0.004620	-0.000581	-0.008020	-0.845459	-0.221191	0.608643	-0.132762	-0.727254	0.119298	-0.662754
23239		9.749552	0.296783	-0.825838	0.001827	-0.004063	-0.008479	-0.841797	-0.218018	0.610107	-0.132893	-0.727273	0.119217	-0.662723
23240		9.730211	0.310009	-0.836199	0.012464	-0.005794	-0.010674	-0.833984	-0.207520	0.603760	-0.132884	-0.727351	0.119025	-0.662673
23241		9.718360	0.311707	-0.866212	0.003520	-0.005390	-0.009837	-0.841064	-0.207275	0.601562	-0.132816	-0.727388	0.118911	-0.662667
23242		9.739387	0.332894	-0.825773	0.006397	0.001150	-0.011109	-0.837402	-0.210449	0.610840	-0.132741	-0.727321	0.118768	-0.662781
23243		9.760261	0.315499	-0.820047	0.001954	0.002961	-0.009566	-0.838623	-0.206299	0.611816	-0.132695	-0.727338	0.118638	-0.662794
23244		9.748626	0.317062	-0.847595	0.010592	0.006000	-0.009613	-0.842285	-0.209717	0.606934	-0.132483	-0.727346	0.118420	-0.662867
23245		9.746306	0.304499	-0.839073	0.007822	-0.000679	-0.009962	-0.843750	-0.216064	0.604980	-0.132391	-0.727334	0.118273	-0.662925
23246		9.737497	0.350586	-0.819998	0.012973	0.000260	-0.008673	-0.846924	-0.208740	0.604004	-0.132381	-0.727292	0.118126	-0.662999
23247		9.730437	0.301891	-0.856473	0.008372	-0.003456	-0.009262	-0.844971	-0.214355	0.605225	-0.132266	-0.727243	0.118005	-0.663097
23248		9.746600	0.334219	-0.843766	0.003643	0.004074	-0.009417	-0.835938	-0.218994	0.610352	-0.132317	-0.727150	0.117919	-0.663205
23249		9.734489	0.318518	-0.807465	-0.001900	0.003518	-0.008191	-0.833740	-0.211670	0.599365	-0.132476	-0.727169	0.117859	-0.663163
23250		9.741661	0.317198	-0.845720	0.002249	0.006843	-0.005832	-0.841553	-0.217773	0.613525	-0.132515	-0.727060	0.117814	-0.663283
23251		9.749580	0.266345	-0.819873	0.005884	0.002419	-0.008572	-0.844482	-0.216064	0.600830	-0.132531	-0.727101	0.117675	-0.663259
23252		9.737253	0.329997	-0.792542	0.012547	0.002147	-0.009373	-0.836914	-0.216064	0.611084	-0.132556	-0.726989	0.117548	-0.663399
23253		9.745260	0.343751	-0.816193	0.008493	-0.001901	-0.007762	-0.830811	-0.223145	0.601562	-0.132524	-0.727078	0.117408	-0.663332
23254		9.738360	0.294723	-0.851920	0.000622	0.004055	-0.006733	-0.837158	-0.212158	0.607178	-0.132839	-0.727032	0.117407	-0.663321
23255		9.738441	0.303198	-0.790756	0.003092	0.006843	-0.010109	-0.835693	-0.211914	0.598389	-0.132810	-0.726999	0.117281	-0.663385
23256		9.719247	0.316337	-0.798955	0.003380	0.001125	-0.008412	-0.847168	-0.216797	0.605957	-0.132822	-0.726916	0.117215	-0.663485
23257		9.729335	0.274795	-0.842145	0.007453	-0.002162	-0.014524	-0.844482	-0.210205	0.606689	-0.132875	-0.726874	0.117062	-0.663547
23258		9.740762	0.278664	-0.814903	0.006581	-0.008581	-0.012381	-0.842041	-0.214355	0.606934	-0.132728	-0.726919	0.116908	-0.663554
23259		9.761157	0.309712	-0.795407	0.003751	-0.002661	-0.017142	-0.846680	-0.221680	0.601807	-0.132771	-0.726934	0.116748	-0.663558
23260		9.738793	0.365155	-0.800458	0.005878	0.007883	-0.011148	-0.842285	-0.225830	0.602539	-0.132985	-0.726745	0.116679	-0.663734
23261		9.712393	0.336157	-0.864374	0.006880	0.002477	-0.008127	-0.841064	-0.211914	0.605957	-0.133267	-0.726646	0.116648	-0.663792
23262		9.744072	0.304406	-0.846101	0.001797	-0.000141	-0.010172	-0.845703	-0.217285	0.604980	-0.133185	-0.726637	0.116538	-0.663837
23263		9.739480	0.316067	-0.795158	0.005985	-0.004892	-0.010704	-0.840332	-0.213867	0.604248	-0.133206	-0.726619	0.116437	-0.663870
23264		9.754518	0.334006	-0.799388	0.012094	-0.002384	-0.012198	-0.838379	-0.216797	0.610840	-0.133110	-0.726632	0.116249	-0.663908
23265		9.744632	0.326420	-0.831483	0.010023	0.005749	-0.006201	-0.843750	-0.210449	0.604736	-0.133030	-0.726661	0.116107	-0.663917
23266		9.716971	0.303733	-0.811552	0.005959	0.005463	-0.010288	-0.846191	-0.219727	0.604980	-0.132878	-0.726575	0.115956	-0.664068
23267		9.719133	0.320697	-0.819467	0.008509	-0.004349	-0.009240	-0.840088	-0.208008	0.607178	-0.132932	-0.726549	0.115865	-0.664101
23268		9.750762	0.321521	-0.826082	0.006036	0.001347	-0.012538	-0.846924	-0.213867	0.604980	-0.132712	-0.726571	0.115672	-0.664156
23269		9.743074	0.335809	-0.806519	0.007704	0.000198	-0.009915	-0.843506	-0.212891	0.606201	-0.132621	-0.726507	0.115544	-0.664265
23270		9.748742	0.335394	-0.822871	0.009030	-0.005630	-0.011752	-0.834717	-0.210938	0.599609	-0.132498	-0.726545	0.115383	-0.664276
23271		9.733414	0.322586	-0.820359	0.007176	-0.000226	-0.010501	-0.844971	-0.214844	0.606689	-0.132434	-0.726524	0.115271	-0.664332
23272		9.725688	0.336537	-0.801306	0.002882	-0.002503	-0.008871	-0.836914	-0.213867	0.605225	-0.132393	-0.726513	0.115191	-0.664366
23273		9.739416	0.315591	-0.817519	0.001169	-0.007600	-0.009645	-0.840820	-0.210693	0.603516	-0.132381	-0.726595	0.115126	-0.664290
23274		9.733861	0.273725	-0.819971	0.003783	-0.013615	-0.011931	-0.839844	-0.217529	0.614014	-0.132271	-0.726678	0.115029	-0.664238
23275		9.748200	0.339185	-0.809846	0.003274	-0.002897	-0.011375	-0.837158	-0.212891	0.608154	-0.132256	-0.726804	0.114882	-0.664128
23276		9.737359	0.323777	-0.799309	0.006460	-0.005260	-0.010836	-0.841553	-0.214600	0.602783	-0.132149	-0.726901	0.114741	-0.664068
23277		9.753252	0.317808	-0.823807	0.013433	-0.006512	-0.010904	-0.835938	-0.216553	0.606689	-0.132073	-0.726906	0.114601	-0.664102
23278		9.739939	0.351525	-0.854246	0.006699	-0.004590	-0.009358	-0.842529	-0.216309	0.604492	-0.132077	-0.726978	0.114501	-0.664039
23279		9.737589	0.338818	-0.847467	0.003440	-0.005279	-0.008160	-0.840820	-0.217285	0.607666	-0.132095	-0.726963	0.114461	-0.664059
23280		9.732553	0.319871	-0.852956	0.007948	-0.006301	-0.008941	-0.843750	-0.212646	0.611816	-0.132072	-0.727020	0.114356	-0.664019
23281		9.738756	0.277987	-0.826913	0.013038	-0.015557	-0.006423	-0.841064	-0.213623	0.605225	-0.131791	-0.727189	0.114201	-0.663917
23282		9.735933	0.335912	-0.811576	0.012595	-0.015383	-0.010233	-0.834229	-0.215820	0.611328	-0.131665	-0.727291	0.114075	-0.663852
23283		9.744754	0.349377	-0.863026	0.006136	-0.015981	-0.007094	-0.834473	-0.218018	0.614014	-0.131587	-0.727510	0.113989	-0.663642
23284		9.740656	0.312971	-0.830304	0.002063	-0.012125	-0.006583	-0.834717	-0.211914	0.606934	-0.131577	-0.727711	0.113927	-0.663434
23285		9.743080	0.320865	-0.820736	-0.000095	-0.008175	-0.007557	-0.846924	-0.212646	0.599121	-0.131526	-0.727781	0.113909	-0.663371
23286		9.733011	0.312776	-0.854497	-0.000018	-0.003417	-0.006196	-0.834961	-0.218750	0.605225	-0.131535	-0.727608	0.113967	-0.663548
23287		9.730937	0.306467	-0.787311	0.004397	-0.002025	-0.007839	-0.833740	-0.213867	0.611084	-0.131643	-0.727610	0.113934	-0.663531
23288		9.737938	0.266859	-0.862948	0.010559	-0.002885	-0.013185	-0.844482	-0.208496	0.605225	-0.131550	-0.727721	0.113740	-0.663460
23289		9.765306	0.294510	-0.882421	0.003241	-0.002172	-0.012965	-0.840088	-0.217285	0.604736	-0.131417	-0.727656	0.113640	-0.663575
23290		9.748133	0.274600	-0.811513	0.001910	-0.000503	-0.015728	-0.840820	-0.222412	0.607666	-0.131564	-0.727604	0.113558	-0.663617
23291		9.738649	0.416608	-0.786426	0.005723	-0.004850	-0.013739	-0.846680	-0.210693	0.606201	-0.131737	-0.727620	0.113464	-0.663582
23292		9.721773	0.335134	-0.851522	0.008396	-0.005922	-0.010687	-0.840576	-0.213867	0.605957	-0.131554	-0.727590	0.113340	-0.663672
23293		9.736709	0.297544	-0.827657	0.003991	-0.005052	-0.011520	-0.846436	-0.207275	0.606201	-0.131528	-0.727589	0.113258	-0.663692
23294		9.759219	0.304079	-0.851508	0.006648	-0.003115	-0.012554	-0.835693	-0.212158	0.606445	-0.131305	-0.727542	0.113116	-0.663812
23295		9.742431	0.323850	-0.848973	0.007135	0.000504	-0.012089	-0.840576	-0.212646	0.607422	-0.131237	-0.727547	0.112985	-0.663842
23296		9.721134	0.346113	-0.854413	-0.002370	-0.001084	-0.010989	-0.845215	-0.217041	0.613281	-0.131231	-0.727523	0.112941	-0.663877
23297		9.721315	0.316790	-0.831105	0.004377	-0.007719	-0.011536	-0.835205	-0.207520	0.598877	-0.131181	-0.727597	0.112814	-0.663827
23298		9.760969	0.353177	-0.866192	0.004803	0.001550	-0.009711	-0.839600	-0.211914	0.602539	-0.131094	-0.727504	0.112774	-0.663954
23299		9.743388	0.340310	-0.814692	0.007165	0.001475	-0.007385	-0.842285	-0.209717	0.608154	-0.131016	-0.727422	0.112719	-0.664068
23300		9.724602	0.281923	-0.834342	0.010109	0.003161	-0.009303	-0.842041	-0.214600	0.604248	-0.130806	-0.727384	0.112557	-0.664178
23301		9.733217	0.311011	-0.841989	0.007631	-0.000598	-0.010626	-0.835693	-0.216797	0.609131	-0.130793	-0.727329	0.112470	-0.664255
23302		9.755361	0.332732	-0.825303	0.010360	-0.000331	-0.012405	-0.844482	-0.212158	0.605713	-0.130785	-0.727382	0.112305	-0.664227
23303		9.744019	0.302046	-0.828781	0.017256	0.006538	-0.009628	-0.838379	-0.216309	0.606934	-0.130602	-0.727285	0.112111	-0.664402
23304		9.731273	0.327178	-0.836399	0.014025	0.005650	-0.012389	-0.837158	-0.211670	0.611572	-0.130577	-0.727252	0.111925	-0.664475
23305		9.746943	0.250496	-0.844060	0.023286	0.014712	-0.009760	-0.846680	-0.211914	0.609863	-0.130303	-0.727220	0.111611	-0.664616
23306		9.753191	0.359382	-0.834179	0.015277	0.012632	-0.012343	-0.846191	-0.218506	0.603027	-0.130125	-0.727112	0.111364	-0.664811
23307		9.732552	0.349340	-0.811917	0.020636	0.015029	-0.011189	-0.839355	-0.213135	0.604980	-0.130118	-0.726919	0.111162	-0.665057
23308		9.729397	0.353879	-0.841980	0.015941	0.003472	-0.011369	-0.836914	-0.218506	0.613281	-0.130018	-0.726894	0.110974	-0.665135
23309		9.720910	0.353064	-0.837771	0.012790	0.002627	-0.011789	-0.846191	-0.215332	0.614014	-0.129987	-0.726977	0.110757	-0.665088
23310		9.721491	0.347120	-0.816805	0.008674	0.004954	-0.010428	-0.849365	-0.214355	0.606201	-0.129880	-0.726975	0.110568	-0.665141
23311		9.757675	0.321508	-0.808880	0.014976	0.008361	-0.006491	-0.839111	-0.213623	0.602051	-0.129740	-0.726848	0.110418	-0.665333
23312		9.731921	0.344563	-0.821745	0.014700	-0.000078	-0.005216	-0.847412	-0.207275	0.601074	-0.129645	-0.726817	0.110330	-0.665399
23313		9.734755	0.289911	-0.840580	0.008038	0.000695	-0.010003	-0.852051	-0.209961	0.604004	-0.129508	-0.726716	0.110240	-0.665551
23314		9.770743	0.350624	-0.807151	0.009223	0.004640	-0.008230	-0.838135	-0.204102	0.605469	-0.129364	-0.726585	0.110132	-0.665741
23315		9.733798	0.340953	-0.823480	-0.004948	0.007401	-0.004910	-0.839600	-0.211426	0.603516	-0.129235	-0.726516	0.110138	-0.665840
23316		9.714201	0.305756	-0.822733	0.001214	0.002022	-0.005267	-0.834473	-0.210938	0.602539	-0.129215	-0.726471	0.110136	-0.665893
23317		9.700971	0.283225	-0.823925	0.007661	-0.009313	-0.010197	-0.849121	-0.208984	0.604492	-0.129178	-0.726563	0.110061	-0.665812
23318		9.735914	0.329165	-0.809393	0.006111	-0.011334	-0.010342	-0.842285	-0.214600	0.610107	-0.129050	-0.726595	0.109979	-0.665816
23319		9.757471	0.296526	-0.846140	0.005219	-0.009835	-0.009302	-0.855225	-0.208252	0.595947	-0.129001	-0.726706	0.109880	-0.665720
23320		9.746340	0.320036	-0.801065	-0.000892	-0.005397	-0.011292	-0.843994	-0.217529	0.610596	-0.129019	-0.726551	0.109917	-0.665880
23321		9.742341	0.340213	-0.794941	0.003569	-0.005469	-0.009708	-0.843506	-0.212646	0.604248	-0.129041	-0.726616	0.109826	-0.665819
23322		9.709130	0.360408	-0.830524	0.004540	-0.006918	-0.008402	-0.842285	-0.211670	0.606689	-0.129012	-0.726635	0.109783	-0.665812
23323		9.722931	0.315673	-0.843120	0.000811	-0.011235	-0.007666	-0.841797	-0.211914	0.607666	-0.128966	-0.726714	0.109762	-0.665738
23324		9.749158	0.287184	-0.811770	0.003016	-0.009674	-0.006940	-0.840332	-0.210449	0.604736	-0.128895	-0.726792	0.109721	-0.665673
23325		9.753662	0.333550	-0.814011	0.000393	-0.003860	-0.008652	-0.838623	-0.216797	0.605957	-0.128879	-0.726798	0.109702	-0.665673
23326		9.734022	0.322581	-0.819655	-0.004463	-0.003382	-0.007740	-0.843506	-0.213867	0.614502	-0.129012	-0.726810	0.109737	-0.665628
23327		9.733130	0.309448	-0.836585	-0.006221	-0.006823	-0.007743	-0.834473	-0.204102	0.600830	-0.128999	-0.726901	0.109715	-0.665535
23328		9.712873	0.314171	-0.803716	-0.006536	-0.009814	-0.009069	-0.836670	-0.213867	0.608887	-0.128979	-0.726943	0.109782	-0.665482
23329		9.743533	0.276867	-0.823993	-0.001313	-0.012220	-0.011600	-0.838135	-0.213867	0.613037	-0.129020	-0.727075	0.109741	-0.665337
23330		9.745949	0.333304	-0.823487	-0.002601	-0.009784	-0.013625	-0.839355	-0.215820	0.610107	-0.129047	-0.727213	0.109657	-0.665195
23331		9.759831	0.313457	-0.840407	0.001755	-0.007442	-0.012912	-0.838135	-0.206299	0.611328	-0.129090	-0.727298	0.109569	-0.665108
23332		9.730555	0.347195	-0.827858	-0.002890	-0.003825	-0.009061	-0.837402	-0.214600	0.602295	-0.128974	-0.727359	0.109527	-0.665070
23333		9.730349	0.325827	-0.824671	0.002598	-0.006277	-0.008525	-0.836670	-0.217285	0.609863	-0.129036	-0.727366	0.109536	-0.665049
23334		9.743162	0.328759	-0.821177	0.006452	-0.002842	-0.009269	-0.835693	-0.216797	0.602051	-0.129046	-0.727423	0.109442	-0.665000
23335		9.742331	0.339195	-0.842029	0.010074	-0.002347	-0.008999	-0.840576	-0.217285	0.606201	-0.129090	-0.727415	0.109383	-0.665011
23336		9.733042	0.299260	-0.850606	0.007530	-0.004445	-0.009572	-0.843018	-0.216064	0.607422	-0.129112	-0.727431	0.109309	-0.665001
23337		9.758432	0.318415	-0.801761	0.007284	0.004560	-0.006758	-0.839844	-0.214844	0.608398	-0.129086	-0.727366	0.109236	-0.665089
23338		9.733752	0.317752	-0.833641	0.010929	0.006576	-0.007360	-0.839111	-0.218262	0.601562	-0.129015	-0.727319	0.109118	-0.665174
23339		9.736946	0.309882	-0.860255	0.021592	0.002665	-0.007005	-0.840332	-0.210205	0.607178	-0.128957	-0.727266	0.108973	-0.665267
23340		9.733112	0.328928	-0.851966	0.008438	0.005262	-0.007198	-0.839844	-0.217285	0.609619	-0.128842	-0.727217	0.108879	-0.665358
23341		9.722812	0.288996	-0.834780	0.010463	0.002947	-0.007802	-0.842773	-0.210205	0.602539	-0.128811	-0.727213	0.108764	-0.665387
23342		9.742921	0.319064	-0.814127	0.006715	-0.000645	-0.008665	-0.840576	-0.215820	0.605957	-0.128749	-0.727163	0.108708	-0.665463
23343		9.758456	0.375055	-0.805991	0.005001	0.004662	-0.006737	-0.843018	-0.212158	0.610596	-0.128766	-0.727102	0.108666	-0.665533
23344		9.731238	0.297298	-0.836564	0.005236	0.005349	-0.005275	-0.842041	-0.210449	0.604980	-0.128666	-0.727063	0.108596	-0.665606
23345		9.756530	0.308679	-0.846448	0.004978	0.003142	-0.005864	-0.839111	-0.213867	0.609131	-0.128591	-0.727003	0.108560	-0.665692
23346		9.713254	0.270235	-0.799352	0.006213	0.002172	-0.007042	-0.846191	-0.217773	0.615967	-0.128547	-0.727005	0.108487	-0.665711
23347		9.756652	0.342657	-0.789722	0.014447	0.005493	-0.008540	-0.841309	-0.214111	0.606689	-0.128431	-0.727012	0.108284	-0.665758
23348		9.735873	0.324279	-0.829293	0.011512	0.003806	-0.006627	-0.842285	-0.209717	0.605225	-0.128355	-0.726977	0.108183	-0.665827
23349		9.752231	0.246917	-0.837394	0.007040	0.007844	-0.007612	-0.838379	-0.216553	0.609619	-0.128278	-0.726888	0.108107	-0.665951
23350		9.737380	0.334790	-0.790167	0.007117	0.008416	-0.010821	-0.837402	-0.218262	0.600342	-0.128310	-0.726854	0.107985	-0.666003
23351		9.715388	0.317684	-0.805399	0.007496	0.004235	-0.009957	-0.830566	-0.204834	0.601562	-0.128419	-0.726785	0.107930	-0.666065
23352		9.714090	0.266374	-0.832120	0.003105	-0.002886	-0.011995	-0.839355	-0.206299	0.609863	-0.128387	-0.726821	0.107891	-0.666039
23353		9.741022	0.325588	-0.797368	0.005850	-0.008336	-0.017422	-0.847900	-0.208252	0.614014	-0.128304	-0.726934	0.107735	-0.665957
23354		9.758155	0.351246	-0.791358	0.007513	-0.010964	-0.013930	-0.850098	-0.218994	0.608887	-0.128148	-0.727055	0.107573	-0.665881
23355		9.721373	0.350134	-0.856144	0.005266	-0.013837	-0.009835	-0.836670	-0.216553	0.604248	-0.128158	-0.727136	0.107504	-0.665802
23356		9.729668	0.285644	-0.849609	0.002903	-0.013793	-0.012154	-0.839844	-0.209961	0.610596	-0.128250	-0.727241	0.107477	-0.665674
23357		9.757147	0.335903	-0.796808	0.001935	-0.014600	-0.010980	-0.847412	-0.215332	0.604004	-0.128193	-0.727381	0.107430	-0.665539
23358		9.745166	0.313620	-0.823757	0.005512	-0.009385	-0.011718	-0.840820	-0.209717	0.609619	-0.128214	-0.727396	0.107369	-0.665528
23359		9.757109	0.325632	-0.841520	0.006190	-0.008324	-0.012010	-0.843506	-0.219482	0.608643	-0.128137	-0.727476	0.107273	-0.665471
23360		9.735614	0.300613	-0.839746	0.000879	-0.005985	-0.011828	-0.841553	-0.219971	0.598389	-0.128242	-0.727505	0.107227	-0.665427
23361		9.750371	0.295870	-0.839935	0.002204	-0.003131	-0.014018	-0.838379	-0.211914	0.612549	-0.128435	-0.727448	0.107202	-0.665456
23362		9.724751	0.335799	-0.838710	0.001965	-0.002085	-0.012410	-0.847656	-0.218750	0.607422	-0.128423	-0.727499	0.107123	-0.665415
23363		9.750692	0.317229	-0.825627	0.004858	-0.003433	-0.012572	-0.837891	-0.218750	0.605957	-0.128477	-0.727487	0.107034	-0.665432
23364		9.719789	0.344077	-0.848982	0.003300	-0.006980	-0.011836	-0.845947	-0.214355	0.616943	-0.128574	-0.727533	0.106995	-0.665370
23365		9.754067	0.328783	-0.840361	0.003029	-0.005205	-0.011831	-0.835938	-0.211182	0.609131	-0.128524	-0.727606	0.106891	-0.665316
23366		9.762993	0.349501	-0.828471	0.005167	0.004560	-0.006003	-0.831787	-0.214844	0.606201	-0.128457	-0.727581	0.106857	-0.665362
23367		9.741229	0.307729	-0.839503	0.007452	0.004458	-0.006016	-0.843750	-0.215820	0.600342	-0.128449	-0.727558	0.106825	-0.665394
23368		9.730407	0.276144	-0.842798	0.006054	-0.000199	-0.009217	-0.843262	-0.216064	0.601318	-0.128481	-0.727484	0.106788	-0.665474
23369		9.762465	0.316685	-0.838341	0.004507	-0.001725	-0.014892	-0.841797	-0.209961	0.606445	-0.128570	-0.727439	0.106712	-0.665518
23370		9.737761	0.324797	-0.812270	0.007532	-0.002218	-0.011993	-0.841309	-0.215820	0.609375	-0.128501	-0.727443	0.106615	-0.665543
23371		9.753040	0.327246	-0.855526	0.012603	0.001998	-0.010851	-0.834229	-0.208008	0.609619	-0.128444	-0.727439	0.106473	-0.665581
23372		9.753235	0.306152	-0.850179	0.006339	0.005041	-0.010376	-0.845947	-0.210205	0.608643	-0.128368	-0.727432	0.106388	-0.665617
23373		9.726653	0.322578	-0.819117	0.000135	0.001630	-0.011945	-0.836182	-0.217285	0.601318	-0.128353	-0.727390	0.106333	-0.665675
23374		9.756760	0.371743	-0.809646	0.012307	0.007758	-0.010258	-0.845215	-0.212158	0.608643	-0.128383	-0.727304	0.106235	-0.665778
23375		9.719855	0.299757	-0.831140	0.012534	0.013950	-0.009088	-0.837646	-0.213623	0.604492	-0.128274	-0.727182	0.106085	-0.665957
23376		9.713592	0.289779	-0.829069	0.009863	0.003967	-0.011551	-0.840820	-0.217041	0.603760	-0.128264	-0.727147	0.105982	-0.666013
23377		9.733382	0.321148	-0.809081	0.010002	-0.005682	-0.013444	-0.840332	-0.212402	0.604004	-0.128291	-0.727178	0.105878	-0.665991
23378		9.752174	0.299054	-0.816882	0.006350	-0.005470	-0.015317	-0.844727	-0.211426	0.600830	-0.128309	-0.727208	0.105781	-0.665970
23379		9.730429	0.321451	-0.822901	0.004674	0.002145	-0.013561	-0.839355	-0.208496	0.607666	-0.128327	-0.727130	0.105706	-0.666063
23380		9.738452	0.351511	-0.831040	0.006558	-0.000793	-0.013276	-0.833496	-0.211914	0.605469	-0.128265	-0.727148	0.105602	-0.666072
23381		9.725639	0.391872	-0.824896	0.008633	-0.000566	-0.010081	-0.839111	-0.217285	0.603516	-0.128232	-0.727172	0.105532	-0.666064
23382		9.734721	0.326956	-0.815081	0.002134	-0.001979	-0.007722	-0.844482	-0.212402	0.607422	-0.128296	-0.727156	0.105546	-0.666066
23383		9.749854	0.297770	-0.810399	0.006224	-0.005081	-0.009775	-0.842285	-0.211670	0.600586	-0.128236	-0.727182	0.105480	-0.666060
23384		9.765989	0.291940	-0.833331	0.012969	0.005558	-0.012719	-0.843750	-0.206787	0.605713	-0.128188	-0.727098	0.105345	-0.666182
23385		9.732234	0.366299	-0.815111	0.006688	0.010339	-0.009200	-0.841553	-0.209717	0.603027	-0.128083	-0.726990	0.105256	-0.666334
23386		9.724937	0.325577	-0.844432	0.001660	0.005388	-0.008739	-0.837891	-0.210205	0.602783	-0.128072	-0.726908	0.105240	-0.666428
23387		9.743312	0.318195	-0.810476	0.005784	0.001563	-0.009188	-0.840820	-0.210938	0.594727	-0.128041	-0.726879	0.105200	-0.666472
23388		9.726171	0.337192	-0.807929	0.004448	-0.002313	-0.011652	-0.844971	-0.218018	0.603271	-0.128081	-0.726823	0.105184	-0.666529
23389		9.741805	0.323894	-0.788012	0.007748	-0.007829	-0.010932	-0.848633	-0.216064	0.599121	-0.128106	-0.726852	0.105129	-0.666500
23390		9.751475	0.305935	-0.812748	0.007240	-0.006753	-0.012383	-0.845703	-0.208252	0.604004	-0.128133	-0.726835	0.105069	-0.666523
23391		9.740439	0.330096	-0.870675	0.003615	-0.000257	-0.013827	-0.839844	-0.212402	0.603760	-0.128100	-0.726805	0.104982	-0.666577
23392		9.731815	0.360678	-0.811266	0.002618	0.006187	-0.009903	-0.840576	-0.215576	0.602051	-0.128124	-0.726733	0.104952	-0.666655
23393		9.743398	0.326292	-0.792678	0.005379	0.002472	-0.012235	-0.842041	-0.216797	0.607178	-0.128182	-0.726687	0.104896	-0.666703
23394		9.735663	0.309503	-0.828659	0.013438	-0.003326	-0.010803	-0.840088	-0.224854	0.599854	-0.128131	-0.726726	0.104777	-0.666688
23395		9.733906	0.336005	-0.810704	0.012046	-0.006249	-0.010936	-0.839844	-0.211426	0.606201	-0.128232	-0.726747	0.104726	-0.666654
23396		9.751420	0.375825	-0.788060	0.007290	-0.002701	-0.009469	-0.839600	-0.214355	0.610107	-0.128172	-0.726772	0.104665	-0.666648
23397		9.724431	0.344970	-0.828691	0.004342	0.001108	-0.007865	-0.836426	-0.209473	0.606934	-0.128152	-0.726781	0.104634	-0.666647
23398		9.743901	0.298119	-0.830208	0.005584	0.000137	-0.009029	-0.842529	-0.222900	0.610107	-0.128093	-0.726796	0.104587	-0.666649
23399		9.746485	0.314523	-0.758562	0.011302	0.000658	-0.009485	-0.837891	-0.215332	0.600586	-0.128117	-0.726808	0.104499	-0.666645
23400		9.730918	0.339983	-0.823641	0.016220	0.002514	-0.010519	-0.852783	-0.213379	0.609619	-0.128072	-0.726777	0.104381	-0.666706
23401		9.726628	0.321093	-0.827171	0.008300	-0.001108	-0.009903	-0.839355	-0.204590	0.602783	-0.127982	-0.726764	0.104279	-0.666754
23402		9.738237	0.325638	-0.799251	0.005509	-0.003208	-0.013519	-0.845215	-0.214355	0.604004	-0.127913	-0.726780	0.104197	-0.666762
23403		9.742269	0.349653	-0.796584	0.002632	-0.004106	-0.010892	-0.839111	-0.218994	0.608643	-0.127939	-0.726779	0.104175	-0.666762
23404		9.727831	0.343611	-0.837865	0.005193	-0.002706	-0.008724	-0.846680	-0.211182	0.614502	-0.127979	-0.726812	0.104156	-0.666721
23405		9.735255	0.326580	-0.813590	0.000252	-0.002334	-0.010160	-0.844727	-0.212646	0.612549	-0.127939	-0.726846	0.104116	-0.666698
23406		9.744797	0.300881	-0.792568	0.006210	0.000403	-0.010039	-0.839844	-0.213379	0.610107	-0.127877	-0.726860	0.104037	-0.666707
23407		9.751778	0.299634	-0.831764	0.007844	0.002271	-0.011500	-0.842773	-0.215088	0.598145	-0.127850	-0.726866	0.103946	-0.666719
23408		9.748905	0.327204	-0.787862	0.009046	0.005286	-0.012090	-0.843262	-0.214355	0.602539	-0.127880	-0.726773	0.103872	-0.666827
23409		9.727109	0.348647	-0.792933	0.009599	0.000225	-0.011205	-0.843262	-0.205322	0.612549	-0.127863	-0.726747	0.103794	-0.666871
23410		9.737003	0.330555	-0.816081	0.014743	-0.001995	-0.012081	-0.840088	-0.220215	0.614990	-0.127665	-0.726806	0.103620	-0.666872
23411		9.741134	0.315069	-0.823129	0.007536	0.004285	-0.007579	-0.845947	-0.216064	0.608398	-0.127664	-0.726814	0.103561	-0.666872
23412		9.741530	0.332480	-0.807092	0.002118	0.000225	-0.010164	-0.844238	-0.212158	0.607422	-0.127696	-0.726797	0.103537	-0.666889
23413		9.758140	0.341576	-0.814591	0.007385	-0.001121	-0.007996	-0.837158	-0.209717	0.604004	-0.127627	-0.726798	0.103491	-0.666908
23414		9.735155	0.323945	-0.807021	0.008338	0.002951	-0.006994	-0.834961	-0.210693	0.606201	-0.127558	-0.726770	0.103460	-0.666955
23415		9.722597	0.339783	-0.795532	0.009918	0.002512	-0.008301	-0.849365	-0.212158	0.613281	-0.127494	-0.726770	0.103404	-0.666977
23416		9.719985	0.335160	-0.807852	0.005623	-0.005375	-0.008699	-0.845947	-0.217773	0.606689	-0.127408	-0.726820	0.103349	-0.666948
23417		9.739062	0.312052	-0.815564	0.008156	-0.006523	-0.010295	-0.845459	-0.212402	0.600586	-0.127404	-0.726859	0.103293	-0.666914
23418		9.748102	0.310079	-0.800328	0.006840	-0.004121	-0.012329	-0.848633	-0.218994	0.607666	-0.127405	-0.726849	0.103242	-0.666933
23419		9.771277	0.347183	-0.793010	0.009962	-0.001477	-0.008863	-0.845703	-0.214844	0.617676	-0.127380	-0.726843	0.103172	-0.666956
23420		9.727699	0.347853	-0.815203	0.002680	0.001452	-0.008858	-0.844727	-0.220459	0.604492	-0.127355	-0.726863	0.103131	-0.666945
23421		9.718888	0.330941	-0.827112	0.002145	-0.002011	-0.007682	-0.846436	-0.206299	0.602539	-0.127427	-0.726843	0.103156	-0.666949
23422		9.738424	0.323009	-0.818914	0.001339	-0.006973	-0.008675	-0.846680	-0.218262	0.608154	-0.127375	-0.726852	0.103176	-0.666946
23423		9.747465	0.320463	-0.803982	0.001859	-0.006532	-0.008097	-0.847168	-0.216309	0.603760	-0.127406	-0.726883	0.103193	-0.666903
23424		9.735946	0.335646	-0.818082	0.002807	-0.002457	-0.007100	-0.843506	-0.209473	0.606689	-0.127422	-0.726856	0.103215	-0.666926
23425		9.728396	0.326093	-0.794863	-0.001224	-0.003601	-0.009550	-0.842285	-0.218262	0.605957	-0.127429	-0.726864	0.103242	-0.666912
23426		9.736158	0.316434	-0.815404	0.007199	-0.007328	-0.009118	-0.849854	-0.217773	0.603027	-0.127440	-0.726914	0.103223	-0.666859
23427		9.751490	0.372465	-0.834496	0.001248	-0.010078	-0.009235	-0.838379	-0.216797	0.608154	-0.127485	-0.726938	0.103251	-0.666819
23428		9.743047	0.332214	-0.843775	-0.000951	-0.008399	-0.007786	-0.841797	-0.212891	0.607178	-0.127547	-0.727004	0.103315	-0.666726
23429		9.733813	0.307964	-0.813831	-0.000046	-0.011415	-0.007918	-0.830811	-0.216797	0.603760	-0.127555	-0.727080	0.103369	-0.666632
23430		9.733865	0.325796	-0.801431	0.002029	-0.013972	-0.012402	-0.842041	-0.206787	0.607666	-0.127658	-0.727202	0.103403	-0.666475
23431		9.773563	0.331265	-0.815001	0.004769	-0.014162	-0.008639	-0.843262	-0.220947	0.604980	-0.127564	-0.727309	0.103407	-0.666376
23432		9.742461	0.371618	-0.825085	0.003233	-0.012929	-0.006609	-0.842285	-0.212402	0.616211	-0.127605	-0.727380	0.103462	-0.666282
23433		9.724291	0.319979	-0.867479	0.003854	-0.014171	-0.006748	-0.836914	-0.217041	0.609131	-0.127531	-0.727519	0.103480	-0.666141
23434		9.727093	0.304713	-0.853656	-0.001911	-0.009208	-0.006608	-0.838867	-0.208740	0.609375	-0.127594	-0.727587	0.103571	-0.666041
23435		9.741622	0.330620	-0.799688	-0.002901	-0.006275	-0.008792	-0.841553	-0.212891	0.607910	-0.127608	-0.727626	0.103634	-0.665985
23436		9.763128	0.259948	-0.821572	0.007577	-0.004489	-0.009417	-0.846436	-0.214111	0.606934	-0.127566	-0.727653	0.103604	-0.665969
23437		9.757163	0.311493	-0.839892	0.009251	0.001198	-0.011915	-0.844482	-0.212646	0.609375	-0.127538	-0.727618	0.103523	-0.666025
23438		9.740663	0.361238	-0.805730	0.007719	0.003943	-0.010765	-0.841797	-0.216309	0.603516	-0.127504	-0.727574	0.103459	-0.666089
23439		9.749235	0.328089	-0.818871	0.002985	0.006767	-0.007723	-0.840576	-0.211426	0.607666	-0.127550	-0.727476	0.103481	-0.666184
23440		9.718669	0.329519	-0.835278	0.007466	0.001981	-0.007419	-0.845703	-0.207031	0.610596	-0.127493	-0.727450	0.103463	-0.666226
23441		9.739020	0.298338	-0.820833	0.007674	0.001633	-0.010602	-0.837158	-0.205566	0.601807	-0.127401	-0.727431	0.103394	-0.666275
23442		9.751314	0.325224	-0.820813	0.014905	0.001197	-0.009172	-0.840820	-0.208008	0.607178	-0.127270	-0.727409	0.103313	-0.666336
23443		9.750312	0.335142	-0.840404	0.007180	0.005263	-0.008303	-0.845947	-0.220947	0.608154	-0.127203	-0.727355	0.103282	-0.666413
23444		9.723227	0.335378	-0.824880	0.003477	0.001620	-0.009138	-0.835693	-0.207031	0.606201	-0.127268	-0.727315	0.103285	-0.666444
23445		9.727454	0.319963	-0.832006	0.003723	-0.000951	-0.009846	-0.841797	-0.215576	0.604736	-0.127247	-0.727321	0.103289	-0.666441
23446		9.720864	0.348464	-0.822037	0.007625	-0.005207	-0.007803	-0.845703	-0.213867	0.604248	-0.127230	-0.727340	0.103291	-0.666423
23447		9.725628	0.309023	-0.826001	0.004671	-0.007699	-0.006621	-0.836670	-0.216553	0.604248	-0.127203	-0.727361	0.103325	-0.666400
23448		9.759595	0.316938	-0.823174	0.007743	-0.013191	-0.008907	-0.842041	-0.214111	0.620850	-0.127209	-0.727459	0.103343	-0.666289
23449		9.746280	0.317530	-0.831092	0.004501	-0.013911	-0.007733	-0.836670	-0.217529	0.605469	-0.127151	-0.727616	0.103349	-0.666128
23450		9.749623	0.324850	-0.845957	0.010863	-0.009019	-0.006336	-0.842041	-0.212891	0.607666	-0.127117	-0.727683	0.103358	-0.666060
23451		9.745800	0.320640	-0.835517	0.005047	-0.003352	-0.007804	-0.833984	-0.213623	0.610596	-0.127097	-0.727690	0.103372	-0.666054
23452		9.741682	0.301328	-0.839752	0.010576	-0.002718	-0.008981	-0.841064	-0.218994	0.606934	-0.127059	-0.727736	0.103339	-0.666016
23453		9.747392	0.300467	-0.855485	0.004903	0.002061	-0.010444	-0.838135	-0.217773	0.603760	-0.127126	-0.727699	0.103336	-0.666044
23454		9.750893	0.355700	-0.797036	0.010286	0.000565	-0.009868	-0.840576	-0.218750	0.608643	-0.127142	-0.727677	0.103306	-0.666070
23455		9.718024	0.311809	-0.837255	0.005859	-0.003175	-0.008091	-0.842041	-0.205811	0.607422	-0.127169	-0.727691	0.103324	-0.666046
23456		9.735568	0.312972	-0.824777	0.008000	0.000647	-0.009860	-0.838135	-0.217285	0.603027	-0.127087	-0.727672	0.103281	-0.666090
23457		9.764699	0.300705	-0.798490	0.012738	0.003675	-0.007002	-0.840820	-0.213867	0.608887	-0.127060	-0.727621	0.103255	-0.666154
23458		9.730188	0.342047	-0.836579	0.015315	0.004835	-0.008750	-0.838379	-0.202148	0.606689	-0.126977	-0.727587	0.103170	-0.666221
23459		9.727698	0.337432	-0.847498	0.007086	0.003657	-0.009732	-0.845459	-0.211426	0.601562	-0.126890	-0.727550	0.103134	-0.666284
23460		9.716825	0.268513	-0.837245	0.004075	-0.002210	-0.013002	-0.838867	-0.213135	0.605713	-0.126922	-0.727519	0.103114	-0.666314
23461		9.729531	0.327306	-0.807667	0.008899	-0.004947	-0.013711	-0.835693	-0.215820	0.600098	-0.126935	-0.727555	0.103062	-0.666280
23462		9.744840	0.344936	-0.837037	0.009504	-0.007429	-0.009065	-0.839600	-0.214355	0.610107	-0.126944	-0.727591	0.103074	-0.666238
23463		9.741001	0.341196	-0.826790	0.003164	-0.006740	-0.008477	-0.840820	-0.215332	0.599365	-0.126962	-0.727641	0.103116	-0.666173
23464		9.737965	0.321008	-0.855882	0.007073	-0.007970	-0.008185	-0.839600	-0.210693	0.609131	-0.126968	-0.727658	0.103146	-0.666148
23465		9.732721	0.309787	-0.881622	0.002272	-0.008520	-0.009613	-0.833984	-0.213379	0.605957	-0.126972	-0.727719	0.103182	-0.666076
23466		9.730255	0.313894	-0.835892	0.002604	-0.007988	-0.009761	-0.836914	-0.211914	0.615723	-0.127021	-0.727776	0.103237	-0.665996
23467		9.732916	0.284363	-0.836979	0.003398	-0.011894	-0.012905	-0.841553	-0.200928	0.603027	-0.127043	-0.727902	0.103242	-0.665852
23468		9.753586	0.277087	-0.853641	0.007231	-0.004605	-0.014711	-0.839600	-0.204590	0.608643	-0.126972	-0.727914	0.103165	-0.665865
23469		9.752463	0.358226	-0.833351	0.004876	-0.000532	-0.014162	-0.844482	-0.219482	0.604492	-0.126949	-0.727913	0.103113	-0.665878
23470		9.731877	0.332981	-0.829443	0.003631	-0.001067	-0.012131	-0.841553	-0.209717	0.599121	-0.127041	-0.727880	0.103124	-0.665895
23471		9.730150	0.305743	-0.835684	0.005589	0.006929	-0.011774	-0.849121	-0.202393	0.606934	-0.127058	-0.727772	0.103098	-0.666015
23472		9.749224	0.322148	-0.830076	0.007696	0.003921	-0.010739	-0.842773	-0.214844	0.605225	-0.126943	-0.727706	0.103021	-0.666120
23473		9.749215	0.324817	-0.829141	0.011228	0.004376	-0.012770	-0.843506	-0.213379	0.605957	-0.126943	-0.727652	0.102948	-0.666191
23474		9.742349	0.338085	-0.832641	0.009811	0.006508	-0.007732	-0.833740	-0.201172	0.608154	-0.126901	-0.727573	0.102923	-0.666288
23475		9.731048	0.291848	-0.826382	0.010946	0.001626	-0.010140	-0.836182	-0.215576	0.607178	-0.126780	-0.727578	0.102852	-0.666317
23476		9.718270	0.308642	-0.815524	0.008644	-0.000879	-0.013863	-0.837891	-0.210693	0.608398	-0.126828	-0.727591	0.102813	-0.666300
23477		9.739959	0.354466	-0.828070	0.009613	0.002503	-0.011297	-0.840576	-0.212891	0.605469	-0.126801	-0.727576	0.102764	-0.666329
23478		9.737150	0.334817	-0.855074	0.003864	-0.000364	-0.010681	-0.839111	-0.205566	0.610352	-0.126836	-0.727555	0.102779	-0.666342
23479		9.753043	0.299717	-0.805549	0.007515	-0.004609	-0.011653	-0.841064	-0.212158	0.609375	-0.126771	-0.727603	0.102734	-0.666310
23480		9.746696	0.366804	-0.809614	0.009802	-0.004687	-0.011654	-0.842773	-0.218506	0.608643	-0.126739	-0.727644	0.102689	-0.666278
23481		9.716530	0.329709	-0.838172	0.006299	-0.001331	-0.010671	-0.835693	-0.218262	0.602051	-0.126784	-0.727640	0.102695	-0.666273
23482		9.731868	0.340223	-0.821980	0.003092	0.000252	-0.009672	-0.828369	-0.209961	0.599854	-0.126884	-0.727609	0.102759	-0.666278
23483		9.753630	0.308803	-0.831870	0.002354	-0.002419	-0.010796	-0.834961	-0.214111	0.610840	-0.126949	-0.727612	0.102815	-0.666254
23484		9.739392	0.310978	-0.813559	0.005858	-0.005776	-0.011775	-0.839844	-0.215820	0.607422	-0.126981	-0.727675	0.102821	-0.666178
23485		9.758647	0.365216	-0.824022	0.010218	-0.004057	-0.009490	-0.840088	-0.209229	0.602539	-0.126964	-0.727701	0.102811	-0.666154
23486		9.721386	0.316275	-0.828679	0.004647	-0.004003	-0.009914	-0.841553	-0.212891	0.606934	-0.126954	-0.727701	0.102828	-0.666153
23487		9.754144	0.310656	-0.815180	0.011564	0.001890	-0.011138	-0.847168	-0.213623	0.609619	-0.126918	-0.727677	0.102770	-0.666196
23488		9.746022	0.331910	-0.839879	0.007988	0.002136	-0.010702	-0.845703	-0.217285	0.604492	-0.126899	-0.727641	0.102734	-0.666244
23489		9.746019	0.333869	-0.839128	0.007189	0.004543	-0.006689	-0.837891	-0.216553	0.609375	-0.126900	-0.727562	0.102761	-0.666326
23490		9.726171	0.338060	-0.803364	0.010397	0.002960	-0.007683	-0.844971	-0.208984	0.602539	-0.126885	-0.727541	0.102762	-0.666351
23491		9.729698	0.345568	-0.815068	0.012278	0.000747	-0.008955	-0.841553	-0.220703	0.608643	-0.126791	-0.727503	0.102708	-0.666419
23492		9.728969	0.294166	-0.817621	0.009195	-0.006466	-0.009735	-0.840576	-0.208496	0.605225	-0.126821	-0.727549	0.102726	-0.666360
23493		9.739874	0.344888	-0.824352	0.003128	-0.003053	-0.011785	-0.835205	-0.209229	0.608154	-0.126834	-0.727553	0.102733	-0.666353
23494		9.757080	0.308871	-0.798096	0.006886	0.002218	-0.009541	-0.842041	-0.224365	0.605469	-0.126816	-0.727538	0.102732	-0.666372
23495		9.755661	0.303255	-0.833764	0.008964	-0.001584	-0.009209	-0.842285	-0.217773	0.610352	-0.126883	-0.727528	0.102767	-0.666365
23496		9.721664	0.336884	-0.853632	0.010441	-0.005938	-0.011751	-0.840820	-0.205322	0.610352	-0.126890	-0.727579	0.102745	-0.666312
23497		9.716835	0.334901	-0.818752	0.005266	-0.002246	-0.011790	-0.843750	-0.213135	0.603271	-0.126850	-0.727598	0.102718	-0.666303
23498		9.728526	0.346726	-0.834826	0.005708	0.000697	-0.009807	-0.841553	-0.212891	0.601807	-0.126860	-0.727555	0.102730	-0.666346
23499		9.748872	0.262874	-0.821971	0.002753	0.001205	-0.010386	-0.842773	-0.221191	0.610596	-0.126909	-0.727504	0.102765	-0.666386
23500		9.763265	0.296939	-0.810233	0.013219	0.003050	-0.010988	-0.839600	-0.218018	0.605957	-0.126921	-0.727483	0.102726	-0.666413
23501		9.726123	0.362576	-0.829969	0.013444	0.003769	-0.009554	-0.836914	-0.211182	0.598633	-0.126910	-0.727446	0.102698	-0.666461
23502		9.723676	0.357698	-0.841041	0.008107	0.003030	-0.007670	-0.842285	-0.219482	0.605469	-0.126892	-0.727386	0.102718	-0.666526
23503		9.712849	0.326858	-0.819732	0.006895	0.000707	-0.008648	-0.846436	-0.211426	0.605957	-0.126936	-0.727356	0.102759	-0.666545
23504		9.741049	0.345415	-0.843347	0.006351	-0.002051	-0.009045	-0.841064	-0.213623	0.606689	-0.126906	-0.727343	0.102763	-0.666563
23505		9.754011	0.364463	-0.824567	0.008622	-0.005934	-0.007987	-0.843506	-0.212891	0.605713	-0.126874	-0.727379	0.102787	-0.666526
23506		9.734706	0.314153	-0.815961	0.009416	-0.000148	-0.006331	-0.839111	-0.217529	0.607910	-0.126818	-0.727357	0.102802	-0.666558
23507		9.725113	0.297514	-0.804076	0.006069	-0.003287	-0.007298	-0.840576	-0.210938	0.605957	-0.126845	-0.727373	0.102871	-0.666525
23508		9.743766	0.297957	-0.815754	0.008591	-0.001427	-0.010631	-0.834473	-0.210449	0.609863	-0.126824	-0.727374	0.102856	-0.666531
23509		9.725151	0.339468	-0.818481	0.014602	0.001475	-0.008219	-0.839600	-0.208008	0.604980	-0.126742	-0.727384	0.102822	-0.666541
23510		9.747173	0.307260	-0.827981	0.010858	-0.001207	-0.006744	-0.842773	-0.212646	0.609619	-0.126650	-0.727381	0.102816	-0.666563
23511		9.738826	0.305496	-0.824741	0.007125	-0.002681	-0.010034	-0.841797	-0.216797	0.601318	-0.126643	-0.727396	0.102824	-0.666546
23512		9.723539	0.330823	-0.811845	0.004563	-0.007947	-0.011115	-0.828369	-0.218506	0.601074	-0.126706	-0.727425	0.102875	-0.666495
23513		9.745561	0.337500	-0.837085	0.003906	-0.009016	-0.010811	-0.844238	-0.200195	0.608643	-0.126822	-0.727487	0.102976	-0.666389
23514		9.741654	0.318810	-0.842083	0.004588	-0.005642	-0.011286	-0.844238	-0.215088	0.610840	-0.126739	-0.727521	0.102943	-0.666373
23515		9.756971	0.344948	-0.812186	0.001447	-0.007765	-0.006941	-0.841309	-0.210938	0.599121	-0.126764	-0.727564	0.103041	-0.666306
23516		9.733098	0.334859	-0.826836	0.000859	-0.009828	-0.008925	-0.844482	-0.213135	0.600830	-0.126794	-0.727593	0.103122	-0.666256
23517		9.732791	0.358939	-0.858609	-0.002024	-0.013028	-0.006146	-0.832764	-0.218750	0.604980	-0.126829	-0.727639	0.103259	-0.666179
23518		9.731265	0.323651	-0.824214	-0.004451	-0.013575	-0.005273	-0.837158	-0.208008	0.607422	-0.126953	-0.727720	0.103477	-0.666032
23519		9.736767	0.299657	-0.814001	-0.001026	-0.012929	-0.005713	-0.841309	-0.213867	0.603027	-0.126947	-0.727803	0.103602	-0.665923
23520		9.745917	0.319478	-0.829099	0.003181	-0.009094	-0.008213	-0.832764	-0.211670	0.602783	-0.126968	-0.727838	0.103680	-0.665869
23521		9.749064	0.311307	-0.858023	0.002161	-0.003586	-0.006708	-0.835693	-0.208496	0.620117	-0.126998	-0.727841	0.103783	-0.665844
23522		9.744195	0.292957	-0.838826	0.005608	-0.008548	-0.009082	-0.834717	-0.221191	0.603027	-0.126964	-0.727946	0.103820	-0.665730
23523		9.724245	0.335672	-0.819689	0.006228	-0.008285	-0.010091	-0.839600	-0.212646	0.612305	-0.127050	-0.727991	0.103903	-0.665651
23524		9.758043	0.328950	-0.831369	0.005221	-0.004279	-0.007704	-0.840576	-0.210693	0.609375	-0.127042	-0.728020	0.103960	-0.665612
23525		9.768495	0.363244	-0.853221	0.003333	-0.002066	-0.006441	-0.842773	-0.207520	0.606689	-0.127026	-0.728016	0.104028	-0.665609
23526		9.741213	0.309070	-0.840683	-0.002211	-0.005036	-0.005099	-0.838379	-0.220703	0.602295	-0.127017	-0.728013	0.104140	-0.665596
23527		9.703563	0.313565	-0.819955	-0.000323	-0.007250	-0.006360	-0.835205	-0.217773	0.606934	-0.127119	-0.728024	0.104299	-0.665540
23528		9.730207	0.301684	-0.851464	0.001162	-0.003690	-0.007133	-0.841797	-0.220703	0.607422	-0.127199	-0.728030	0.104429	-0.665497
23529		9.754824	0.292167	-0.834984	0.003087	-0.005098	-0.007688	-0.845215	-0.214844	0.610840	-0.127270	-0.728039	0.104537	-0.665457
23530		9.763871	0.258720	-0.850248	0.007954	-0.005504	-0.008547	-0.839600	-0.216309	0.613525	-0.127244	-0.728066	0.104561	-0.665429
23531		9.752128	0.305170	-0.834595	0.003236	-0.008594	-0.011368	-0.830078	-0.209229	0.605225	-0.127307	-0.728134	0.104629	-0.665332
23532		9.723787	0.329224	-0.826544	0.001106	-0.005605	-0.012416	-0.841797	-0.219482	0.604980	-0.127375	-0.728170	0.104687	-0.665270
23533		9.714078	0.335933	-0.844355	0.008230	-0.004273	-0.010287	-0.831543	-0.212646	0.603271	-0.127408	-0.728175	0.104720	-0.665253
23534		9.727749	0.323183	-0.879973	0.003500	-0.003255	-0.010297	-0.842041	-0.215332	0.612305	-0.127461	-0.728182	0.104784	-0.665226
23535		9.757258	0.327758	-0.840096	0.002726	-0.006443	-0.008234	-0.835205	-0.214844	0.608887	-0.127489	-0.728217	0.104869	-0.665169
23536		9.748836	0.326088	-0.837998	0.007266	-0.007381	-0.008941	-0.838379	-0.217285	0.604492	-0.127496	-0.728271	0.104925	-0.665100
23537		9.733128	0.303703	-0.870689	0.004811	-0.002317	-0.006145	-0.836426	-0.218994	0.609863	-0.127520	-0.728254	0.105018	-0.665099
23538		9.738109	0.280885	-0.832600	0.004282	0.008961	-0.006035	-0.841064	-0.220947	0.604004	-0.127581	-0.728161	0.105118	-0.665173
23539		9.734762	0.314580	-0.831807	0.002631	0.011597	-0.007223	-0.833008	-0.214600	0.617676	-0.127673	-0.728020	0.105209	-0.665296
23540		9.746484	0.272155	-0.847221	0.007772	0.004805	-0.007693	-0.834961	-0.210205	0.604980	-0.127688	-0.728003	0.105271	-0.665301
23541		9.754809	0.293392	-0.835072	0.006533	0.001667	-0.009364	-0.837158	-0.216553	0.606689	-0.127682	-0.727974	0.105292	-0.665331
23542		9.745552	0.292820	-0.807164	0.009355	0.000555	-0.007911	-0.840576	-0.210449	0.604736	-0.127681	-0.727955	0.105333	-0.665345
23543		9.745505	0.332287	-0.819816	0.012898	0.009745	-0.007484	-0.844727	-0.209473	0.608398	-0.127598	-0.727855	0.105291	-0.665477
23544		9.733866	0.292918	-0.831400	0.017440	0.015229	-0.005559	-0.839600	-0.212891	0.600830	-0.127450	-0.727718	0.105208	-0.665668
23545		9.715140	0.317679	-0.846597	0.008530	0.008291	-0.005875	-0.837891	-0.208984	0.601318	-0.127419	-0.727613	0.105236	-0.665785
23546		9.737594	0.301235	-0.839338	0.003835	0.003690	-0.007810	-0.839111	-0.219238	0.600586	-0.127417	-0.727548	0.105280	-0.665849
23547		9.734184	0.313217	-0.811725	0.007003	-0.000999	-0.009311	-0.838867	-0.217041	0.601807	-0.127471	-0.727521	0.105342	-0.665858
23548		9.723492	0.320368	-0.805475	0.001604	-0.007171	-0.007776	-0.847412	-0.210205	0.609375	-0.127537	-0.727540	0.105463	-0.665805
23549		9.731353	0.294567	-0.841245	0.007486	-0.005159	-0.008380	-0.844482	-0.218994	0.612061	-0.127478	-0.727562	0.105473	-0.665792
23550		9.752293	0.301882	-0.842442	0.011171	-0.009393	-0.009311	-0.836670	-0.211670	0.613770	-0.127467	-0.727635	0.105509	-0.665709
23551		9.752061	0.319837	-0.829981	0.007647	-0.012472	-0.010980	-0.842773	-0.208984	0.600342	-0.127462	-0.727751	0.105549	-0.665575
23552		9.708277	0.297141	-0.826080	0.005982	-0.015956	-0.010918	-0.834717	-0.212158	0.607666	-0.127426	-0.727844	0.105562	-0.665479
23553		9.720737	0.285864	-0.840817	0.011952	-0.016446	-0.012913	-0.844971	-0.212646	0.609131	-0.127400	-0.727987	0.105555	-0.665329
23554		9.737784	0.326134	-0.846652	0.009018	-0.021264	-0.011532	-0.840820	-0.217529	0.610352	-0.127358	-0.728147	0.105567	-0.665160
23555		9.756077	0.273909	-0.864504	0.003756	-0.023020	-0.011925	-0.838623	-0.210205	0.607910	-0.127413	-0.728321	0.105661	-0.664944
23556		9.752271	0.287084	-0.841711	-0.001474	-0.014043	-0.013944	-0.837646	-0.213135	0.609131	-0.127491	-0.728413	0.105728	-0.664818
23557		9.749305	0.336884	-0.855231	0.002050	-0.010962	-0.012278	-0.839844	-0.212158	0.614258	-0.127552	-0.728485	0.105794	-0.664716
23558		9.736263	0.284547	-0.862770	0.000180	-0.004132	-0.011396	-0.837402	-0.211670	0.610352	-0.127617	-0.728507	0.105865	-0.664668
23559		9.745568	0.321106	-0.859114	0.001969	0.012513	-0.010983	-0.826172	-0.207764	0.604492	-0.127685	-0.728387	0.105898	-0.664782
23560		9.752705	0.281405	-0.882206	0.001328	0.007633	-0.009602	-0.836670	-0.211426	0.620850	-0.127740	-0.728311	0.105961	-0.664844
23561		9.732045	0.272314	-0.836931	0.006232	0.005425	-0.013433	-0.836670	-0.202881	0.611572	-0.127782	-0.728292	0.105959	-0.664857
23562		9.728377	0.323425	-0.822748	0.006155	0.001499	-0.014649	-0.841064	-0.210938	0.608643	-0.127763	-0.728286	0.105899	-0.664877
23563		9.709097	0.334518	-0.856211	0.009095	-0.003608	-0.013695	-0.842529	-0.213867	0.611572	-0.127752	-0.728305	0.105859	-0.664864
23564		9.720451	0.331041	-0.888085	0.003484	-0.001783	-0.011145	-0.840332	-0.219971	0.612549	-0.127792	-0.728302	0.105900	-0.664854
23565		9.754733	0.303103	-0.869913	0.003957	-0.004443	-0.011095	-0.837891	-0.208496	0.613281	-0.127874	-0.728325	0.105980	-0.664800
23566		9.746521	0.333251	-0.836214	0.005680	0.000662	-0.009756	-0.843262	-0.216797	0.611816	-0.127856	-0.728318	0.105996	-0.664808
23567		9.754592	0.338993	-0.840431	0.005885	-0.003224	-0.007964	-0.838867	-0.219727	0.604004	-0.127864	-0.728324	0.106061	-0.664790
23568		9.726450	0.276994	-0.863104	0.005370	-0.003683	-0.008527	-0.844971	-0.214844	0.605469	-0.127913	-0.728320	0.106147	-0.664772
23569		9.731088	0.292914	-0.841090	0.006586	-0.007776	-0.010168	-0.842041	-0.217529	0.603027	-0.127907	-0.728348	0.106175	-0.664738
23570		9.723762	0.321885	-0.832020	0.003966	-0.002139	-0.011275	-0.843506	-0.209717	0.610840	-0.127969	-0.728324	0.106225	-0.664744
23571		9.766803	0.318638	-0.870575	0.003934	-0.002949	-0.011975	-0.838623	-0.220459	0.610596	-0.127974	-0.728329	0.106231	-0.664736
23572		9.759896	0.310213	-0.847125	0.001804	-0.003778	-0.011957	-0.835693	-0.213867	0.611816	-0.128089	-0.728342	0.106326	-0.664685
23573		9.737581	0.293315	-0.840303	0.002864	-0.006986	-0.013612	-0.839111	-0.212646	0.605957	-0.128162	-0.728396	0.106374	-0.664604
23574		9.744124	0.323508	-0.850626	0.008454	-0.002376	-0.013557	-0.834717	-0.215088	0.603760	-0.128170	-0.728399	0.106348	-0.664604
23575		9.725218	0.328033	-0.840469	-0.002163	-0.005715	-0.012772	-0.833496	-0.218994	0.606934	-0.128291	-0.728412	0.106446	-0.664550
23576		9.736024	0.256913	-0.865178	0.000940	-0.003279	-0.013248	-0.835938	-0.209717	0.610107	-0.128422	-0.728420	0.106535	-0.664501
23577		9.745905	0.324525	-0.857332	0.005714	-0.006096	-0.016199	-0.838867	-0.225586	0.606445	-0.128455	-0.728471	0.106507	-0.664444
23578		9.757189	0.368826	-0.844297	0.009096	-0.003613	-0.013670	-0.842773	-0.213135	0.607178	-0.128547	-0.728481	0.106546	-0.664409
23579		9.732583	0.328790	-0.863526	0.006025	-0.000305	-0.009010	-0.838379	-0.210938	0.607178	-0.128531	-0.728453	0.106568	-0.664439
23580		9.733098	0.293381	-0.848758	0.003369	0.006828	-0.011009	-0.834473	-0.209961	0.606201	-0.128560	-0.728373	0.106582	-0.664519
23581		9.735029	0.340516	-0.849406	0.005365	0.007047	-0.010154	-0.841309	-0.219482	0.608887	-0.128566	-0.728298	0.106591	-0.664598
23582		9.743294	0.330629	-0.866493	0.009038	0.009258	-0.008479	-0.840332	-0.213135	0.612793	-0.128582	-0.728201	0.106620	-0.664697
23583		9.741516	0.303510	-0.847336	0.001871	0.005078	-0.007252	-0.842529	-0.223145	0.604248	-0.128605	-0.728141	0.106697	-0.664746
23584		9.734834	0.294092	-0.822185	0.007031	0.002112	-0.008765	-0.841797	-0.209229	0.614258	-0.128657	-0.728086	0.106768	-0.664785
23585		9.736707	0.325458	-0.838595	0.005277	0.006919	-0.012434	-0.835205	-0.214844	0.604980	-0.128663	-0.728027	0.106743	-0.664852
23586		9.755474	0.310923	-0.863869	0.007324	0.001837	-0.009614	-0.848389	-0.217529	0.621338	-0.128676	-0.727995	0.106777	-0.664880
23587		9.759793	0.274778	-0.817949	0.018058	-0.003433	-0.010502	-0.838867	-0.212646	0.608887	-0.128582	-0.728044	0.106717	-0.664853
23588		9.718846	0.316862	-0.865435	0.018526	0.006944	-0.012279	-0.845459	-0.216797	0.607666	-0.128500	-0.727996	0.106607	-0.664940
23589		9.724601	0.332152	-0.864473	0.008210	0.005622	-0.012544	-0.841309	-0.217529	0.611328	-0.128526	-0.727927	0.106591	-0.665013
23590		9.733385	0.316902	-0.836930	0.008539	0.013080	-0.013264	-0.848877	-0.219482	0.605469	-0.128581	-0.727814	0.106571	-0.665129
23591		9.745640	0.291651	-0.836026	0.010636	0.010792	-0.013783	-0.848633	-0.212646	0.604492	-0.128614	-0.727697	0.106521	-0.665259
23592		9.733536	0.323619	-0.832591	0.008008	0.002245	-0.017611	-0.837402	-0.202393	0.612061	-0.128643	-0.727653	0.106434	-0.665315
23593		9.741538	0.331416	-0.836555	0.010296	-0.002424	-0.017223	-0.841553	-0.212646	0.604004	-0.128597	-0.727694	0.106314	-0.665299
23594		9.739668	0.389930	-0.811648	0.008446	0.003716	-0.014778	-0.843750	-0.216064	0.597900	-0.128617	-0.727645	0.106265	-0.665355
23595		9.722743	0.323609	-0.839717	0.005979	0.002675	-0.010758	-0.841064	-0.217285	0.600830	-0.128644	-0.727576	0.106286	-0.665422
23596		9.753436	0.312443	-0.837800	0.017311	-0.003136	-0.013328	-0.835938	-0.217285	0.606201	-0.128596	-0.727589	0.106214	-0.665429
23597		9.739414	0.382651	-0.827000	0.006568	-0.002495	-0.012074	-0.844727	-0.210938	0.605713	-0.128649	-0.727600	0.106255	-0.665400
23598		9.755483	0.324952	-0.827475	0.002693	-0.002006	-0.010806	-0.841553	-0.204590	0.608643	-0.128661	-0.727586	0.106282	-0.665409
23599		9.734302	0.321545	-0.828330	0.013227	0.000067	-0.009113	-0.840576	-0.210938	0.605469	-0.128529	-0.727584	0.106206	-0.665449
23600		9.718713	0.346379	-0.814148	0.012523	0.001983	-0.010581	-0.838135	-0.213379	0.604248	-0.128467	-0.727558	0.106158	-0.665497
23601		9.730367	0.326649	-0.860146	0.010177	0.000407	-0.011978	-0.840332	-0.210449	0.606934	-0.128459	-0.727543	0.106139	-0.665517
23602		9.749456	0.322179	-0.827327	0.008157	-0.002941	-0.013336	-0.847412	-0.208496	0.601807	-0.128451	-0.727560	0.106109	-0.665506
23603		9.741157	0.321432	-0.824223	0.009155	-0.002829	-0.012906	-0.833496	-0.219482	0.603271	-0.128403	-0.727552	0.106050	-0.665533
23604		9.741886	0.339005	-0.833224	0.007961	0.001743	-0.014433	-0.844727	-0.209473	0.610107	-0.128491	-0.727529	0.106070	-0.665538
23605		9.716581	0.368468	-0.835995	0.007864	-0.002668	-0.012480	-0.842529	-0.213867	0.607666	-0.128461	-0.727543	0.106035	-0.665534
23606		9.744174	0.335958	-0.836482	0.010387	0.005759	-0.010944	-0.840820	-0.216064	0.607666	-0.128443	-0.727484	0.106009	-0.665606
23607		9.735914	0.350556	-0.816171	0.004326	0.006089	-0.011251	-0.833740	-0.219727	0.603027	-0.128502	-0.727416	0.106046	-0.665663
23608		9.731910	0.317238	-0.809292	0.016427	0.002307	-0.011131	-0.840332	-0.210938	0.604248	-0.128486	-0.727398	0.106025	-0.665689
23609		9.738282	0.346871	-0.818761	0.007868	-0.002673	-0.012470	-0.836914	-0.208496	0.600098	-0.128478	-0.727405	0.106009	-0.665686
23610		9.722910	0.340518	-0.835174	0.004689	0.000513	-0.010124	-0.840332	-0.210938	0.606689	-0.128475	-0.727373	0.106028	-0.665718
23611		9.740518	0.343193	-0.822993	0.005290	-0.004656	-0.011431	-0.844727	-0.215088	0.600586	-0.128479	-0.727397	0.106045	-0.665688
23612		9.722577	0.345432	-0.837031	0.009122	-0.005617	-0.009542	-0.842529	-0.210693	0.609375	-0.128453	-0.727409	0.106067	-0.665677
23613		9.753285	0.333814	-0.835876	0.008979	-0.001612	-0.009061	-0.837891	-0.211670	0.607666	-0.128400	-0.727413	0.106063	-0.665683
23614		9.731081	0.331617	-0.813477	0.004543	-0.005526	-0.009555	-0.843506	-0.208008	0.607666	-0.128404	-0.727447	0.106114	-0.665637
23615		9.727763	0.312639	-0.817698	0.005455	-0.005546	-0.011404	-0.844238	-0.213135	0.604980	-0.128379	-0.727476	0.106109	-0.665611
23616		9.761407	0.338973	-0.798503	0.005762	-0.000396	-0.011948	-0.835938	-0.206787	0.609375	-0.128398	-0.727454	0.106118	-0.665630
23617		9.748231	0.354937	-0.787574	0.006465	0.003461	-0.006331	-0.837891	-0.220215	0.610596	-0.128339	-0.727421	0.106140	-0.665675
23618		9.715650	0.315678	-0.845549	0.005408	0.004023	-0.008343	-0.837891	-0.218994	0.606445	-0.128394	-0.727379	0.106226	-0.665696
23619		9.702661	0.315838	-0.849809	0.003377	-0.002453	-0.010194	-0.840088	-0.216553	0.605225	-0.128468	-0.727380	0.106317	-0.665665
23620		9.733520	0.330718	-0.773858	0.004419	-0.001867	-0.012911	-0.848877	-0.213135	0.602295	-0.128536	-0.727377	0.106358	-0.665650
23621		9.753095	0.330886	-0.809633	0.011002	-0.004031	-0.011838	-0.841797	-0.211670	0.602783	-0.128493	-0.727379	0.106324	-0.665661
23622		9.746236	0.296898	-0.860406	0.008618	-0.001818	-0.014319	-0.841064	-0.212646	0.606445	-0.128500	-0.727377	0.106287	-0.665668
23623		9.745220	0.363682	-0.800768	0.006163	-0.000889	-0.014347	-0.832275	-0.217285	0.605713	-0.128535	-0.727372	0.106274	-0.665668
23624		9.724270	0.345192	-0.816470	0.006380	-0.000146	-0.012937	-0.841064	-0.214844	0.605225	-0.128605	-0.727371	0.106310	-0.665650
23625		9.705896	0.317663	-0.835177	0.007853	0.001929	-0.012837	-0.838623	-0.220703	0.604736	-0.128631	-0.727340	0.106304	-0.665680
23626		9.767958	0.339664	-0.809222	0.012398	0.003333	-0.013706	-0.843994	-0.214355	0.604492	-0.128668	-0.727307	0.106288	-0.665712
23627		9.762050	0.345955	-0.793482	0.015030	-0.000789	-0.013451	-0.841309	-0.215088	0.605469	-0.128622	-0.727305	0.106213	-0.665734
23628		9.753764	0.318975	-0.864341	0.017381	-0.001509	-0.011854	-0.835449	-0.212891	0.617676	-0.128549	-0.727318	0.106143	-0.665746
23629		9.745857	0.328056	-0.801133	0.019243	0.002383	-0.014357	-0.843506	-0.218994	0.604004	-0.128477	-0.727344	0.106019	-0.665751
23630		9.722417	0.380341	-0.777060	0.015482	0.000347	-0.014462	-0.846191	-0.213135	0.604736	-0.128470	-0.727333	0.105959	-0.665774
23631		9.738194	0.380707	-0.844559	0.008580	-0.002299	-0.011150	-0.839111	-0.206299	0.606201	-0.128451	-0.727328	0.105953	-0.665784
23632		9.741219	0.306414	-0.840107	0.006185	-0.002047	-0.009600	-0.837402	-0.216797	0.603760	-0.128408	-0.727332	0.105952	-0.665788
23633		9.740744	0.386676	-0.789711	0.008284	-0.002020	-0.010301	-0.841553	-0.218506	0.609375	-0.128425	-0.727333	0.105992	-0.665777
23634		9.732795	0.369178	-0.801208	0.007016	-0.001044	-0.009192	-0.843018	-0.217041	0.599121	-0.128448	-0.727329	0.106049	-0.665768
23635		9.721482	0.381957	-0.838667	0.008013	-0.000925	-0.008762	-0.842041	-0.209473	0.595947	-0.128450	-0.727298	0.106098	-0.665793
23636		9.737547	0.309139	-0.829507	0.001394	-0.001544	-0.006500	-0.839355	-0.210693	0.615723	-0.128447	-0.727256	0.106183	-0.665827
23637		9.746560	0.339145	-0.783302	0.010007	-0.000686	-0.007903	-0.831543	-0.213379	0.605469	-0.128381	-0.727274	0.106182	-0.665819
23638		9.730706	0.337513	-0.844041	0.013887	-0.001168	-0.009151	-0.843750	-0.210938	0.608154	-0.128327	-0.727291	0.106172	-0.665813
23639		9.738725	0.343494	-0.847942	0.004840	0.001904	-0.010268	-0.841309	-0.214600	0.605957	-0.128332	-0.727257	0.106190	-0.665847
23640		9.734687	0.326135	-0.826605	0.003987	0.000081	-0.011362	-0.838379	-0.221191	0.602783	-0.128380	-0.727236	0.106234	-0.665854
23641		9.737249	0.366019	-0.809202	0.004703	-0.001825	-0.009886	-0.842041	-0.209229	0.612061	-0.128455	-0.727224	0.106331	-0.665836
23642		9.750340	0.354597	-0.820221	0.001416	-0.001906	-0.010326	-0.839355	-0.216553	0.604492	-0.128475	-0.727230	0.106372	-0.665820
23643		9.721116	0.347150	-0.817289	0.001797	-0.002042	-0.008898	-0.839600	-0.221436	0.609131	-0.128535	-0.727218	0.106473	-0.665804
23644		9.760042	0.340098	-0.819630	-0.002892	-0.002926	-0.011883	-0.833496	-0.210938	0.611084	-0.128689	-0.727220	0.106611	-0.665751
23645		9.743731	0.335284	-0.812253	-0.001233	-0.000915	-0.011073	-0.842529	-0.208984	0.610107	-0.128764	-0.727224	0.106686	-0.665720
23646		9.739474	0.353775	-0.829686	0.001143	-0.000809	-0.008788	-0.843994	-0.212158	0.604248	-0.128772	-0.727213	0.106740	-0.665722
23647		9.767485	0.367300	-0.809332	-0.000509	0.000303	-0.009109	-0.843994	-0.209473	0.606445	-0.128819	-0.727172	0.106821	-0.665744
23648		9.732450	0.316629	-0.811520	0.003793	-0.001800	-0.008037	-0.846924	-0.210205	0.610352	-0.128797	-0.727162	0.106864	-0.665753
23649		9.731408	0.340362	-0.841584	0.003069	-0.003019	-0.009999	-0.843018	-0.216309	0.613770	-0.128795	-0.727167	0.106894	-0.665743
23650		9.720280	0.363529	-0.820100	0.005383	-0.002240	-0.009296	-0.844971	-0.212891	0.610352	-0.128808	-0.727181	0.106944	-0.665717
23651		9.734626	0.314546	-0.817056	-0.002490	-0.005374	-0.010247	-0.840088	-0.215820	0.601074	-0.128875	-0.727199	0.107039	-0.665669
23652		9.746351	0.320768	-0.790328	0.003234	-0.007029	-0.010459	-0.833496	-0.206787	0.604492	-0.128920	-0.727225	0.107116	-0.665620
23653		9.756602	0.354351	-0.836225	-0.000443	0.004698	-0.011066	-0.840332	-0.211670	0.598633	-0.128971	-0.727169	0.107155	-0.665664
23654		9.739787	0.334939	-0.818529	0.000892	0.003050	-0.010589	-0.835938	-0.217041	0.612793	-0.129027	-0.727103	0.107214	-0.665716
23655		9.720661	0.354573	-0.791802	0.004964	0.002507	-0.011122	-0.836670	-0.212646	0.606689	-0.129078	-0.727089	0.107252	-0.665716
23656		9.740309	0.354310	-0.826774	0.003900	-0.002015	-0.009588	-0.839600	-0.211426	0.609131	-0.129096	-0.727094	0.107303	-0.665699
23657		9.736300	0.336788	-0.806268	0.008269	-0.002838	-0.010963	-0.836182	-0.213135	0.604980	-0.129071	-0.727116	0.107294	-0.665681
23658		9.740013	0.338799	-0.774931	0.005130	-0.003448	-0.007553	-0.842285	-0.221191	0.611084	-0.129064	-0.727128	0.107360	-0.665658
23659		9.744698	0.359249	-0.820953	0.012510	-0.004265	-0.011469	-0.839844	-0.218994	0.606201	-0.129057	-0.727167	0.107359	-0.665617
23660		9.728743	0.337844	-0.829121	0.005915	-0.004079	-0.008524	-0.837646	-0.219238	0.604492	-0.129079	-0.727182	0.107436	-0.665584
23661		9.730183	0.332805	-0.809834	0.001778	-0.005994	-0.010054	-0.839355	-0.211426	0.600098	-0.129155	-0.727208	0.107541	-0.665524
23662		9.751002	0.341362	-0.810293	0.003836	-0.001350	-0.011161	-0.837402	-0.211670	0.611572	-0.129180	-0.727189	0.107574	-0.665535
23663		9.740229	0.348895	-0.803155	0.004005	0.000890	-0.010652	-0.835205	-0.209473	0.606934	-0.129199	-0.727181	0.107599	-0.665536
23664		9.750578	0.316047	-0.816458	0.007315	-0.001328	-0.010006	-0.840332	-0.217773	0.614502	-0.129173	-0.727189	0.107600	-0.665532
23665		9.717005	0.370924	-0.809949	0.006276	-0.003089	-0.011808	-0.842285	-0.213867	0.604980	-0.129205	-0.727220	0.107626	-0.665488
23666		9.719872	0.348601	-0.828588	0.007654	0.000027	-0.009471	-0.843994	-0.220215	0.611328	-0.129191	-0.727199	0.107644	-0.665510
23667		9.719136	0.336546	-0.820348	0.002100	-0.005462	-0.010201	-0.837891	-0.218506	0.607666	-0.129256	-0.727227	0.107735	-0.665452
23668		9.746199	0.306124	-0.798331	0.003818	-0.005299	-0.012324	-0.844727	-0.214600	0.608887	-0.129323	-0.727260	0.107792	-0.665394
23669		9.742510	0.369437	-0.819920	0.007488	-0.005339	-0.010457	-0.837891	-0.206055	0.606201	-0.129309	-0.727290	0.107809	-0.665361
23670		9.722984	0.358543	-0.801246	0.004074	-0.006035	-0.010029	-0.837402	-0.215576	0.603027	-0.129282	-0.727326	0.107826	-0.665324
23671		9.733259	0.325636	-0.816097	0.003928	-0.007457	-0.009847	-0.846680	-0.213867	0.606689	-0.129312	-0.727364	0.107898	-0.665265
23672		9.752519	0.371541	-0.831907	0.003586	-0.005689	-0.009896	-0.846191	-0.218262	0.599609	-0.129323	-0.727382	0.107950	-0.665236
23673		9.720864	0.326435	-0.847679	0.004099	-0.008343	-0.009819	-0.838867	-0.217773	0.608887	-0.129356	-0.727405	0.108033	-0.665190
23674		9.772289	0.337529	-0.831982	0.006069	-0.005787	-0.009169	-0.843750	-0.209961	0.606689	-0.129368	-0.727441	0.108094	-0.665138
23675		9.749914	0.350741	-0.793662	0.010017	0.006398	-0.006228	-0.837402	-0.218262	0.607178	-0.129287	-0.727368	0.108089	-0.665235
23676		9.728139	0.321641	-0.842997	0.003843	0.005710	-0.009501	-0.836670	-0.208496	0.605225	-0.129345	-0.727304	0.108152	-0.665283
23677		9.746044	0.354894	-0.823588	0.003512	0.001227	-0.010510	-0.843018	-0.211914	0.609863	-0.129354	-0.727278	0.108172	-0.665307
23678		9.753444	0.346822	-0.818736	0.007486	-0.002217	-0.009966	-0.838379	-0.219971	0.604980	-0.129325	-0.727287	0.108174	-0.665302
23679		9.730700	0.350048	-0.840076	0.003749	-0.000326	-0.008903	-0.842041	-0.216797	0.614746	-0.129380	-0.727266	0.108263	-0.665300
23680		9.718811	0.328736	-0.815315	0.003499	-0.002722	-0.011672	-0.842041	-0.216309	0.609131	-0.129427	-0.727286	0.108303	-0.665262
23681		9.736343	0.302006	-0.808936	0.006185	-0.000126	-0.013572	-0.840820	-0.214844	0.608398	-0.129469	-0.727279	0.108303	-0.665262
23682		9.755108	0.334615	-0.813758	0.006428	0.004203	-0.014826	-0.839600	-0.213623	0.609131	-0.129519	-0.727238	0.108276	-0.665301
23683		9.727801	0.320927	-0.788266	0.005740	0.007739	-0.014928	-0.843262	-0.211182	0.604004	-0.129574	-0.727171	0.108243	-0.665369
23684		9.736327	0.342797	-0.800135	0.015536	0.001624	-0.016821	-0.840576	-0.213623	0.611084	-0.129534	-0.727158	0.108113	-0.665412
23685		9.744172	0.320160	-0.809951	0.019468	-0.000331	-0.017162	-0.843506	-0.220947	0.601562	-0.129469	-0.727187	0.107954	-0.665419
23686		9.718292	0.350164	-0.812580	0.017820	0.003520	-0.020819	-0.832275	-0.212646	0.603027	-0.129501	-0.727159	0.107815	-0.665467
23687		9.751997	0.332586	-0.813029	0.022364	0.003017	-0.017653	-0.842773	-0.213623	0.605469	-0.129428	-0.727160	0.107633	-0.665509
23688		9.737346	0.402107	-0.825683	0.010717	0.003215	-0.018436	-0.852539	-0.211670	0.603271	-0.129461	-0.727131	0.107536	-0.665550
23689		9.709956	0.388762	-0.801124	0.007438	0.001185	-0.014854	-0.836914	-0.225586	0.606689	-0.129472	-0.727090	0.107490	-0.665600
23690		9.712984	0.397246	-0.813606	0.008600	-0.002319	-0.011060	-0.834717	-0.211914	0.606201	-0.129524	-0.727103	0.107542	-0.665566
23691		9.738598	0.374148	-0.811760	0.003715	-0.005931	-0.011409	-0.836182	-0.217285	0.613281	-0.129547	-0.727145	0.107576	-0.665512
23692		9.735295	0.371028	-0.800093	0.002601	0.001236	-0.008655	-0.841553	-0.215332	0.606934	-0.129587	-0.727133	0.107646	-0.665505
23693		9.742800	0.362589	-0.794714	0.005400	0.001685	-0.008083	-0.842041	-0.211426	0.597412	-0.129588	-0.727099	0.107694	-0.665534
23694		9.733039	0.337346	-0.817005	0.010945	0.000118	-0.008988	-0.838623	-0.220703	0.605957	-0.129531	-0.727068	0.107684	-0.665581
23695		9.722665	0.358771	-0.819387	0.008950	-0.004090	-0.010997	-0.840332	-0.219727	0.605713	-0.129549	-0.727094	0.107714	-0.665544
23696		9.732660	0.372436	-0.813151	0.004889	-0.006691	-0.010945	-0.847900	-0.217041	0.604248	-0.129593	-0.727131	0.107776	-0.665485
23697		9.755622	0.357981	-0.808177	0.010279	-0.002602	-0.010040	-0.834473	-0.212158	0.609863	-0.129565	-0.727128	0.107781	-0.665493
23698		9.729691	0.355500	-0.817603	0.002791	-0.002781	-0.009094	-0.847656	-0.221436	0.609131	-0.129579	-0.727147	0.107833	-0.665461
23699		9.752201	0.356627	-0.797363	0.007757	-0.002955	-0.007639	-0.840332	-0.221191	0.606934	-0.129574	-0.727149	0.107895	-0.665450
23700		9.723652	0.332438	-0.809357	0.012379	-0.002566	-0.010729	-0.841064	-0.213623	0.605713	-0.129560	-0.727166	0.107896	-0.665434
23701		9.731953	0.352826	-0.823371	0.010506	-0.004971	-0.009111	-0.838623	-0.210938	0.611084	-0.129507	-0.727196	0.107897	-0.665412
23702		9.748137	0.343351	-0.779063	0.009441	-0.004442	-0.011113	-0.842041	-0.211426	0.608398	-0.129465	-0.727237	0.107870	-0.665379
23703		9.734205	0.379176	-0.822972	0.004018	-0.002281	-0.011075	-0.839600	-0.208740	0.603516	-0.129477	-0.727241	0.107890	-0.665369
23704		9.731033	0.345972	-0.816919	0.003843	-0.001397	-0.011102	-0.839844	-0.217285	0.614990	-0.129484	-0.727230	0.107906	-0.665377
23705		9.737965	0.354164	-0.797410	0.002740	-0.001305	-0.009981	-0.843506	-0.220459	0.599854	-0.129526	-0.727239	0.107961	-0.665350
23706		9.749000	0.365963	-0.813929	0.009248	-0.000430	-0.010668	-0.848145	-0.218506	0.606445	-0.129543	-0.727212	0.107990	-0.665372
23707		9.752094	0.373674	-0.825642	0.004012	0.005619	-0.008772	-0.841553	-0.219482	0.604736	-0.129579	-0.727132	0.108049	-0.665442
23708		9.740551	0.352004	-0.799247	0.000462	0.003490	-0.008165	-0.839600	-0.208252	0.614014	-0.129652	-0.727070	0.108156	-0.665479
23709		9.731950	0.366202	-0.779998	0.007481	0.000892	-0.009445	-0.841064	-0.216797	0.607910	-0.129602	-0.727068	0.108134	-0.665494
23710		9.710770	0.351131	-0.839387	0.007987	0.001369	-0.008890	-0.843262	-0.208008	0.607910	-0.129593	-0.727046	0.108157	-0.665516
23711		9.746226	0.354813	-0.814180	0.002812	-0.001968	-0.008398	-0.843994	-0.209961	0.610352	-0.129576	-0.727040	0.108195	-0.665519
23712		9.743733	0.346316	-0.758328	0.007839	-0.004828	-0.010531	-0.846680	-0.212158	0.605225	-0.129534	-0.727074	0.108181	-0.665493
23713		9.746024	0.329051	-0.822336	0.008367	-0.007480	-0.010442	-0.839844	-0.210449	0.606689	-0.129498	-0.727114	0.108185	-0.665456
23714		9.730407	0.382632	-0.828319	0.006965	-0.004364	-0.011821	-0.836426	-0.218262	0.615967	-0.129485	-0.727142	0.108175	-0.665430
23715		9.736091	0.347942	-0.782472	0.005126	-0.005122	-0.008842	-0.837402	-0.212402	0.605957	-0.129495	-0.727192	0.108226	-0.665365
23716		9.700188	0.378429	-0.803211	0.008744	-0.003649	-0.007872	-0.840088	-0.213867	0.605469	-0.129447	-0.727211	0.108246	-0.665350
23717		9.732838	0.349678	-0.840204	0.007831	-0.000879	-0.009379	-0.845703	-0.208740	0.599854	-0.129430	-0.727203	0.108263	-0.665359
23718		9.757546	0.358363	-0.808153	0.005594	-0.002341	-0.008500	-0.834961	-0.212646	0.608643	-0.129401	-0.727183	0.108296	-0.665381
23719		9.757418	0.360090	-0.808925	0.010739	-0.003385	-0.007014	-0.845459	-0.220459	0.607910	-0.129329	-0.727212	0.108304	-0.665362
23720		9.736400	0.355408	-0.810129	0.004475	-0.003073	-0.008059	-0.842529	-0.215332	0.604004	-0.129356	-0.727211	0.108387	-0.665344
23721		9.744312	0.361049	-0.814382	0.009364	0.001378	-0.007036	-0.839844	-0.214600	0.605713	-0.129317	-0.727176	0.108418	-0.665385
23722		9.723366	0.355963	-0.814901	0.009160	-0.002123	-0.005086	-0.843750	-0.216064	0.605225	-0.129256	-0.727176	0.108468	-0.665389
23723		9.755100	0.328615	-0.828127	0.005772	-0.003228	-0.008465	-0.844971	-0.216064	0.602051	-0.129258	-0.727177	0.108525	-0.665379
23724		9.743354	0.337311	-0.796956	0.004177	0.004724	-0.008737	-0.848877	-0.215820	0.602051	-0.129291	-0.727100	0.108586	-0.665446
23725		9.733974	0.356400	-0.821347	0.008300	0.006678	-0.007215	-0.841797	-0.220947	0.606689	-0.129272	-0.727007	0.108621	-0.665545
23726		9.728760	0.345388	-0.819427	0.011723	0.003435	-0.008773	-0.846680	-0.214600	0.604736	-0.129256	-0.726969	0.108633	-0.665589
23727		9.728029	0.363217	-0.805445	0.013908	-0.008649	-0.007507	-0.841309	-0.213867	0.606201	-0.129161	-0.727023	0.108634	-0.665548
23728		9.724957	0.329266	-0.800756	0.017370	-0.006687	-0.010365	-0.844971	-0.218506	0.608154	-0.129060	-0.727081	0.108572	-0.665514
23729		9.725689	0.329804	-0.826259	0.009618	-0.006168	-0.011713	-0.847900	-0.213623	0.603027	-0.129060	-0.727121	0.108579	-0.665469
23730		9.728318	0.368080	-0.834165	0.005390	-0.003118	-0.009873	-0.844482	-0.215088	0.604736	-0.129068	-0.727112	0.108621	-0.665470
23731		9.756027	0.338214	-0.811151	0.005633	-0.001926	-0.011604	-0.843262	-0.217773	0.603027	-0.129097	-0.727104	0.108647	-0.665469
