// Start Time: Unknown
// Update Rate: 40.0Hz
// Filter Profile: human (46.1)
// Firmware Version: 4.6.0
PacketCounter	SampleTimeFine	Acc_X	Acc_Y	Acc_Z	Gyr_X	Gyr_Y	Gyr_Z	Mag_X	Mag_Y	Mag_Z	Quat_q0	Quat_q1	Quat_q2	Quat_q3
23208		9.327280	1.804662	-2.315941	-0.001069	-0.008321	-0.009434	-0.610840	-0.443604	0.619141	-0.251696	-0.765900	0.178238	-0.564160
23209		9.353879	1.819974	-2.267832	0.013609	-0.005737	-0.011607	-0.604248	-0.439697	0.625732	-0.251635	-0.766009	0.178049	-0.564099
23210		9.363262	1.842018	-2.241884	0.012256	-0.000912	-0.014186	-0.603516	-0.438232	0.624268	-0.251517	-0.766122	0.177831	-0.564068
23211		9.326460	1.859394	-2.257691	0.010782	-0.004810	-0.015758	-0.604980	-0.439453	0.625244	-0.251426	-0.766251	0.177622	-0.563999
23212		9.334881	1.878563	-2.253569	0.006599	-0.006043	-0.014881	-0.597412	-0.443848	0.623047	-0.251381	-0.766367	0.177451	-0.563915
23213		9.326081	1.850484	-2.253545	0.008452	-0.001234	-0.017228	-0.595215	-0.440918	0.625244	-0.251419	-0.766437	0.177220	-0.563875
23214		9.353005	1.821713	-2.276583	0.004596	-0.005098	-0.014438	-0.600830	-0.439209	0.626709	-0.251427	-0.766525	0.177053	-0.563805
23215		9.351871	1.838247	-2.315562	0.005827	-0.002653	-0.011732	-0.597656	-0.446289	0.619629	-0.251386	-0.766597	0.176894	-0.563775
23216		9.340008	1.871706	-2.219664	0.013003	-0.003274	-0.014918	-0.598145	-0.436035	0.622803	-0.251415	-0.766666	0.176652	-0.563744
23217		9.350011	1.866765	-2.281701	0.005171	-0.001709	-0.017080	-0.599609	-0.438232	0.620361	-0.251432	-0.766727	0.176433	-0.563722
23218		9.344770	1.848530	-2.247419	0.004469	-0.002146	-0.015834	-0.603516	-0.445312	0.621094	-0.251490	-0.766771	0.176226	-0.563702
23219		9.341181	1.846013	-2.260507	0.001672	-0.004279	-0.014529	-0.602295	-0.438232	0.626221	-0.251625	-0.766802	0.176051	-0.563654
23220		9.354252	1.833401	-2.272335	0.004554	-0.001662	-0.016210	-0.598633	-0.434326	0.628906	-0.251657	-0.766850	0.175824	-0.563645
23221		9.346949	1.803503	-2.302838	0.005106	-0.004605	-0.012511	-0.598633	-0.440186	0.620850	-0.251603	-0.766925	0.175633	-0.563626
23222		9.361044	1.873885	-2.254625	0.013107	-0.005194	-0.011104	-0.598633	-0.439453	0.617920	-0.251558	-0.766980	0.175419	-0.563638
23223		9.349769	1.901815	-2.211089	0.002984	-0.001350	-0.012201	-0.606689	-0.437988	0.618652	-0.251643	-0.766960	0.175253	-0.563680
23224		9.337255	1.859723	-2.265482	-0.010855	-0.004328	-0.009106	-0.597656	-0.447021	0.623535	-0.251822	-0.766886	0.175217	-0.563712
23225		9.331981	1.831671	-2.305423	-0.010818	-0.009284	-0.009354	-0.598633	-0.436279	0.613525	-0.252050	-0.766895	0.175181	-0.563609
23226		9.350717	1.776430	-2.275394	0.002992	-0.005660	-0.013720	-0.594238	-0.445068	0.627930	-0.252122	-0.766891	0.175006	-0.563636
23227		9.345903	1.765728	-2.331272	0.009644	0.002248	-0.012111	-0.604980	-0.440186	0.627197	-0.252134	-0.766920	0.174767	-0.563666
23228		9.357789	1.847415	-2.310750	0.020131	-0.002451	-0.012016	-0.599121	-0.441895	0.619629	-0.251976	-0.766972	0.174487	-0.563752
23229		9.372778	1.930236	-2.167197	0.012737	-0.003687	-0.011369	-0.598145	-0.437256	0.622070	-0.251943	-0.767001	0.174290	-0.563788
23230		9.359966	1.870470	-2.205571	-0.002694	-0.001545	-0.012638	-0.599854	-0.444092	0.624268	-0.252024	-0.766976	0.174144	-0.563832
23231		9.321351	1.822485	-2.267219	-0.000803	-0.006254	-0.011810	-0.603271	-0.445068	0.625000	-0.252132	-0.766976	0.174021	-0.563820
23232		9.353263	1.841196	-2.267981	0.009175	-0.002817	-0.010598	-0.593506	-0.440674	0.626465	-0.252143	-0.766965	0.173842	-0.563886
23233		9.362707	1.822603	-2.261432	0.015135	-0.001811	-0.010023	-0.598389	-0.438965	0.613525	-0.252032	-0.767028	0.173586	-0.563929
23234		9.376307	1.865945	-2.270654	0.008400	-0.005897	-0.009730	-0.605713	-0.439941	0.615479	-0.252045	-0.767012	0.173452	-0.563987
23235		9.329239	1.894129	-2.204652	0.010121	-0.007011	-0.011573	-0.600342	-0.446289	0.628174	-0.252047	-0.766978	0.173303	-0.564077
23236		9.314681	1.849491	-2.250554	-0.003010	-0.003492	-0.011120	-0.603027	-0.443848	0.618408	-0.252175	-0.766954	0.173207	-0.564081
23237		9.321832	1.820587	-2.308207	0.003932	-0.003392	-0.012414	-0.598633	-0.431396	0.627930	-0.252282	-0.766897	0.173083	-0.564149
23238		9.375554	1.783620	-2.286734	0.008000	-0.005913	-0.012023	-0.601807	-0.448486	0.623291	-0.252080	-0.766977	0.172806	-0.564215
23239		9.368785	1.819812	-2.240792	0.007615	-0.004413	-0.012291	-0.603760	-0.443848	0.625244	-0.252169	-0.766963	0.172692	-0.564230
23240		9.354966	1.819147	-2.245652	0.005986	-0.004974	-0.011582	-0.593750	-0.437256	0.618652	-0.252176	-0.766950	0.172562	-0.564285
23241		9.331949	1.860254	-2.253010	0.004108	-0.004586	-0.013924	-0.598633	-0.437012	0.616943	-0.252181	-0.766983	0.172387	-0.564291
23242		9.333796	1.828571	-2.261988	0.002926	-0.007926	-0.010406	-0.597168	-0.433350	0.626953	-0.252173	-0.766981	0.172288	-0.564328
23243		9.359963	1.818276	-2.271043	0.009303	-0.002729	-0.014645	-0.599609	-0.431152	0.625244	-0.251981	-0.767052	0.171990	-0.564408
23244		9.345976	1.800954	-2.258767	0.009862	0.000659	-0.017294	-0.603516	-0.437988	0.621094	-0.251787	-0.767080	0.171664	-0.564555
23245		9.348277	1.844750	-2.280130	0.015080	-0.002042	-0.014583	-0.605713	-0.441406	0.623047	-0.251681	-0.767058	0.171454	-0.564697
23246		9.362874	1.879410	-2.229705	0.013502	-0.001482	-0.015521	-0.606445	-0.435547	0.618652	-0.251632	-0.767017	0.171267	-0.564831
23247		9.361066	1.843768	-2.218932	0.001511	-0.000326	-0.013505	-0.603760	-0.441162	0.617920	-0.251636	-0.766900	0.171174	-0.565016
23248		9.338580	1.839460	-2.297742	-0.004786	-0.008722	-0.012419	-0.598633	-0.444336	0.623535	-0.251793	-0.766823	0.171208	-0.565041
23249		9.328063	1.848950	-2.269060	0.005349	-0.004291	-0.011976	-0.593262	-0.437012	0.615479	-0.251847	-0.766827	0.171109	-0.565040
23250		9.356865	1.827797	-2.248805	0.003209	-0.000801	-0.016614	-0.600098	-0.444092	0.628662	-0.251931	-0.766818	0.170954	-0.565063
23251		9.353228	1.808011	-2.245024	0.001422	-0.002332	-0.015146	-0.602295	-0.444336	0.617188	-0.251967	-0.766832	0.170798	-0.565074
23252		9.363674	1.846977	-2.266193	0.010267	-0.004761	-0.014854	-0.598633	-0.443359	0.625244	-0.252064	-0.766770	0.170725	-0.565138
23253		9.372807	1.870256	-2.239937	0.006776	0.000498	-0.016627	-0.588623	-0.448486	0.618652	-0.252093	-0.766772	0.170531	-0.565181
23254		9.346964	1.831148	-2.245095	-0.005895	-0.003113	-0.014870	-0.600586	-0.439941	0.620850	-0.252455	-0.766771	0.170536	-0.565018
23255		9.342621	1.824990	-2.279623	-0.008371	-0.007241	-0.012911	-0.597900	-0.440674	0.612061	-0.252543	-0.766725	0.170514	-0.565048
23256		9.345429	1.815414	-2.282998	0.000900	-0.003962	-0.015408	-0.605957	-0.444580	0.619629	-0.252706	-0.766632	0.170478	-0.565113
23257		9.357717	1.764549	-2.283341	0.003773	-0.001334	-0.017095	-0.604004	-0.436279	0.620850	-0.252810	-0.766513	0.170392	-0.565253
23258		9.352113	1.834733	-2.300663	0.015867	-0.004383	-0.015305	-0.604004	-0.442627	0.620605	-0.252553	-0.766519	0.170129	-0.565439
23259		9.368833	1.880720	-2.186100	0.010938	-0.001758	-0.011672	-0.606445	-0.448242	0.618408	-0.252495	-0.766453	0.170019	-0.565588
23260		9.347910	1.883397	-2.221792	-0.002530	-0.003907	-0.012475	-0.605713	-0.453369	0.619385	-0.252733	-0.766291	0.170100	-0.565677
23261		9.329748	1.852741	-2.264856	-0.002126	-0.005172	-0.017141	-0.599609	-0.438232	0.622559	-0.253104	-0.766149	0.170175	-0.565681
23262		9.332951	1.838006	-2.320480	0.002281	-0.004218	-0.016243	-0.607666	-0.443604	0.620605	-0.253002	-0.766177	0.169968	-0.565750
23263		9.369937	1.817333	-2.247217	0.016742	0.002234	-0.012511	-0.598877	-0.441650	0.619629	-0.252882	-0.766075	0.169791	-0.565996
23264		9.381922	1.863135	-2.225228	0.007489	-0.004741	-0.012781	-0.597900	-0.443848	0.622559	-0.252843	-0.766080	0.169665	-0.566044
23265		9.340193	1.871785	-2.243672	-0.002737	-0.003609	-0.014250	-0.603516	-0.441650	0.620605	-0.252934	-0.766077	0.169588	-0.566030
23266		9.331352	1.839728	-2.264331	0.004933	-0.001519	-0.014772	-0.606201	-0.446045	0.614746	-0.252899	-0.766018	0.169450	-0.566167
23267		9.341228	1.816820	-2.310189	0.015740	-0.005341	-0.014539	-0.600830	-0.435791	0.619873	-0.252942	-0.765913	0.169377	-0.566311
23268		9.360210	1.842274	-2.240889	0.014112	-0.000467	-0.013975	-0.603271	-0.442139	0.621094	-0.252676	-0.765926	0.169100	-0.566496
23269		9.364145	1.852914	-2.238722	0.005528	-0.001167	-0.011967	-0.602783	-0.441650	0.618896	-0.252628	-0.765870	0.168991	-0.566625
23270		9.340130	1.872247	-2.250764	0.008693	-0.003798	-0.012108	-0.595703	-0.439209	0.613037	-0.252569	-0.765827	0.168885	-0.566741
23271		9.356083	1.882105	-2.267657	0.007011	-0.007010	-0.011768	-0.605957	-0.443604	0.621826	-0.252581	-0.765818	0.168824	-0.566766
23272		9.353352	1.847623	-2.226948	0.004033	-0.004049	-0.011115	-0.594971	-0.440674	0.619629	-0.252551	-0.765753	0.168758	-0.566887
23273		9.359583	1.820104	-2.253736	0.001974	-0.002484	-0.011946	-0.601074	-0.436035	0.616699	-0.252557	-0.765774	0.168652	-0.566888
23274		9.357391	1.814521	-2.297801	0.006390	-0.005436	-0.008883	-0.599609	-0.441895	0.627686	-0.252382	-0.765746	0.168549	-0.567034
23275		9.363904	1.812974	-2.268167	0.012456	-0.006066	-0.009446	-0.593262	-0.438232	0.622314	-0.252141	-0.765860	0.168337	-0.567050
23276		9.371013	1.832836	-2.233940	0.014827	-0.007226	-0.012148	-0.602783	-0.445801	0.617920	-0.251924	-0.766008	0.168099	-0.567017
23277		9.374632	1.843491	-2.233061	0.008042	-0.004645	-0.014524	-0.594238	-0.442139	0.621338	-0.252038	-0.765936	0.168064	-0.567075
23278		9.342996	1.866186	-2.277490	0.009690	-0.007992	-0.013063	-0.603027	-0.444336	0.617432	-0.251996	-0.766031	0.167924	-0.567006
23279		9.321313	1.891555	-2.278412	0.005891	-0.005318	-0.012057	-0.600342	-0.447510	0.620605	-0.252074	-0.765948	0.167916	-0.567086
23280		9.364709	1.837182	-2.252798	0.003692	-0.001442	-0.013031	-0.606445	-0.441895	0.622559	-0.252226	-0.765887	0.167883	-0.567110
23281		9.366317	1.801773	-2.282559	0.004524	-0.006599	-0.013230	-0.599609	-0.438965	0.621094	-0.252145	-0.765854	0.167785	-0.567220
23282		9.348066	1.854111	-2.266207	0.011998	-0.005049	-0.009335	-0.594482	-0.445068	0.625244	-0.251950	-0.765887	0.167637	-0.567306
23283		9.362475	1.888591	-2.216400	0.010244	-0.003083	-0.013700	-0.597168	-0.447266	0.625488	-0.251928	-0.765982	0.167459	-0.567240
23284		9.351852	1.870552	-2.244715	-0.001554	-0.006201	-0.007729	-0.598389	-0.440674	0.622070	-0.252011	-0.766013	0.167458	-0.567161
23285		9.343999	1.858069	-2.260860	-0.006668	-0.006078	-0.005359	-0.605469	-0.438965	0.614258	-0.252005	-0.765996	0.167495	-0.567176
23286		9.345419	1.827706	-2.238309	-0.010656	-0.006796	-0.008894	-0.595947	-0.445068	0.622803	-0.252107	-0.765830	0.167620	-0.567318
23287		9.369814	1.754250	-2.262015	-0.004724	-0.006634	-0.011618	-0.596680	-0.438721	0.625244	-0.252226	-0.765858	0.167605	-0.567232
23288		9.369274	1.751469	-2.315626	0.012249	-0.003370	-0.015409	-0.603516	-0.434814	0.619873	-0.252009	-0.765967	0.167340	-0.567260
23289		9.384631	1.801653	-2.313137	0.012084	-0.004559	-0.009716	-0.602051	-0.446045	0.617188	-0.251718	-0.765956	0.167192	-0.567447
23290		9.361703	1.850595	-2.246917	0.002779	-0.004184	-0.004442	-0.602051	-0.447754	0.622314	-0.251812	-0.765847	0.167291	-0.567524
23291		9.377478	1.865284	-2.211516	0.000152	-0.008430	-0.007913	-0.606689	-0.439453	0.621826	-0.251899	-0.765823	0.167335	-0.567504
23292		9.329497	1.857262	-2.275972	0.007156	-0.003031	-0.017968	-0.602295	-0.440186	0.619629	-0.251788	-0.765784	0.167161	-0.567657
23293		9.352542	1.820992	-2.301378	0.008233	-0.000401	-0.016179	-0.606934	-0.435547	0.622559	-0.251734	-0.765742	0.167010	-0.567783
23294		9.376623	1.832369	-2.264723	0.015112	-0.002482	-0.014184	-0.599609	-0.439453	0.620850	-0.251421	-0.765739	0.166777	-0.567993
23295		9.373959	1.832692	-2.256672	0.003808	-0.004878	-0.011230	-0.601562	-0.440918	0.622070	-0.251354	-0.765745	0.166698	-0.568038
23296		9.347090	1.845823	-2.280929	0.000368	-0.003075	-0.011220	-0.606201	-0.444336	0.628418	-0.251331	-0.765718	0.166642	-0.568101
23297		9.347920	1.856161	-2.239067	0.006291	-0.004655	-0.011028	-0.595215	-0.434326	0.613770	-0.251201	-0.765740	0.166510	-0.568168
23298		9.356893	1.834905	-2.253667	0.003496	-0.001152	-0.014800	-0.601562	-0.438232	0.617920	-0.251196	-0.765702	0.166433	-0.568244
23299		9.361732	1.828046	-2.265877	0.002448	-0.003569	-0.021515	-0.605225	-0.436523	0.619873	-0.251235	-0.765671	0.166299	-0.568307
23300		9.372577	1.793290	-2.272925	0.006628	0.000773	-0.018379	-0.600586	-0.444336	0.622314	-0.251132	-0.765612	0.166124	-0.568484
23301		9.348431	1.796291	-2.268154	0.008955	-0.003247	-0.016512	-0.598877	-0.439209	0.623779	-0.251138	-0.765631	0.165974	-0.568499
23302		9.364190	1.851873	-2.243926	0.005630	-0.003128	-0.017624	-0.605957	-0.437012	0.619385	-0.251055	-0.765686	0.165778	-0.568519
23303		9.350846	1.829432	-2.283484	0.002491	0.000602	-0.019134	-0.598633	-0.444824	0.619385	-0.251019	-0.765603	0.165646	-0.568685
23304		9.367425	1.845250	-2.277617	0.011688	0.000176	-0.020364	-0.596680	-0.438965	0.623291	-0.251097	-0.765599	0.165464	-0.568710
23305		9.351632	1.843702	-2.272393	0.009574	-0.002664	-0.018639	-0.606689	-0.440674	0.624268	-0.250994	-0.765679	0.165228	-0.568715
23306		9.363904	1.833568	-2.253393	0.006903	-0.001695	-0.017337	-0.606689	-0.442871	0.619141	-0.250894	-0.765661	0.165052	-0.568835
23307		9.352105	1.874515	-2.278550	-0.001474	-0.004266	-0.015554	-0.597656	-0.441406	0.618408	-0.250985	-0.765572	0.165042	-0.568918
23308		9.359417	1.879142	-2.226287	0.002857	-0.000482	-0.015194	-0.595947	-0.445801	0.627930	-0.251052	-0.765543	0.164962	-0.568951
23309		9.329379	1.865330	-2.266905	-0.003567	-0.002927	-0.011457	-0.606201	-0.442383	0.627197	-0.251093	-0.765606	0.164869	-0.568875
23310		9.341861	1.865682	-2.316705	0.000443	-0.005252	-0.011949	-0.610107	-0.442139	0.620850	-0.250994	-0.765616	0.164772	-0.568933
23311		9.360021	1.888592	-2.268408	0.007579	0.000908	-0.017836	-0.598877	-0.444824	0.618408	-0.250961	-0.765522	0.164638	-0.569113
23312		9.362139	1.842681	-2.227669	0.003346	0.005060	-0.017109	-0.608154	-0.434570	0.617188	-0.251102	-0.765444	0.164535	-0.569184
23313		9.356168	1.833770	-2.252182	0.001496	-0.006797	-0.012535	-0.610107	-0.439209	0.616211	-0.250984	-0.765379	0.164512	-0.569331
23314		9.365770	1.872271	-2.274009	-0.000817	-0.005161	-0.010217	-0.597412	-0.436279	0.618896	-0.250974	-0.765255	0.164564	-0.569486
23315		9.346809	1.864671	-2.249409	-0.003486	0.003263	-0.007454	-0.600342	-0.443115	0.615967	-0.250938	-0.765195	0.164547	-0.569588
23316		9.334910	1.844531	-2.266435	-0.007566	-0.000613	-0.010960	-0.591797	-0.442139	0.617188	-0.251121	-0.765091	0.164618	-0.569627
23317		9.339319	1.821027	-2.231304	-0.002323	-0.007419	-0.010626	-0.604492	-0.437500	0.620605	-0.251227	-0.765135	0.164629	-0.569519
23318		9.353259	1.801947	-2.295465	0.003478	-0.000738	-0.011127	-0.602783	-0.442383	0.624756	-0.251100	-0.765098	0.164537	-0.569650
23319		9.368065	1.830856	-2.296631	0.015137	0.003904	-0.011057	-0.614990	-0.437988	0.610596	-0.250912	-0.765108	0.164320	-0.569782
23320		9.383303	1.869246	-2.224544	0.011111	-0.002980	-0.009109	-0.601807	-0.445801	0.624756	-0.250821	-0.764931	0.164358	-0.570049
23321		9.363183	1.862800	-2.170210	0.003171	-0.004416	-0.006689	-0.605713	-0.441895	0.618896	-0.250776	-0.764957	0.164311	-0.570048
23322		9.329432	1.854858	-2.261895	-0.000682	-0.006849	-0.011333	-0.602295	-0.441895	0.623047	-0.250795	-0.764920	0.164314	-0.570087
23323		9.340475	1.835691	-2.285716	0.005266	0.000800	-0.012597	-0.600586	-0.444092	0.623291	-0.250735	-0.764917	0.164180	-0.570157
23324		9.375486	1.826682	-2.240950	0.017937	-0.000483	-0.010560	-0.600586	-0.442627	0.616943	-0.250579	-0.764968	0.163984	-0.570214
23325		9.365753	1.856123	-2.207025	0.014980	-0.002985	-0.009746	-0.603027	-0.445557	0.618164	-0.250510	-0.764967	0.163896	-0.570270
23326		9.360259	1.866851	-2.227691	0.003347	-0.004989	-0.009453	-0.605713	-0.442627	0.630371	-0.250574	-0.764931	0.163904	-0.570288
23327		9.337277	1.827345	-2.243071	0.000270	-0.009085	-0.006610	-0.592041	-0.430664	0.613770	-0.250411	-0.765010	0.163832	-0.570275
23328		9.343832	1.798847	-2.270760	0.004609	-0.006824	-0.008263	-0.596680	-0.439697	0.623047	-0.250301	-0.765054	0.163817	-0.570268
23329		9.355662	1.782628	-2.274087	0.013659	-0.004907	-0.009646	-0.599121	-0.441162	0.626709	-0.250131	-0.765149	0.163662	-0.570260
23330		9.363867	1.800674	-2.270214	0.013248	-0.003414	-0.009922	-0.599365	-0.442627	0.624512	-0.249942	-0.765242	0.163477	-0.570270
23331		9.385816	1.826290	-2.241498	0.014736	-0.003802	-0.009873	-0.601074	-0.433105	0.626953	-0.249795	-0.765316	0.163317	-0.570282
23332		9.357696	1.878950	-2.247058	0.011270	-0.002925	-0.013139	-0.599609	-0.440430	0.615479	-0.249524	-0.765404	0.163103	-0.570344
23333		9.335129	1.823077	-2.245262	0.009247	-0.003547	-0.014708	-0.596924	-0.443604	0.624023	-0.249563	-0.765384	0.163037	-0.570372
23334		9.365209	1.818100	-2.272945	0.008815	-0.004702	-0.015341	-0.596191	-0.441650	0.619141	-0.249552	-0.765462	0.162877	-0.570318
23335		9.367280	1.848468	-2.257339	0.010430	-0.002587	-0.014048	-0.601562	-0.443604	0.621338	-0.249558	-0.765490	0.162762	-0.570311
23336		9.345498	1.835377	-2.245495	0.003416	-0.002151	-0.014010	-0.601562	-0.442871	0.620605	-0.249614	-0.765472	0.162688	-0.570331
23337		9.376086	1.813092	-2.256464	0.001396	-0.007788	-0.011748	-0.601807	-0.440674	0.619873	-0.249657	-0.765480	0.162674	-0.570306
23338		9.357636	1.842699	-2.275849	0.003401	-0.004800	-0.014364	-0.602051	-0.449463	0.621826	-0.249679	-0.765473	0.162614	-0.570323
23339		9.349152	1.816552	-2.244128	0.001363	-0.002149	-0.016846	-0.601318	-0.435547	0.623779	-0.249848	-0.765447	0.162536	-0.570305
23340		9.344389	1.826887	-2.295174	0.004330	-0.004656	-0.013831	-0.598633	-0.445068	0.625244	-0.249732	-0.765486	0.162425	-0.570335
23341		9.353322	1.811955	-2.257770	0.011824	-0.002823	-0.014885	-0.605713	-0.438965	0.619629	-0.249689	-0.765551	0.162248	-0.570318
23342		9.361844	1.813926	-2.236948	0.008100	-0.003598	-0.012086	-0.600098	-0.442139	0.621094	-0.249614	-0.765521	0.162180	-0.570410
23343		9.385315	1.875067	-2.281925	0.003643	-0.008370	-0.011669	-0.604980	-0.443604	0.623291	-0.249619	-0.765553	0.162147	-0.570374
23344		9.363216	1.868238	-2.218275	0.004852	-0.001287	-0.016493	-0.604736	-0.436279	0.621582	-0.249639	-0.765533	0.162028	-0.570427
23345		9.344487	1.789596	-2.291512	-0.001398	-0.003415	-0.012244	-0.601562	-0.439453	0.621338	-0.249601	-0.765499	0.162002	-0.570496
23346		9.314546	1.796641	-2.328159	0.003051	-0.008129	-0.015723	-0.608643	-0.445068	0.627930	-0.249595	-0.765534	0.161930	-0.570473
23347		9.359694	1.814249	-2.235901	0.005215	-0.000613	-0.015478	-0.599365	-0.442383	0.621826	-0.249557	-0.765522	0.161782	-0.570547
23348		9.381485	1.836544	-2.258526	0.002164	-0.002157	-0.021732	-0.599609	-0.438965	0.620361	-0.249656	-0.765536	0.161639	-0.570526
23349		9.356153	1.814468	-2.280050	0.009862	-0.002338	-0.018096	-0.593750	-0.443359	0.625977	-0.249622	-0.765559	0.161487	-0.570553
23350		9.354321	1.819685	-2.250127	0.006032	-0.002058	-0.012915	-0.596924	-0.445068	0.618896	-0.249606	-0.765628	0.161360	-0.570503
23351		9.357759	1.809574	-2.252886	0.000322	-0.002360	-0.013333	-0.590088	-0.434570	0.617920	-0.249734	-0.765606	0.161340	-0.570482
23352		9.319144	1.799660	-2.294653	0.003146	-0.006737	-0.012826	-0.596436	-0.435303	0.624512	-0.249720	-0.765669	0.161308	-0.570413
23353		9.377014	1.824889	-2.321101	0.012510	-0.007870	-0.011907	-0.609375	-0.435791	0.627686	-0.249524	-0.765778	0.161175	-0.570389
23354		9.367645	1.886652	-2.209510	0.020484	-0.001107	-0.013630	-0.606934	-0.447510	0.622559	-0.249211	-0.765814	0.160942	-0.570544
23355		9.342039	1.880284	-2.247534	0.003533	0.000048	-0.017294	-0.600098	-0.445312	0.618408	-0.249305	-0.765757	0.160841	-0.570608
23356		9.342395	1.821924	-2.271885	-0.000493	-0.005309	-0.013322	-0.599854	-0.439209	0.621338	-0.249436	-0.765729	0.160847	-0.570587
23357		9.370481	1.793602	-2.295244	0.003759	-0.007896	-0.012034	-0.606445	-0.441406	0.616699	-0.249404	-0.765761	0.160815	-0.570567
23358		9.362023	1.826455	-2.271128	0.011373	-0.001805	-0.014773	-0.602783	-0.437012	0.624268	-0.249383	-0.765705	0.160729	-0.570675
23359		9.364498	1.839984	-2.238878	0.007043	-0.005001	-0.016377	-0.602539	-0.445068	0.625977	-0.249290	-0.765743	0.160601	-0.570700
23360		9.346516	1.852587	-2.241008	0.002966	-0.001160	-0.013891	-0.601318	-0.447754	0.613525	-0.249310	-0.765740	0.160508	-0.570722
23361		9.335410	1.830354	-2.290219	-0.001307	-0.007338	-0.010042	-0.598877	-0.441650	0.627441	-0.249491	-0.765674	0.160602	-0.570706
23362		9.342217	1.824395	-2.312621	0.001473	-0.006080	-0.014636	-0.604980	-0.448975	0.624268	-0.249476	-0.765737	0.160514	-0.570652
23363		9.362583	1.832913	-2.257804	0.013482	-0.001603	-0.016854	-0.600830	-0.447021	0.621582	-0.249464	-0.765746	0.160339	-0.570694
23364		9.347865	1.834529	-2.231150	0.014553	-0.000491	-0.017085	-0.607422	-0.443604	0.631104	-0.249464	-0.765757	0.160168	-0.570728
23365		9.349206	1.876119	-2.284184	0.005355	-0.003420	-0.014926	-0.595459	-0.441406	0.620850	-0.249379	-0.765789	0.160028	-0.570761
23366		9.357497	1.857894	-2.267930	0.002487	-0.003727	-0.017400	-0.590088	-0.445557	0.620117	-0.249454	-0.765813	0.159952	-0.570718
23367		9.349348	1.832622	-2.235606	0.002392	0.000794	-0.020855	-0.604736	-0.443604	0.615967	-0.249636	-0.765828	0.159835	-0.570650
23368		9.353416	1.779342	-2.278242	0.004273	-0.002181	-0.018875	-0.601807	-0.443115	0.617432	-0.249733	-0.765767	0.159762	-0.570710
23369		9.358758	1.808440	-2.333686	0.007679	-0.006155	-0.015579	-0.596680	-0.440186	0.622559	-0.249756	-0.765765	0.159698	-0.570721
23370		9.352511	1.833207	-2.249515	0.008036	0.001551	-0.016790	-0.601074	-0.445557	0.621094	-0.249742	-0.765774	0.159564	-0.570753
23371		9.363803	1.836752	-2.267767	0.004642	0.000222	-0.020778	-0.597656	-0.436768	0.621826	-0.249842	-0.765752	0.159433	-0.570775
23372		9.354362	1.888163	-2.259593	0.007304	-0.003562	-0.017505	-0.604980	-0.436768	0.619873	-0.249792	-0.765791	0.159315	-0.570778
23373		9.362754	1.869765	-2.243389	0.002357	-0.003775	-0.013364	-0.594482	-0.444092	0.613525	-0.249748	-0.765758	0.159283	-0.570850
23374		9.343736	1.863096	-2.219293	-0.004032	-0.003433	-0.014184	-0.603271	-0.441406	0.624512	-0.249950	-0.765707	0.159339	-0.570815
23375		9.330798	1.861440	-2.254006	-0.005146	-0.004225	-0.019747	-0.596924	-0.441895	0.619873	-0.250037	-0.765702	0.159275	-0.570801
23376		9.344362	1.829065	-2.270185	-0.004980	-0.002963	-0.015978	-0.599121	-0.445557	0.621582	-0.250165	-0.765681	0.159274	-0.570773
23377		9.354692	1.806829	-2.315385	0.003230	-0.005025	-0.015715	-0.600830	-0.442627	0.618652	-0.250223	-0.765698	0.159215	-0.570742
23378		9.354344	1.820744	-2.243147	0.016165	-0.003012	-0.017755	-0.602783	-0.439209	0.616211	-0.250158	-0.765721	0.159053	-0.570784
23379		9.360270	1.859779	-2.225104	0.006992	-0.003937	-0.013979	-0.598145	-0.435303	0.625000	-0.250128	-0.765693	0.159006	-0.570848
23380		9.344860	1.871768	-2.267900	0.002486	-0.006570	-0.012818	-0.595459	-0.438721	0.616943	-0.250033	-0.765748	0.158954	-0.570830
23381		9.324936	1.903436	-2.256324	0.006757	-0.003033	-0.017017	-0.599121	-0.443115	0.614258	-0.250050	-0.765758	0.158877	-0.570831
23382		9.354942	1.863429	-2.240501	0.005867	0.000568	-0.018848	-0.603760	-0.442627	0.623047	-0.250151	-0.765704	0.158799	-0.570881
23383		9.355150	1.801017	-2.285767	0.008994	-0.000943	-0.016598	-0.603760	-0.439941	0.614014	-0.250105	-0.765701	0.158666	-0.570942
23384		9.358600	1.855077	-2.274423	0.006924	-0.001769	-0.013248	-0.602783	-0.431641	0.623291	-0.250096	-0.765639	0.158635	-0.571038
23385		9.355065	1.879473	-2.230439	0.006230	-0.003131	-0.015264	-0.597412	-0.441650	0.618652	-0.249944	-0.765660	0.158519	-0.571108
23386		9.332761	1.862463	-2.239612	0.000972	-0.001206	-0.016698	-0.600342	-0.438965	0.615967	-0.250029	-0.765637	0.158475	-0.571113
23387		9.350142	1.833398	-2.274438	0.000048	-0.003085	-0.014309	-0.598877	-0.439453	0.612793	-0.250080	-0.765595	0.158476	-0.571148
23388		9.366555	1.827231	-2.274175	0.007365	-0.003256	-0.012962	-0.606445	-0.445312	0.619629	-0.250086	-0.765562	0.158460	-0.571194
23389		9.361286	1.849407	-2.220898	0.005023	-0.002559	-0.013919	-0.607178	-0.444824	0.615234	-0.250102	-0.765520	0.158415	-0.571255
23390		9.372603	1.830793	-2.244715	0.003687	-0.003877	-0.015073	-0.601318	-0.434570	0.619629	-0.250163	-0.765458	0.158399	-0.571316
23391		9.333847	1.862794	-2.277037	0.000553	-0.005821	-0.011488	-0.600830	-0.440186	0.619873	-0.250097	-0.765458	0.158393	-0.571346
23392		9.330412	1.880527	-2.285466	0.004383	-0.002514	-0.013055	-0.598877	-0.444824	0.617676	-0.250076	-0.765447	0.158350	-0.571383
23393		9.351951	1.850861	-2.218304	0.016773	-0.000871	-0.017879	-0.603027	-0.446045	0.625000	-0.250051	-0.765462	0.158197	-0.571416
23394		9.363144	1.853662	-2.237517	0.007819	-0.003023	-0.015590	-0.602051	-0.450684	0.617188	-0.250032	-0.765483	0.158091	-0.571426
23395		9.346691	1.888912	-2.244549	0.003465	-0.004396	-0.010664	-0.598389	-0.436768	0.617920	-0.250131	-0.765443	0.158131	-0.571425
23396		9.348467	1.897622	-2.233644	0.005172	-0.003323	-0.011761	-0.600342	-0.447754	0.625244	-0.250079	-0.765440	0.158103	-0.571459
23397		9.346242	1.855891	-2.234235	0.003652	-0.000612	-0.015991	-0.594482	-0.437744	0.620117	-0.250135	-0.765443	0.158024	-0.571453
23398		9.335280	1.834041	-2.283065	-0.000658	-0.005567	-0.014665	-0.603027	-0.449219	0.619873	-0.250165	-0.765471	0.158011	-0.571406
23399		9.355740	1.857692	-2.275837	0.005754	-0.003849	-0.012239	-0.595947	-0.445068	0.613037	-0.250209	-0.765452	0.157997	-0.571416
23400		9.362665	1.858071	-2.245482	0.010733	-0.001590	-0.014768	-0.613525	-0.445068	0.624512	-0.250262	-0.765432	0.157952	-0.571431
23401		9.320049	1.823966	-2.241621	0.004612	-0.001078	-0.014194	-0.600586	-0.438232	0.616699	-0.250215	-0.765383	0.157869	-0.571540
23402		9.369909	1.852402	-2.298905	0.003060	-0.007283	-0.008368	-0.604736	-0.443604	0.623535	-0.250166	-0.765380	0.157913	-0.571555
23403		9.352232	1.916769	-2.218822	0.006816	-0.004452	-0.009556	-0.600586	-0.444824	0.626953	-0.250087	-0.765385	0.157883	-0.571590
23404		9.334764	1.864222	-2.234906	-0.003597	-0.003427	-0.011879	-0.606201	-0.439209	0.629639	-0.250134	-0.765388	0.157891	-0.571563
23405		9.329189	1.812078	-2.269314	-0.005895	-0.008040	-0.013515	-0.604004	-0.444824	0.625244	-0.250106	-0.765419	0.157880	-0.571537
23406		9.367122	1.799244	-2.317747	0.008154	-0.001718	-0.015844	-0.596680	-0.442139	0.627686	-0.250068	-0.765432	0.157767	-0.571568
23407		9.374516	1.846998	-2.256346	0.019199	0.001587	-0.016959	-0.602051	-0.444824	0.615234	-0.249924	-0.765502	0.157542	-0.571599
23408		9.379809	1.845504	-2.216322	0.008296	-0.002480	-0.013689	-0.598633	-0.442871	0.620361	-0.249949	-0.765469	0.157515	-0.571640
23409		9.351029	1.902232	-2.200331	0.003053	-0.002915	-0.010939	-0.603027	-0.435059	0.626709	-0.249961	-0.765460	0.157522	-0.571645
23410		9.332837	1.845633	-2.237641	0.004075	-0.003209	-0.014049	-0.599854	-0.450928	0.630127	-0.249850	-0.765487	0.157436	-0.571681
23411		9.348359	1.850216	-2.306331	0.001591	-0.003483	-0.014240	-0.603760	-0.445312	0.622070	-0.249904	-0.765523	0.157383	-0.571623
23412		9.345814	1.857319	-2.245715	0.017674	-0.000858	-0.012439	-0.600830	-0.444092	0.623291	-0.249783	-0.765535	0.157258	-0.571695
23413		9.362725	1.897638	-2.214971	0.009057	-0.002664	-0.013661	-0.595947	-0.440918	0.617676	-0.249744	-0.765553	0.157183	-0.571708
23414		9.344147	1.883509	-2.243006	-0.001639	-0.003263	-0.009932	-0.594971	-0.437500	0.621338	-0.249806	-0.765526	0.157252	-0.571698
23415		9.330854	1.860695	-2.251614	-0.005253	-0.005140	-0.009503	-0.606689	-0.441406	0.628418	-0.249844	-0.765527	0.157331	-0.571659
23416		9.328825	1.818456	-2.252875	0.004930	-0.007284	-0.011825	-0.605713	-0.448486	0.618652	-0.249742	-0.765568	0.157282	-0.571661
23417		9.332323	1.822511	-2.303873	0.008039	-0.002367	-0.010551	-0.602539	-0.438721	0.615723	-0.249743	-0.765529	0.157274	-0.571715
23418		9.347123	1.834671	-2.289481	0.007803	-0.001156	-0.009066	-0.606445	-0.451172	0.625000	-0.249682	-0.765483	0.157282	-0.571802
23419		9.356475	1.861901	-2.242820	0.015126	-0.005358	-0.010935	-0.601807	-0.443604	0.631836	-0.249594	-0.765517	0.157202	-0.571817
23420		9.357029	1.894157	-2.196892	0.014080	-0.001014	-0.014925	-0.604492	-0.449707	0.619385	-0.249462	-0.765580	0.157035	-0.571835
23421		9.340151	1.882190	-2.234166	0.003108	-0.001826	-0.012580	-0.603027	-0.434082	0.618652	-0.249540	-0.765533	0.157043	-0.571862
23422		9.340546	1.860899	-2.270774	-0.003578	-0.008923	-0.007633	-0.605957	-0.447998	0.621826	-0.249506	-0.765521	0.157150	-0.571863
23423		9.352911	1.845452	-2.273789	0.006105	-0.004269	-0.009568	-0.607178	-0.442383	0.619141	-0.249493	-0.765505	0.157159	-0.571889
23424		9.376596	1.831978	-2.263573	0.006790	-0.001181	-0.010475	-0.604004	-0.436035	0.622803	-0.249451	-0.765457	0.157149	-0.571974
23425		9.345005	1.840884	-2.238080	0.008969	-0.003922	-0.007104	-0.598145	-0.446045	0.623047	-0.249293	-0.765464	0.157138	-0.572037
23426		9.341757	1.842467	-2.199748	0.005971	-0.008981	-0.007487	-0.608887	-0.447021	0.618896	-0.249265	-0.765512	0.157182	-0.571972
23427		9.352711	1.858542	-2.267461	-0.000741	-0.006248	-0.009350	-0.601562	-0.444336	0.624756	-0.249315	-0.765464	0.157264	-0.571992
23428		9.338600	1.830880	-2.298039	0.004236	-0.005691	-0.008968	-0.601562	-0.440674	0.622314	-0.249284	-0.765484	0.157284	-0.571974
23429		9.349900	1.838904	-2.265539	0.011907	-0.003413	-0.009545	-0.591309	-0.443604	0.619629	-0.249173	-0.765503	0.157244	-0.572008
23430		9.335895	1.817267	-2.243982	0.015012	-0.004276	-0.008564	-0.601562	-0.431396	0.624268	-0.249103	-0.765555	0.157225	-0.571973
23431		9.366384	1.858501	-2.241783	0.012767	-0.005769	-0.010236	-0.604248	-0.445801	0.624268	-0.248900	-0.765610	0.157157	-0.572007
23432		9.375640	1.879330	-2.247636	0.004447	-0.004255	-0.010112	-0.603271	-0.442627	0.629150	-0.248892	-0.765607	0.157169	-0.572012
23433		9.331990	1.882428	-2.255861	-0.004354	-0.002352	-0.008627	-0.596924	-0.445312	0.624268	-0.248911	-0.765588	0.157225	-0.572013
23434		9.329490	1.835577	-2.277857	-0.001720	-0.006898	-0.009486	-0.598633	-0.440918	0.623047	-0.248972	-0.765609	0.157301	-0.571937
23435		9.355441	1.782130	-2.286257	-0.000188	-0.002416	-0.012405	-0.601562	-0.440674	0.619385	-0.249015	-0.765599	0.157323	-0.571925
23436		9.369673	1.769481	-2.297550	0.009972	0.000149	-0.012795	-0.603027	-0.442871	0.624023	-0.248975	-0.765578	0.157277	-0.571984
23437		9.369937	1.823415	-2.246595	0.018611	-0.002094	-0.014781	-0.604492	-0.439941	0.624023	-0.248850	-0.765618	0.157138	-0.572023
23438		9.369239	1.873132	-2.217349	0.012305	-0.001954	-0.014705	-0.602783	-0.440674	0.621094	-0.248759	-0.765634	0.157040	-0.572068
23439		9.357346	1.873926	-2.230582	0.007390	-0.000001	-0.013866	-0.600586	-0.439209	0.621094	-0.248743	-0.765611	0.156997	-0.572119
23440		9.338176	1.841319	-2.232450	0.005128	-0.006670	-0.017083	-0.605713	-0.437744	0.623779	-0.248754	-0.765643	0.156960	-0.572081
23441		9.354105	1.809741	-2.258837	0.006279	-0.005353	-0.011922	-0.601562	-0.434814	0.618652	-0.248677	-0.765654	0.156941	-0.572104
23442		9.364908	1.833128	-2.273949	0.013101	-0.002748	-0.013411	-0.601807	-0.436279	0.622314	-0.248571	-0.765664	0.156875	-0.572155
23443		9.364615	1.861144	-2.249245	0.017570	-0.001176	-0.012937	-0.604492	-0.447754	0.625732	-0.248414	-0.765689	0.156762	-0.572220
23444		9.354364	1.870078	-2.220385	0.010516	-0.004608	-0.011563	-0.595703	-0.433838	0.619873	-0.248371	-0.765713	0.156725	-0.572217
23445		9.324573	1.860062	-2.209511	0.001308	-0.007636	-0.009377	-0.599854	-0.440918	0.621826	-0.248351	-0.765737	0.156798	-0.572174
23446		9.345545	1.833766	-2.264501	0.002139	-0.009376	-0.011333	-0.606201	-0.442627	0.619385	-0.248363	-0.765770	0.156851	-0.572110
23447		9.341350	1.825019	-2.299655	0.008468	-0.004337	-0.009866	-0.599609	-0.444092	0.621338	-0.248318	-0.765751	0.156866	-0.572151
23448		9.375356	1.816111	-2.246993	0.012409	-0.006930	-0.010842	-0.603516	-0.437500	0.635742	-0.248262	-0.765793	0.156853	-0.572122
23449		9.359618	1.833545	-2.237945	0.005779	-0.004356	-0.011821	-0.595703	-0.444336	0.619629	-0.248145	-0.765852	0.156791	-0.572111
23450		9.338058	1.833811	-2.273958	0.003606	-0.007085	-0.010952	-0.601562	-0.438965	0.619385	-0.248200	-0.765872	0.156854	-0.572044
23451		9.319445	1.819164	-2.302390	0.006836	-0.003231	-0.012063	-0.594238	-0.441406	0.626709	-0.248179	-0.765860	0.156859	-0.572067
23452		9.339803	1.802678	-2.273566	0.008623	-0.003714	-0.015144	-0.601074	-0.446777	0.624023	-0.248170	-0.765916	0.156804	-0.572012
23453		9.372818	1.830549	-2.263732	0.005486	-0.005662	-0.011552	-0.599121	-0.444580	0.621826	-0.248190	-0.765932	0.156825	-0.571976
23454		9.359494	1.847910	-2.294499	0.005754	-0.003745	-0.013086	-0.605469	-0.443848	0.625732	-0.248224	-0.765936	0.156834	-0.571953
23455		9.340754	1.828700	-2.191699	0.004035	-0.001079	-0.013305	-0.605957	-0.435547	0.624756	-0.248235	-0.765913	0.156820	-0.571983
23456		9.356478	1.811417	-2.264903	-0.001915	-0.006050	-0.012496	-0.602051	-0.445557	0.617920	-0.248231	-0.765906	0.156861	-0.571983
23457		9.353623	1.852916	-2.279022	0.001831	-0.008372	-0.015239	-0.599365	-0.443604	0.625000	-0.248323	-0.765910	0.156907	-0.571925
23458		9.346951	1.845697	-2.273286	0.010524	0.000848	-0.015802	-0.596436	-0.426514	0.621338	-0.248315	-0.765914	0.156829	-0.571944
23459		9.340448	1.838358	-2.266979	0.001668	-0.003545	-0.014200	-0.604248	-0.438965	0.617676	-0.248275	-0.765924	0.156831	-0.571948
23460		9.354252	1.806934	-2.252846	-0.003607	-0.008840	-0.008469	-0.597900	-0.438965	0.624268	-0.248316	-0.765897	0.156969	-0.571928
23461		9.346327	1.815424	-2.264619	-0.000815	-0.007245	-0.008549	-0.596924	-0.443359	0.612305	-0.248323	-0.765914	0.157065	-0.571875
23462		9.348231	1.843028	-2.280624	0.007894	-0.005236	-0.012245	-0.598389	-0.440674	0.625000	-0.248368	-0.765903	0.157115	-0.571857
23463		9.365932	1.867390	-2.233886	0.009166	-0.004715	-0.015233	-0.600098	-0.442139	0.614502	-0.248341	-0.765946	0.157069	-0.571824
23464		9.341536	1.842801	-2.255221	-0.000029	-0.004631	-0.013093	-0.599121	-0.436035	0.621826	-0.248438	-0.765908	0.157150	-0.571811
23465		9.322846	1.828767	-2.283463	-0.006258	-0.007781	-0.012068	-0.594971	-0.438232	0.617188	-0.248506	-0.765907	0.157255	-0.571754
23466		9.320211	1.756802	-2.331340	0.000040	-0.004151	-0.013475	-0.597412	-0.439697	0.626465	-0.248582	-0.765894	0.157319	-0.571720
23467		9.356274	1.770344	-2.313349	0.013676	0.001104	-0.016476	-0.602783	-0.429199	0.619873	-0.248518	-0.765922	0.157207	-0.571742
23468		9.371152	1.810015	-2.272987	0.016658	0.001006	-0.017649	-0.598633	-0.428955	0.621826	-0.248368	-0.765927	0.157052	-0.571843
23469		9.355732	1.854118	-2.237030	0.011097	-0.000762	-0.014624	-0.605957	-0.445312	0.623047	-0.248252	-0.765941	0.156971	-0.571896
23470		9.328788	1.870242	-2.239376	0.006016	-0.001220	-0.015878	-0.600586	-0.437012	0.612305	-0.248285	-0.765917	0.156943	-0.571922
23471		9.340958	1.811857	-2.240394	-0.001581	0.000070	-0.015727	-0.610352	-0.430664	0.618652	-0.248397	-0.765840	0.156996	-0.571963
23472		9.347200	1.802120	-2.282833	0.002479	-0.002643	-0.015818	-0.602295	-0.441650	0.622070	-0.248354	-0.765797	0.156967	-0.572046
23473		9.352273	1.842301	-2.264500	0.019653	0.002616	-0.021736	-0.604492	-0.440186	0.620605	-0.248294	-0.765811	0.156774	-0.572106
23474		9.354167	1.878624	-2.226944	0.012127	0.002679	-0.019049	-0.592529	-0.430420	0.621094	-0.248276	-0.765784	0.156660	-0.572181
23475		9.352213	1.839980	-2.196048	0.000722	-0.004213	-0.014324	-0.598633	-0.443359	0.623535	-0.248286	-0.765806	0.156680	-0.572143
23476		9.346228	1.804129	-2.246693	-0.003207	-0.005380	-0.012022	-0.598389	-0.437500	0.624023	-0.248378	-0.765801	0.156774	-0.572083
23477		9.340500	1.812850	-2.298449	0.005476	-0.007577	-0.014006	-0.601074	-0.441162	0.618164	-0.248352	-0.765850	0.156774	-0.572029
23478		9.347088	1.861431	-2.238484	0.012954	-0.001848	-0.016429	-0.597412	-0.434082	0.624023	-0.248327	-0.765852	0.156712	-0.572054
23479		9.370852	1.849527	-2.228429	0.007288	-0.003492	-0.014287	-0.601074	-0.441895	0.622803	-0.248272	-0.765882	0.156676	-0.572047
23480		9.358127	1.871432	-2.237916	0.008603	-0.005280	-0.013087	-0.601807	-0.445312	0.624023	-0.248244	-0.765906	0.156673	-0.572029
23481		9.333061	1.841923	-2.280524	-0.002478	-0.004955	-0.013260	-0.596680	-0.442627	0.617676	-0.248341	-0.765893	0.156751	-0.571982
23482		9.331250	1.821618	-2.276641	-0.001687	-0.005740	-0.011969	-0.589355	-0.436768	0.617432	-0.248444	-0.765878	0.156864	-0.571927
23483		9.344701	1.830731	-2.284499	0.009919	-0.005366	-0.014806	-0.594482	-0.438721	0.626465	-0.248438	-0.765925	0.156860	-0.571868
23484		9.346359	1.839916	-2.273696	0.010807	-0.000014	-0.012758	-0.598389	-0.444580	0.624512	-0.248378	-0.765950	0.156816	-0.571871
23485		9.345724	1.842549	-2.274173	0.006480	-0.000662	-0.013986	-0.600098	-0.433838	0.617676	-0.248407	-0.765947	0.156814	-0.571864
23486		9.345822	1.850156	-2.253474	0.005105	-0.002490	-0.014737	-0.602783	-0.441162	0.625244	-0.248394	-0.765932	0.156808	-0.571892
23487		9.348149	1.838283	-2.246906	0.004258	-0.003882	-0.012724	-0.605225	-0.439453	0.624756	-0.248385	-0.765936	0.156824	-0.571886
23488		9.340912	1.844697	-2.288758	0.005079	-0.003578	-0.013084	-0.604492	-0.442627	0.619141	-0.248354	-0.765934	0.156821	-0.571903
23489		9.335453	1.841587	-2.261053	0.000419	-0.000354	-0.012519	-0.600830	-0.445801	0.622314	-0.248418	-0.765872	0.156881	-0.571942
23490		9.345093	1.842373	-2.270299	0.005998	-0.001708	-0.015479	-0.605713	-0.436279	0.617188	-0.248468	-0.765863	0.156882	-0.571932
23491		9.349136	1.858786	-2.247217	0.009149	-0.001448	-0.016153	-0.602051	-0.448486	0.623291	-0.248429	-0.765839	0.156830	-0.571995
23492		9.355418	1.810963	-2.237201	0.002953	-0.002100	-0.013919	-0.598877	-0.438232	0.620850	-0.248508	-0.765819	0.156874	-0.571976
23493		9.366515	1.813521	-2.256627	0.002113	-0.006626	-0.011841	-0.597656	-0.437012	0.622070	-0.248517	-0.765832	0.156937	-0.571937
23494		9.397521	1.858703	-2.264340	0.006676	-0.006583	-0.013352	-0.604004	-0.450684	0.621094	-0.248484	-0.765869	0.156946	-0.571898
23495		9.381541	1.831588	-2.254184	0.005747	-0.002185	-0.011086	-0.601318	-0.445068	0.623779	-0.248532	-0.765838	0.157011	-0.571901
23496		9.332805	1.839519	-2.312810	-0.003488	-0.007805	-0.010080	-0.597168	-0.436035	0.625000	-0.248609	-0.765837	0.157145	-0.571832
23497		9.318532	1.866299	-2.260948	-0.001522	-0.006497	-0.009805	-0.602295	-0.442871	0.621094	-0.248613	-0.765854	0.157237	-0.571783
23498		9.358294	1.818149	-2.265965	0.001682	-0.002366	-0.016701	-0.605225	-0.442383	0.616943	-0.248688	-0.765833	0.157253	-0.571774
23499		9.358996	1.816262	-2.327793	0.009413	0.001909	-0.014836	-0.601807	-0.450928	0.625244	-0.248685	-0.765781	0.157225	-0.571853
23500		9.384138	1.860518	-2.244475	0.014646	-0.001477	-0.011370	-0.601074	-0.445312	0.619385	-0.248642	-0.765794	0.157215	-0.571856
23501		9.354970	1.850084	-2.231977	0.006919	0.003039	-0.012167	-0.598389	-0.442383	0.615479	-0.248673	-0.765738	0.157239	-0.571911
23502		9.331982	1.847936	-2.257291	0.002650	-0.004499	-0.011991	-0.604980	-0.448242	0.621582	-0.248731	-0.765719	0.157327	-0.571888
23503		9.320857	1.871346	-2.275722	0.001197	-0.002233	-0.009570	-0.604248	-0.437744	0.620850	-0.248786	-0.765674	0.157430	-0.571896
23504		9.361163	1.874237	-2.228669	0.006764	0.000997	-0.009745	-0.601807	-0.444824	0.622070	-0.248727	-0.765632	0.157444	-0.571974
23505		9.378241	1.841665	-2.253464	0.005494	-0.000965	-0.009611	-0.604980	-0.439209	0.620850	-0.248730	-0.765604	0.157506	-0.571992
23506		9.364912	1.857927	-2.283312	0.000111	-0.001320	-0.007737	-0.597900	-0.445068	0.625488	-0.248725	-0.765552	0.157600	-0.572039
23507		9.371929	1.815947	-2.220818	0.000966	-0.001621	-0.006831	-0.597412	-0.438232	0.619629	-0.248755	-0.765531	0.157724	-0.572020
23508		9.339496	1.767609	-2.267750	0.002331	-0.005450	-0.007215	-0.595703	-0.438721	0.623779	-0.248740	-0.765529	0.157839	-0.571997
23509		9.370583	1.811898	-2.275324	0.011525	-0.004871	-0.010623	-0.598877	-0.437256	0.616211	-0.248660	-0.765576	0.157849	-0.571966
23510		9.364300	1.829596	-2.244059	0.006039	-0.003408	-0.012549	-0.604980	-0.441406	0.625244	-0.248653	-0.765568	0.157883	-0.571971
23511		9.354778	1.836021	-2.245909	0.011756	-0.004043	-0.010508	-0.602539	-0.444336	0.615479	-0.248554	-0.765589	0.157875	-0.571987
23512		9.355730	1.820911	-2.230714	0.010459	-0.007090	-0.008720	-0.592285	-0.444824	0.615479	-0.248510	-0.765597	0.157949	-0.571976
23513		9.348476	1.825915	-2.273260	0.006310	-0.004880	-0.008249	-0.605225	-0.428467	0.626221	-0.248547	-0.765598	0.158080	-0.571922
23514		9.360540	1.831840	-2.271833	0.008419	-0.005747	-0.008676	-0.602295	-0.442627	0.626465	-0.248374	-0.765629	0.158065	-0.571960
23515		9.350932	1.863694	-2.248874	0.011656	-0.008135	-0.009667	-0.597900	-0.437500	0.612793	-0.248280	-0.765686	0.158091	-0.571917
23516		9.353424	1.876368	-2.217815	0.008619	-0.006003	-0.006910	-0.605469	-0.438965	0.614502	-0.248225	-0.765683	0.158187	-0.571919
23517		9.348117	1.819886	-2.242249	-0.002647	-0.006082	-0.007571	-0.591797	-0.443604	0.619141	-0.248262	-0.765633	0.158340	-0.571927
23518		9.356112	1.809974	-2.294907	0.002792	-0.003800	-0.006983	-0.597656	-0.435303	0.617676	-0.248311	-0.765626	0.158496	-0.571872
23519		9.366090	1.790612	-2.278375	0.007424	-0.003269	-0.008882	-0.602295	-0.442627	0.619141	-0.248257	-0.765621	0.158551	-0.571886
23520		9.379714	1.798675	-2.286222	0.010726	-0.005179	-0.010257	-0.593262	-0.437988	0.619629	-0.248209	-0.765632	0.158593	-0.571882
23521		9.354989	1.819807	-2.277664	0.012431	-0.004088	-0.011365	-0.598145	-0.436279	0.632812	-0.248153	-0.765667	0.158612	-0.571853
23522		9.348772	1.811173	-2.272086	0.011838	-0.003567	-0.010890	-0.596680	-0.446533	0.618652	-0.248034	-0.765727	0.158587	-0.571832
23523		9.352392	1.776391	-2.270082	0.014197	-0.002762	-0.007091	-0.603027	-0.439453	0.624512	-0.247985	-0.765732	0.158662	-0.571826
23524		9.365873	1.854811	-2.253049	0.010812	-0.002174	-0.009444	-0.603516	-0.436523	0.624268	-0.247901	-0.765735	0.158678	-0.571854
23525		9.366116	1.861418	-2.232805	0.004680	-0.003812	-0.010437	-0.604248	-0.432373	0.621094	-0.247860	-0.765733	0.158720	-0.571862
23526		9.354338	1.834699	-2.271772	-0.001111	-0.003905	-0.006323	-0.601318	-0.448975	0.615967	-0.247823	-0.765698	0.158830	-0.571894
23527		9.323640	1.795587	-2.276264	0.000170	-0.007606	-0.007581	-0.600586	-0.442627	0.619141	-0.247914	-0.765675	0.159025	-0.571832
23528		9.339146	1.768879	-2.240831	0.000660	-0.006315	-0.011857	-0.601807	-0.447998	0.622070	-0.247983	-0.765668	0.159137	-0.571780
23529		9.370952	1.740834	-2.303437	-0.003151	-0.002326	-0.012046	-0.604980	-0.442627	0.624023	-0.248120	-0.765624	0.159277	-0.571740
23530		9.372307	1.795006	-2.293358	0.013954	-0.002741	-0.014237	-0.602539	-0.445068	0.626709	-0.248055	-0.765644	0.159238	-0.571753
23531		9.376679	1.791841	-2.244485	0.014351	-0.003247	-0.010708	-0.593506	-0.435547	0.618164	-0.247979	-0.765672	0.159245	-0.571746
23532		9.345643	1.797666	-2.249909	0.006205	-0.004154	-0.010388	-0.600586	-0.446289	0.617676	-0.247967	-0.765683	0.159318	-0.571717
23533		9.323838	1.823138	-2.260198	0.004362	-0.007048	-0.012618	-0.595459	-0.437012	0.617432	-0.248032	-0.765687	0.159420	-0.571654
23534		9.318001	1.838831	-2.259954	0.006253	-0.004524	-0.014885	-0.606934	-0.437256	0.627441	-0.248055	-0.765702	0.159453	-0.571615
23535		9.370640	1.813858	-2.288575	0.014030	-0.002263	-0.014620	-0.596680	-0.439697	0.621338	-0.247944	-0.765728	0.159374	-0.571651
23536		9.366182	1.815380	-2.240098	0.019751	-0.001194	-0.015503	-0.598389	-0.443604	0.619141	-0.247854	-0.765767	0.159297	-0.571659
23537		9.344621	1.822705	-2.223747	0.001842	-0.006770	-0.014059	-0.599854	-0.442627	0.624756	-0.247941	-0.765775	0.159396	-0.571583
23538		9.350726	1.785818	-2.293210	0.001535	-0.009157	-0.012129	-0.601562	-0.443848	0.617676	-0.247987	-0.765809	0.159505	-0.571488
23539		9.345611	1.806286	-2.272296	0.013435	-0.006805	-0.016523	-0.594238	-0.442383	0.632812	-0.247972	-0.765846	0.159490	-0.571448
23540		9.345665	1.788235	-2.277721	0.006325	0.000161	-0.016997	-0.598633	-0.437988	0.620605	-0.248025	-0.765871	0.159495	-0.571390
23541		9.366435	1.791821	-2.274853	0.000277	-0.004380	-0.012526	-0.599121	-0.442383	0.619141	-0.248076	-0.765861	0.159583	-0.571357
23542		9.352800	1.816240	-2.253381	0.002873	-0.004184	-0.011465	-0.604492	-0.434326	0.617920	-0.248125	-0.765847	0.159682	-0.571327
23543		9.353487	1.821056	-2.263909	-0.001556	-0.004747	-0.013562	-0.607178	-0.436768	0.622559	-0.248160	-0.765819	0.159739	-0.571332
23544		9.331174	1.797938	-2.293868	-0.001590	-0.004145	-0.014829	-0.602539	-0.438721	0.612061	-0.248202	-0.765796	0.159780	-0.571334
23545		9.343138	1.805628	-2.291512	0.006785	0.000141	-0.013854	-0.597168	-0.436768	0.614502	-0.248217	-0.765745	0.159797	-0.571391
23546		9.358510	1.824154	-2.256017	0.008977	-0.001923	-0.011745	-0.602539	-0.444580	0.617676	-0.248193	-0.765731	0.159830	-0.571411
23547		9.374815	1.820996	-2.225411	0.001659	-0.006755	-0.010051	-0.599854	-0.442871	0.618408	-0.248243	-0.765718	0.159963	-0.571370
23548		9.361272	1.818786	-2.229928	-0.002258	-0.006866	-0.009393	-0.606445	-0.434082	0.622559	-0.248323	-0.765700	0.160131	-0.571312
23549		9.336692	1.787996	-2.272056	0.001147	-0.004678	-0.011617	-0.602539	-0.446777	0.625732	-0.248298	-0.765688	0.160172	-0.571328
23550		9.344862	1.802133	-2.330067	0.007405	-0.004594	-0.012592	-0.598145	-0.438232	0.625732	-0.248312	-0.765702	0.160232	-0.571286
23551		9.362063	1.803784	-2.278258	0.014359	-0.002622	-0.011972	-0.604492	-0.438721	0.614990	-0.248217	-0.765738	0.160215	-0.571284
23552		9.345121	1.800370	-2.232512	0.008385	-0.001401	-0.011272	-0.598145	-0.437988	0.620850	-0.248183	-0.765703	0.160240	-0.571338
23553		9.352413	1.793703	-2.254143	0.003810	-0.004004	-0.010940	-0.605957	-0.439941	0.621826	-0.248190	-0.765701	0.160320	-0.571315
23554		9.333810	1.796380	-2.308184	0.004505	-0.002116	-0.009345	-0.601807	-0.441895	0.624023	-0.248167	-0.765670	0.160387	-0.571348
23555		9.359618	1.811990	-2.281790	0.009502	-0.001464	-0.008990	-0.600342	-0.437500	0.621582	-0.248118	-0.765662	0.160441	-0.571365
23556		9.362032	1.801618	-2.244200	0.003979	-0.002798	-0.006337	-0.596436	-0.435791	0.619873	-0.248082	-0.765641	0.160550	-0.571378
23557		9.356574	1.815920	-2.243196	0.000467	-0.003186	-0.007913	-0.600830	-0.439453	0.624023	-0.248097	-0.765619	0.160679	-0.571365
23558		9.338845	1.781923	-2.244326	-0.004430	-0.007353	-0.012678	-0.601807	-0.440430	0.622559	-0.248185	-0.765621	0.160807	-0.571287
23559		9.350289	1.782208	-2.294660	-0.003304	-0.004659	-0.014971	-0.593262	-0.434570	0.615479	-0.248289	-0.765606	0.160901	-0.571236
23560		9.357317	1.776869	-2.316348	0.012115	-0.001889	-0.017798	-0.598633	-0.439697	0.630127	-0.248274	-0.765627	0.160856	-0.571227
23561		9.383997	1.772616	-2.293993	0.013247	0.001661	-0.015985	-0.598145	-0.431641	0.623535	-0.248228	-0.765647	0.160796	-0.571237
23562		9.378438	1.821943	-2.215348	0.015326	-0.001350	-0.013103	-0.604004	-0.436279	0.621338	-0.248100	-0.765678	0.160730	-0.571270
23563		9.347589	1.851450	-2.225888	0.006421	-0.004661	-0.013981	-0.607178	-0.441162	0.625244	-0.248073	-0.765686	0.160739	-0.571268
23564		9.340978	1.836173	-2.272303	0.002729	-0.006485	-0.014397	-0.601807	-0.441895	0.625244	-0.248094	-0.765697	0.160784	-0.571232
23565		9.341823	1.814741	-2.308486	0.001394	-0.003863	-0.011496	-0.601807	-0.436279	0.626221	-0.248134	-0.765689	0.160878	-0.571200
23566		9.358260	1.811868	-2.277590	0.020295	-0.000086	-0.014017	-0.605713	-0.443115	0.625977	-0.247980	-0.765724	0.160772	-0.571249
23567		9.367122	1.841462	-2.230847	0.015883	0.002943	-0.016579	-0.600830	-0.447021	0.616699	-0.247926	-0.765715	0.160687	-0.571308
23568		9.356048	1.797100	-2.242543	0.001812	-0.004144	-0.013726	-0.605469	-0.439697	0.619141	-0.248032	-0.765691	0.160800	-0.571263
23569		9.342793	1.768788	-2.272317	-0.001637	-0.008490	-0.008189	-0.605957	-0.443359	0.614258	-0.248056	-0.765678	0.160950	-0.571227
23570		9.333362	1.748602	-2.300230	0.007913	-0.007149	-0.010622	-0.607178	-0.434570	0.623047	-0.248040	-0.765675	0.161028	-0.571216
23571		9.379274	1.786836	-2.266925	0.009142	-0.000967	-0.012509	-0.602539	-0.447021	0.621826	-0.247961	-0.765662	0.161001	-0.571276
23572		9.370509	1.798552	-2.247337	0.009294	-0.005087	-0.015644	-0.598633	-0.437744	0.624512	-0.247991	-0.765681	0.161035	-0.571227
23573		9.350450	1.807628	-2.240311	0.002170	-0.004039	-0.011466	-0.600098	-0.437012	0.618896	-0.248011	-0.765683	0.161118	-0.571193
23574		9.348427	1.782129	-2.257686	0.002732	-0.007572	-0.012731	-0.599609	-0.437744	0.616455	-0.248029	-0.765698	0.161195	-0.571143
23575		9.345888	1.798675	-2.307251	0.002974	-0.005667	-0.014277	-0.595215	-0.443848	0.621094	-0.248070	-0.765698	0.161259	-0.571107
23576		9.359248	1.792811	-2.257749	0.006727	-0.003360	-0.014251	-0.601807	-0.434570	0.625000	-0.248121	-0.765708	0.161327	-0.571052
23577		9.344415	1.812407	-2.258071	-0.002125	-0.008964	-0.010931	-0.602539	-0.446045	0.617188	-0.248136	-0.765728	0.161433	-0.570988
23578		9.367938	1.819550	-2.275265	0.001650	-0.005581	-0.012559	-0.604492	-0.438965	0.619873	-0.248217	-0.765710	0.161554	-0.570944
23579		9.353722	1.821496	-2.248587	0.005999	-0.002983	-0.020028	-0.605713	-0.435547	0.622314	-0.248258	-0.765710	0.161517	-0.570936
23580		9.362904	1.823371	-2.259005	0.005313	-0.007627	-0.017040	-0.596924	-0.435303	0.622070	-0.248245	-0.765742	0.161502	-0.570904
23581		9.355707	1.835062	-2.280413	0.004519	-0.006865	-0.018328	-0.601807	-0.440430	0.624023	-0.248277	-0.765784	0.161504	-0.570833
23582		9.356793	1.822931	-2.264218	-0.000631	-0.000671	-0.020120	-0.603760	-0.438232	0.625000	-0.248395	-0.765760	0.161514	-0.570810
23583		9.371192	1.812825	-2.275263	-0.002696	-0.002959	-0.019603	-0.603027	-0.448486	0.618896	-0.248501	-0.765747	0.161531	-0.570777
23584		9.365205	1.756800	-2.288828	0.001713	-0.003435	-0.015862	-0.604004	-0.437988	0.625977	-0.248613	-0.765722	0.161617	-0.570737
23585		9.350437	1.777107	-2.288091	0.005794	0.000663	-0.016504	-0.598633	-0.440186	0.617188	-0.248617	-0.765705	0.161586	-0.570767
23586		9.351698	1.837297	-2.256691	0.004144	-0.001902	-0.018220	-0.606934	-0.443359	0.630615	-0.248690	-0.765693	0.161600	-0.570748
23587		9.387972	1.850422	-2.269578	0.001837	0.001126	-0.017108	-0.601318	-0.438965	0.624512	-0.248751	-0.765664	0.161602	-0.570760
23588		9.366852	1.785458	-2.266051	-0.006644	0.000303	-0.013659	-0.606445	-0.446533	0.622803	-0.248869	-0.765606	0.161703	-0.570757
23589		9.324754	1.763456	-2.308261	-0.003966	-0.007091	-0.016139	-0.602295	-0.443848	0.624512	-0.248995	-0.765597	0.161809	-0.570684
23590		9.366032	1.787457	-2.329020	0.005761	-0.000676	-0.020213	-0.611816	-0.445312	0.618408	-0.249061	-0.765594	0.161781	-0.570667
23591		9.367026	1.801286	-2.286631	0.014873	0.003513	-0.019241	-0.608643	-0.441406	0.621094	-0.249033	-0.765555	0.161674	-0.570762
23592		9.368043	1.814413	-2.244676	0.004157	-0.004648	-0.013640	-0.599854	-0.431152	0.626709	-0.249033	-0.765545	0.161708	-0.570766
23593		9.356179	1.861055	-2.268652	-0.005368	-0.003013	-0.010410	-0.601074	-0.438965	0.618164	-0.249060	-0.765523	0.161801	-0.570758
23594		9.347369	1.849990	-2.242916	0.004593	-0.000239	-0.018000	-0.603760	-0.443359	0.612549	-0.249109	-0.765500	0.161790	-0.570770
23595		9.336150	1.832833	-2.228763	0.009521	0.001642	-0.020186	-0.604492	-0.443848	0.616455	-0.249158	-0.765462	0.161743	-0.570812
23596		9.365433	1.825642	-2.276988	0.008682	0.000254	-0.018166	-0.597900	-0.445068	0.622314	-0.249191	-0.765436	0.161718	-0.570840
23597		9.358993	1.844746	-2.244828	0.007540	0.000097	-0.014690	-0.606201	-0.440918	0.618896	-0.249225	-0.765426	0.161749	-0.570831
23598		9.345621	1.843327	-2.247963	0.007259	0.000457	-0.017329	-0.600830	-0.433350	0.622803	-0.249239	-0.765397	0.161717	-0.570873
23599		9.351384	1.813068	-2.254091	0.003637	-0.000916	-0.018123	-0.602051	-0.436279	0.618652	-0.249254	-0.765392	0.161676	-0.570884
23600		9.337840	1.811992	-2.257705	0.011361	-0.002655	-0.017018	-0.598633	-0.441162	0.618408	-0.249205	-0.765408	0.161615	-0.570901
23601		9.336097	1.833514	-2.285323	0.005488	-0.002198	-0.014170	-0.600830	-0.438232	0.622559	-0.249232	-0.765399	0.161657	-0.570890
23602		9.365263	1.813338	-2.245843	0.006333	-0.000812	-0.016188	-0.608154	-0.437744	0.613525	-0.249236	-0.765394	0.161641	-0.570899
23603		9.360779	1.807706	-2.248799	0.004766	-0.002633	-0.012925	-0.594971	-0.445068	0.615967	-0.249224	-0.765357	0.161669	-0.570946
23604		9.328035	1.835098	-2.249759	0.006600	-0.004187	-0.014335	-0.604004	-0.438721	0.624268	-0.249275	-0.765364	0.161743	-0.570893
23605		9.350120	1.841266	-2.256719	0.001190	-0.001868	-0.017025	-0.604004	-0.438721	0.622314	-0.249323	-0.765351	0.161749	-0.570888
23606		9.346104	1.833356	-2.290048	0.004018	0.000266	-0.017519	-0.602295	-0.442871	0.624023	-0.249355	-0.765328	0.161727	-0.570911
23607		9.346557	1.850075	-2.216911	0.007493	0.001287	-0.017217	-0.594727	-0.443604	0.616699	-0.249378	-0.765313	0.161701	-0.570929
23608		9.358472	1.858398	-2.214143	-0.001362	-0.000753	-0.014368	-0.604004	-0.440674	0.617676	-0.249500	-0.765274	0.161810	-0.570896
23609		9.369504	1.838357	-2.227700	-0.004719	-0.005507	-0.013309	-0.593506	-0.436768	0.614746	-0.249593	-0.765246	0.161926	-0.570861
23610		9.347603	1.837531	-2.262979	-0.004588	-0.006221	-0.011163	-0.601807	-0.437744	0.618164	-0.249678	-0.765233	0.162074	-0.570800
23611		9.342957	1.831844	-2.266688	0.002118	-0.006355	-0.014373	-0.602051	-0.445801	0.617676	-0.249697	-0.765241	0.162120	-0.570767
23612		9.356982	1.846862	-2.253031	0.000018	-0.001431	-0.014813	-0.603027	-0.437988	0.623047	-0.249795	-0.765201	0.162205	-0.570753
23613		9.353325	1.846738	-2.234548	0.003557	-0.001875	-0.017339	-0.602539	-0.442871	0.622559	-0.249818	-0.765197	0.162186	-0.570753
23614		9.354471	1.826152	-2.270009	0.005757	-0.002236	-0.018150	-0.603516	-0.436279	0.625977	-0.249854	-0.765201	0.162172	-0.570736
23615		9.328304	1.820089	-2.276597	0.001842	-0.004055	-0.014568	-0.604248	-0.440674	0.622559	-0.249852	-0.765209	0.162181	-0.570724
23616		9.374235	1.834047	-2.268384	0.001346	-0.002587	-0.014871	-0.598877	-0.436035	0.620605	-0.249889	-0.765193	0.162215	-0.570720
23617		9.384069	1.843708	-2.225906	0.007766	-0.000413	-0.018280	-0.598389	-0.443604	0.625244	-0.249885	-0.765197	0.162156	-0.570733
23618		9.348001	1.860167	-2.259144	0.006300	0.000381	-0.018710	-0.599854	-0.445312	0.619873	-0.249932	-0.765199	0.162129	-0.570718
23619		9.317829	1.825507	-2.231451	0.001634	-0.003228	-0.017588	-0.600586	-0.444824	0.618896	-0.250026	-0.765193	0.162174	-0.570672
23620		9.347399	1.771916	-2.269442	-0.001590	-0.004020	-0.016516	-0.608154	-0.441406	0.614990	-0.250137	-0.765177	0.162253	-0.570622
23621		9.365892	1.813633	-2.319977	0.012613	0.001609	-0.021343	-0.601807	-0.440430	0.614014	-0.250128	-0.765156	0.162142	-0.570687
23622		9.365190	1.849112	-2.273517	0.012304	0.002840	-0.019888	-0.601318	-0.440430	0.619873	-0.250126	-0.765131	0.162054	-0.570745
23623		9.361163	1.883540	-2.177536	0.008795	-0.000334	-0.016879	-0.595703	-0.445557	0.620117	-0.250119	-0.765127	0.162018	-0.570764
23624		9.350705	1.863115	-2.194251	0.004346	-0.000381	-0.020224	-0.602051	-0.445068	0.620117	-0.250220	-0.765123	0.162017	-0.570726
23625		9.322784	1.815899	-2.289530	-0.003029	-0.004903	-0.014022	-0.597900	-0.448486	0.619873	-0.250318	-0.765104	0.162126	-0.570676
23626		9.359581	1.834221	-2.282235	0.005275	-0.004860	-0.017573	-0.603027	-0.442139	0.617676	-0.250391	-0.765124	0.162167	-0.570606
23627		9.377304	1.866640	-2.214882	0.018934	-0.002904	-0.020183	-0.602539	-0.443848	0.618896	-0.250312	-0.765168	0.162042	-0.570618
23628		9.357508	1.873216	-2.238308	0.005101	-0.001612	-0.018545	-0.594971	-0.440674	0.632812	-0.250365	-0.765157	0.162035	-0.570610
23629		9.334466	1.847548	-2.258240	0.002710	-0.003753	-0.014918	-0.604492	-0.448730	0.617676	-0.250384	-0.765194	0.162051	-0.570548
23630		9.358956	1.868619	-2.202343	0.004872	-0.009262	-0.013204	-0.605225	-0.440918	0.620361	-0.250408	-0.765218	0.162142	-0.570480
23631		9.343500	1.857078	-2.249596	0.002589	-0.006062	-0.017843	-0.596680	-0.437012	0.623779	-0.250445	-0.765230	0.162149	-0.570445
23632		9.355563	1.862404	-2.278931	0.000140	-0.005661	-0.013046	-0.597900	-0.447510	0.619873	-0.250464	-0.765247	0.162205	-0.570398
23633		9.358600	1.882067	-2.226310	-0.001635	-0.008318	-0.009888	-0.601807	-0.448242	0.621826	-0.250532	-0.765254	0.162370	-0.570312
23634		9.325837	1.885597	-2.222118	-0.003442	-0.004636	-0.011786	-0.603516	-0.445312	0.612793	-0.250628	-0.765230	0.162510	-0.570262
23635		9.338114	1.859105	-2.297252	-0.008997	-0.004374	-0.012044	-0.603271	-0.437744	0.610840	-0.250777	-0.765166	0.162689	-0.570232
23636		9.343783	1.831586	-2.273202	-0.004850	-0.006389	-0.013386	-0.597412	-0.440186	0.630371	-0.250855	-0.765133	0.162798	-0.570210
23637		9.370694	1.828274	-2.251330	0.010534	-0.000870	-0.015074	-0.592041	-0.443604	0.620117	-0.250796	-0.765165	0.162739	-0.570210
23638		9.349355	1.835199	-2.233693	0.000776	0.000927	-0.013602	-0.604004	-0.441650	0.622314	-0.250875	-0.765135	0.162809	-0.570196
23639		9.360850	1.835163	-2.283291	-0.006133	-0.005840	-0.012058	-0.599854	-0.443604	0.618896	-0.250952	-0.765114	0.162928	-0.570156
23640		9.330317	1.845922	-2.267068	-0.000462	-0.005147	-0.012574	-0.599365	-0.447998	0.617432	-0.251006	-0.765105	0.163025	-0.570117
23641		9.351827	1.855132	-2.243745	0.007378	-0.004211	-0.015168	-0.600098	-0.439453	0.626709	-0.251031	-0.765115	0.163062	-0.570082
23642		9.332192	1.860675	-2.267040	0.007462	-0.001310	-0.013508	-0.600342	-0.448730	0.616943	-0.250986	-0.765125	0.163041	-0.570094
23643		9.351178	1.865984	-2.223997	-0.002907	-0.002024	-0.012347	-0.598633	-0.448730	0.622314	-0.251096	-0.765078	0.163174	-0.570071
23644		9.359000	1.837004	-2.239566	-0.002231	-0.002063	-0.013203	-0.594971	-0.443604	0.624023	-0.251199	-0.765050	0.163284	-0.570032
23645		9.358743	1.836813	-2.271025	0.000608	-0.004588	-0.011566	-0.603760	-0.438232	0.623535	-0.251235	-0.765059	0.163373	-0.569978
23646		9.346284	1.891045	-2.243301	0.005771	-0.002424	-0.012389	-0.602783	-0.442383	0.618408	-0.251186	-0.765057	0.163373	-0.570002
23647		9.377402	1.873024	-2.213319	0.003498	-0.000891	-0.014106	-0.604736	-0.438721	0.621582	-0.251208	-0.765029	0.163401	-0.570022
23648		9.343486	1.843379	-2.245315	0.002311	-0.003473	-0.012682	-0.608398	-0.440918	0.622803	-0.251196	-0.765018	0.163432	-0.570033
23649		9.326145	1.855788	-2.256512	-0.001312	-0.001864	-0.012687	-0.601807	-0.446777	0.626709	-0.251225	-0.764980	0.163485	-0.570056
23650		9.340250	1.819633	-2.252441	-0.004789	-0.001255	-0.015898	-0.608398	-0.442139	0.622314	-0.251345	-0.764950	0.163555	-0.570023
23651		9.347512	1.814443	-2.273779	0.012272	-0.002755	-0.016968	-0.601807	-0.444092	0.614502	-0.251278	-0.764969	0.163481	-0.570050
23652		9.366399	1.840370	-2.267189	0.015599	0.002022	-0.018036	-0.594482	-0.435059	0.616699	-0.251235	-0.764959	0.163395	-0.570106
23653		9.374541	1.871283	-2.220543	0.005098	-0.000727	-0.014446	-0.602783	-0.442871	0.615967	-0.251228	-0.764951	0.163389	-0.570122
23654		9.348206	1.887535	-2.232097	0.002637	-0.001691	-0.013349	-0.599854	-0.447754	0.625000	-0.251258	-0.764919	0.163443	-0.570135
23655		9.341750	1.854703	-2.210255	0.006890	0.000275	-0.014685	-0.597168	-0.441895	0.620605	-0.251272	-0.764913	0.163445	-0.570137
23656		9.330743	1.848488	-2.284592	0.004268	-0.003477	-0.016122	-0.596436	-0.442627	0.620850	-0.251299	-0.764925	0.163454	-0.570106
23657		9.361127	1.854684	-2.260697	0.015911	-0.002701	-0.019873	-0.597168	-0.439941	0.619873	-0.251247	-0.764978	0.163343	-0.570090
23658		9.360870	1.894698	-2.194060	0.019451	0.001257	-0.017922	-0.602295	-0.447998	0.625732	-0.251143	-0.765008	0.163205	-0.570136
23659		9.361129	1.871508	-2.219793	0.006467	-0.000810	-0.016153	-0.599121	-0.447754	0.620361	-0.251165	-0.765007	0.163197	-0.570130
23660		9.328101	1.847039	-2.230648	-0.002087	-0.005224	-0.013090	-0.597900	-0.447021	0.620850	-0.251253	-0.764998	0.163309	-0.570070
23661		9.344842	1.834193	-2.282857	0.005010	-0.005768	-0.012790	-0.601074	-0.442627	0.610840	-0.251267	-0.765019	0.163371	-0.570018
23662		9.363069	1.862864	-2.246368	0.014848	-0.002969	-0.015523	-0.599854	-0.442871	0.626709	-0.251206	-0.765031	0.163335	-0.570039
23663		9.372838	1.872383	-2.204738	0.009766	-0.003608	-0.016736	-0.595703	-0.437744	0.621582	-0.251172	-0.765070	0.163284	-0.570016
23664		9.358498	1.865535	-2.229939	0.005150	-0.003757	-0.015214	-0.600342	-0.445557	0.629639	-0.251165	-0.765091	0.163276	-0.569994
23665		9.331862	1.881586	-2.242554	0.008767	-0.006420	-0.013553	-0.599854	-0.443604	0.618896	-0.251119	-0.765144	0.163273	-0.569944
23666		9.325213	1.868744	-2.257913	0.003765	-0.003093	-0.014766	-0.604004	-0.448486	0.627441	-0.251149	-0.765139	0.163306	-0.569928
23667		9.344299	1.843077	-2.261829	0.002693	-0.004726	-0.014114	-0.598389	-0.444336	0.621338	-0.251180	-0.765149	0.163352	-0.569888
23668		9.345508	1.852991	-2.251749	0.009399	-0.006933	-0.014019	-0.604736	-0.442383	0.625488	-0.251143	-0.765195	0.163361	-0.569840
23669		9.355754	1.858800	-2.241340	0.012441	-0.004522	-0.013157	-0.595947	-0.437256	0.615234	-0.251049	-0.765229	0.163326	-0.569845
23670		9.342555	1.884590	-2.230002	0.009233	-0.004275	-0.013733	-0.598877	-0.445801	0.615967	-0.251003	-0.765248	0.163322	-0.569841
23671		9.335460	1.874737	-2.214837	0.002431	-0.007106	-0.012171	-0.606689	-0.441650	0.619385	-0.251038	-0.765256	0.163421	-0.569787
23672		9.338985	1.879652	-2.275687	0.001952	-0.006232	-0.011213	-0.605957	-0.450439	0.614746	-0.251034	-0.765249	0.163500	-0.569776
23673		9.340240	1.861173	-2.280251	-0.003267	0.000337	-0.013409	-0.596680	-0.447266	0.619629	-0.251159	-0.765171	0.163624	-0.569789
23674		9.350710	1.819301	-2.247898	0.009063	-0.004045	-0.015487	-0.604248	-0.439209	0.619141	-0.251162	-0.765196	0.163629	-0.569753
23675		9.349905	1.851149	-2.233496	0.018639	-0.000888	-0.020859	-0.593018	-0.447754	0.622803	-0.251070	-0.765228	0.163470	-0.569796
23676		9.351194	1.861679	-2.222566	0.007414	-0.000611	-0.015633	-0.598145	-0.438721	0.620361	-0.251099	-0.765236	0.163470	-0.569773
23677		9.356486	1.877350	-2.240267	-0.002157	-0.006204	-0.012296	-0.599854	-0.442871	0.621094	-0.251140	-0.765236	0.163556	-0.569729
23678		9.339647	1.866409	-2.246131	-0.003815	-0.002769	-0.012444	-0.598877	-0.450684	0.617676	-0.251219	-0.765204	0.163654	-0.569709
23679		9.328925	1.868449	-2.268457	-0.003650	-0.003778	-0.015645	-0.602295	-0.447021	0.625732	-0.251359	-0.765178	0.163766	-0.569651
23680		9.344212	1.838070	-2.243166	-0.003094	-0.000682	-0.016605	-0.602295	-0.445068	0.619385	-0.251468	-0.765146	0.163812	-0.569632
23681		9.351024	1.808166	-2.248788	-0.006323	-0.001504	-0.015527	-0.602539	-0.444092	0.622070	-0.251602	-0.765095	0.163905	-0.569614
23682		9.366913	1.791185	-2.321538	0.007091	-0.004233	-0.018258	-0.600098	-0.441895	0.623291	-0.251610	-0.765118	0.163872	-0.569590
23683		9.374701	1.851261	-2.260048	0.010376	-0.000503	-0.017686	-0.602295	-0.440918	0.617188	-0.251582	-0.765131	0.163797	-0.569606
23684		9.357018	1.875861	-2.188528	0.005524	-0.000914	-0.017528	-0.599609	-0.445068	0.625244	-0.251603	-0.765115	0.163775	-0.569625
23685		9.333460	1.892644	-2.249889	0.002417	-0.002440	-0.014308	-0.602783	-0.453613	0.617188	-0.251633	-0.765113	0.163802	-0.569606
23686		9.333888	1.897904	-2.260169	0.002816	-0.003201	-0.016140	-0.594727	-0.445312	0.617188	-0.251720	-0.765096	0.163868	-0.569572
23687		9.359640	1.865143	-2.244269	0.004921	-0.002052	-0.014141	-0.602539	-0.442139	0.618652	-0.251749	-0.765091	0.163903	-0.569556
23688		9.369210	1.894556	-2.238651	0.008657	-0.003749	-0.013256	-0.613037	-0.437012	0.614502	-0.251705	-0.765099	0.163906	-0.569564
23689		9.327543	1.929199	-2.219114	0.001796	-0.004642	-0.009267	-0.597900	-0.454346	0.616699	-0.251668	-0.765059	0.163990	-0.569610
23690		9.318597	1.911890	-2.215140	0.000031	-0.004593	-0.010675	-0.596680	-0.440674	0.620850	-0.251750	-0.765039	0.164137	-0.569558
23691		9.327347	1.879334	-2.261572	-0.001185	-0.001447	-0.013046	-0.595459	-0.450195	0.625977	-0.251801	-0.765015	0.164192	-0.569552
23692		9.359265	1.859023	-2.262396	0.001989	-0.004591	-0.014117	-0.603516	-0.444580	0.623779	-0.251853	-0.765034	0.164245	-0.569488
23693		9.358404	1.862277	-2.263281	0.006486	-0.001289	-0.015748	-0.602295	-0.440674	0.613525	-0.251851	-0.765031	0.164223	-0.569500
23694		9.362812	1.856206	-2.234773	0.010090	0.000152	-0.014971	-0.599609	-0.450439	0.618408	-0.251817	-0.765010	0.164197	-0.569550
23695		9.334141	1.864705	-2.258105	0.012487	-0.000407	-0.014029	-0.598145	-0.449707	0.617676	-0.251788	-0.765009	0.164186	-0.569567
23696		9.357914	1.881172	-2.222854	0.007961	-0.003125	-0.013661	-0.606934	-0.446777	0.615967	-0.251795	-0.765014	0.164220	-0.569547
23697		9.363161	1.896537	-2.240557	0.001848	-0.002524	-0.012568	-0.593262	-0.442627	0.622803	-0.251832	-0.764976	0.164299	-0.569559
23698		9.367630	1.890075	-2.212175	0.006901	-0.001266	-0.012626	-0.606934	-0.454102	0.622314	-0.251812	-0.764985	0.164300	-0.569557
23699		9.358787	1.873041	-2.207804	0.007479	-0.002251	-0.012704	-0.598633	-0.450195	0.618896	-0.251815	-0.764973	0.164345	-0.569558
23700		9.369362	1.850591	-2.211861	0.002902	-0.001949	-0.011568	-0.602051	-0.439453	0.617432	-0.251856	-0.764951	0.164428	-0.569545
23701		9.345394	1.841341	-2.258337	-0.002673	-0.005248	-0.012197	-0.598633	-0.436768	0.623779	-0.251901	-0.764932	0.164517	-0.569525
23702		9.347006	1.876155	-2.263231	0.009161	-0.005679	-0.012551	-0.598389	-0.440918	0.621094	-0.251815	-0.764974	0.164490	-0.569514
23703		9.363818	1.874661	-2.233072	0.011140	-0.003826	-0.012695	-0.600830	-0.440918	0.618408	-0.251739	-0.765003	0.164466	-0.569517
23704		9.338048	1.866640	-2.239817	-0.002633	-0.005838	-0.010929	-0.595947	-0.447510	0.627686	-0.251780	-0.764988	0.164573	-0.569487
23705		9.355697	1.886850	-2.255304	0.005583	-0.005275	-0.010027	-0.602783	-0.452393	0.616455	-0.251752	-0.765019	0.164621	-0.569445
23706		9.357921	1.872978	-2.239618	0.011444	-0.005536	-0.013750	-0.607422	-0.448242	0.621094	-0.251728	-0.765041	0.164650	-0.569417
23707		9.374203	1.891726	-2.245608	0.005675	-0.002683	-0.013721	-0.599121	-0.447266	0.619385	-0.251733	-0.765027	0.164681	-0.569424
23708		9.374219	1.899630	-2.225635	-0.001961	-0.006939	-0.010127	-0.598633	-0.438477	0.629395	-0.251787	-0.765024	0.164814	-0.569366
23709		9.342793	1.903883	-2.230860	0.001500	-0.005852	-0.009843	-0.599854	-0.447754	0.624512	-0.251751	-0.765047	0.164857	-0.569339
23710		9.319497	1.845802	-2.256792	0.003440	-0.003412	-0.011254	-0.605469	-0.436768	0.623047	-0.251759	-0.765046	0.164914	-0.569320
23711		9.347293	1.811149	-2.281406	0.000335	-0.005737	-0.012980	-0.602783	-0.441162	0.625244	-0.251756	-0.765047	0.164951	-0.569309
23712		9.391679	1.878043	-2.264426	0.013205	-0.003928	-0.015260	-0.605713	-0.440430	0.617188	-0.251666	-0.765088	0.164877	-0.569316
23713		9.362999	1.869657	-2.221347	0.014093	-0.001273	-0.012721	-0.598877	-0.441406	0.617676	-0.251567	-0.765086	0.164839	-0.569373
23714		9.356621	1.884231	-2.220883	-0.003999	-0.006837	-0.007557	-0.596924	-0.447266	0.630127	-0.251603	-0.765069	0.164996	-0.569334
23715		9.348056	1.891869	-2.232221	0.006441	-0.003890	-0.012043	-0.595215	-0.442627	0.618652	-0.251576	-0.765099	0.165003	-0.569304
23716		9.340267	1.851618	-2.222442	0.013787	-0.001414	-0.014961	-0.600098	-0.443604	0.618896	-0.251512	-0.765122	0.164944	-0.569318
23717		9.353521	1.858064	-2.261369	0.005738	-0.006769	-0.012826	-0.603271	-0.437500	0.615479	-0.251498	-0.765145	0.164985	-0.569282
23718		9.364933	1.894194	-2.244811	0.009805	-0.003748	-0.010982	-0.596191	-0.444336	0.625000	-0.251420	-0.765145	0.164998	-0.569313
23719		9.368686	1.881913	-2.238090	0.015015	-0.001052	-0.012212	-0.606445	-0.447998	0.620117	-0.251318	-0.765174	0.164941	-0.569336
23720		9.351665	1.873384	-2.213626	0.009069	-0.006044	-0.013028	-0.599121	-0.443848	0.616943	-0.251285	-0.765192	0.164970	-0.569317
23721		9.349603	1.873918	-2.205520	-0.002875	-0.004734	-0.008596	-0.598145	-0.445068	0.617432	-0.251336	-0.765162	0.165115	-0.569293
23722		9.341278	1.853373	-2.231902	0.002517	-0.003056	-0.013021	-0.603760	-0.444336	0.620605	-0.251374	-0.765148	0.165176	-0.569277
23723		9.357320	1.834860	-2.305065	0.009540	-0.004476	-0.011954	-0.604736	-0.447754	0.617920	-0.251319	-0.765162	0.165190	-0.569279
23724		9.363765	1.863672	-2.250181	0.015572	-0.001449	-0.013554	-0.608643	-0.446045	0.616943	-0.251243	-0.765168	0.165160	-0.569314
23725		9.345417	1.881960	-2.200041	0.003176	-0.000655	-0.011848	-0.601074	-0.448486	0.621826	-0.251267	-0.765117	0.165232	-0.569349
23726		9.333000	1.872499	-2.264853	-0.001997	-0.005797	-0.012640	-0.604980	-0.443604	0.621338	-0.251342	-0.765111	0.165335	-0.569295
23727		9.349474	1.863055	-2.286012	0.006671	-0.002000	-0.013592	-0.602539	-0.446533	0.620117	-0.251326	-0.765101	0.165342	-0.569313
23728		9.349454	1.846052	-2.250467	0.008987	-0.002435	-0.013528	-0.603760	-0.451660	0.618652	-0.251303	-0.765102	0.165347	-0.569320
23729		9.357070	1.851821	-2.189537	0.001282	-0.003682	-0.009165	-0.605225	-0.443604	0.615723	-0.251342	-0.765072	0.165477	-0.569306
23730		9.340191	1.856184	-2.262469	-0.006545	-0.006098	-0.010232	-0.604736	-0.444580	0.617920	-0.251432	-0.765032	0.165643	-0.569272
23731		9.340618	1.860653	-2.273175	0.002329	-0.004956	-0.011460	-0.602539	-0.449219	0.614014	-0.251448	-0.765019	0.165724	-0.569259
