// Start Time: Unknown
// Update Rate: 40.0Hz
// Filter Profile: human (46.1)
// Firmware Version: 4.6.0
PacketCounter	SampleTimeFine	Acc_X	Acc_Y	Acc_Z	Gyr_X	Gyr_Y	Gyr_Z	Mag_X	Mag_Y	Mag_Z	Quat_q0	Quat_q1	Quat_q2	Quat_q3
23208		9.677288	-0.144934	-1.396118	0.004479	0.003428	-0.007568	-0.770508	0.287109	-0.377686	0.632525	-0.205919	-0.727328	-0.168831
23209		9.691557	-0.141097	-1.420849	0.004196	0.003286	-0.006092	-0.763428	0.289062	-0.375000	0.632553	-0.205824	-0.727326	-0.168850
23210		9.680133	-0.168160	-1.403009	0.007460	0.002402	-0.007581	-0.765381	0.289795	-0.374268	0.632579	-0.205696	-0.727341	-0.168846
23211		9.700277	-0.122141	-1.354045	0.005308	-0.000911	-0.006131	-0.765381	0.293701	-0.374023	0.632571	-0.205601	-0.727375	-0.168843
23212		9.691112	-0.162382	-1.363016	0.004667	0.000047	-0.007835	-0.759033	0.285889	-0.375244	0.632569	-0.205492	-0.727403	-0.168864
23213		9.670214	-0.119273	-1.408236	0.003580	-0.001392	-0.006074	-0.756104	0.290283	-0.377686	0.632558	-0.205411	-0.727432	-0.168876
23214		9.674530	-0.133591	-1.403876	0.005638	-0.001604	-0.006315	-0.760498	0.289551	-0.372559	0.632548	-0.205311	-0.727470	-0.168872
23215		9.702643	-0.129728	-1.380604	0.003980	0.001874	-0.005397	-0.755615	0.286133	-0.379150	0.632565	-0.205225	-0.727476	-0.168885
23216		9.683322	-0.162302	-1.394140	0.001732	0.000236	-0.006530	-0.759521	0.295654	-0.378418	0.632562	-0.205148	-0.727491	-0.168925
23217		9.684636	-0.173971	-1.398442	0.004442	-0.001149	-0.006103	-0.758545	0.294922	-0.378906	0.632556	-0.205061	-0.727521	-0.168929
23218		9.673325	-0.164281	-1.381816	0.007063	-0.001073	-0.009298	-0.764648	0.286865	-0.378174	0.632551	-0.204929	-0.727562	-0.168928
23219		9.689218	-0.149444	-1.394325	0.006399	0.000319	-0.008931	-0.761719	0.292236	-0.377441	0.632560	-0.204805	-0.727589	-0.168931
23220		9.677895	-0.090187	-1.395293	0.003195	0.000145	-0.007184	-0.760498	0.295166	-0.369873	0.632564	-0.204727	-0.727604	-0.168944
23221		9.691027	-0.135473	-1.381099	0.000274	0.000114	-0.006914	-0.755859	0.289551	-0.378418	0.632554	-0.204672	-0.727618	-0.168989
23222		9.701279	-0.141930	-1.376203	0.000313	-0.000507	-0.004585	-0.762207	0.289795	-0.380127	0.632553	-0.204630	-0.727624	-0.169016
23223		9.690631	-0.156471	-1.398499	0.002321	0.000121	-0.006120	-0.767090	0.294678	-0.379639	0.632565	-0.204558	-0.727629	-0.169037
23224		9.677336	-0.144650	-1.412488	0.002984	-0.001268	-0.006487	-0.757812	0.283447	-0.376221	0.632563	-0.204493	-0.727647	-0.169044
23225		9.687160	-0.140053	-1.351065	0.003254	-0.000907	-0.006928	-0.758057	0.293213	-0.382812	0.632555	-0.204404	-0.727676	-0.169057
23226		9.678141	-0.143960	-1.361040	0.002094	-0.006093	-0.004989	-0.756104	0.284912	-0.375244	0.632527	-0.204370	-0.727713	-0.169043
23227		9.689125	-0.138144	-1.396137	0.004616	0.000925	-0.003695	-0.762939	0.288818	-0.374023	0.632558	-0.204297	-0.727712	-0.169022
23228		9.693296	-0.140077	-1.408806	0.003161	0.000800	-0.004077	-0.758057	0.286133	-0.382568	0.632574	-0.204248	-0.727714	-0.169012
23229		9.694955	-0.165049	-1.394989	0.002777	0.002334	-0.005188	-0.756348	0.292969	-0.377686	0.632627	-0.204168	-0.727689	-0.169018
23230		9.688073	-0.171235	-1.373250	0.003855	-0.001239	-0.007553	-0.761230	0.285156	-0.376953	0.632634	-0.204109	-0.727702	-0.169008
23231		9.673174	-0.133225	-1.400685	0.005248	-0.000057	-0.007428	-0.761475	0.282471	-0.372314	0.632646	-0.204004	-0.727723	-0.168997
23232		9.667983	-0.128900	-1.366065	0.006753	-0.000769	-0.005752	-0.754395	0.290527	-0.374512	0.632634	-0.203897	-0.727772	-0.168963
23233		9.688851	-0.154448	-1.413333	0.004548	-0.003032	-0.004554	-0.760010	0.292236	-0.384277	0.632627	-0.203868	-0.727796	-0.168919
23234		9.691893	-0.155669	-1.404694	0.006378	0.000549	-0.007899	-0.766113	0.292725	-0.382324	0.632687	-0.203778	-0.727776	-0.168888
23235		9.707178	-0.166386	-1.360538	0.003735	-0.004358	-0.009706	-0.762451	0.283203	-0.373047	0.632669	-0.203716	-0.727810	-0.168885
23236		9.679066	-0.166934	-1.384188	0.005201	0.000569	-0.009760	-0.762939	0.289551	-0.381836	0.632650	-0.203583	-0.727861	-0.168896
23237		9.670297	-0.133383	-1.393559	0.007267	0.000147	-0.011039	-0.760010	0.296387	-0.373291	0.632688	-0.203456	-0.727867	-0.168882
23238		9.691939	-0.110627	-1.406203	0.005438	-0.003433	-0.007693	-0.764648	0.284668	-0.377197	0.632652	-0.203470	-0.727905	-0.168835
23239		9.703823	-0.106384	-1.388930	0.006883	-0.003088	-0.006275	-0.763428	0.284912	-0.374512	0.632626	-0.203361	-0.727968	-0.168795
23240		9.691031	-0.120307	-1.367942	-0.001460	-0.000372	-0.006858	-0.753174	0.293945	-0.380615	0.632586	-0.203315	-0.728004	-0.168845
23241		9.681702	-0.184150	-1.394126	0.000327	-0.000938	-0.006659	-0.759277	0.291992	-0.379883	0.632635	-0.203336	-0.727954	-0.168851
23242		9.688964	-0.151174	-1.398632	0.000004	-0.000460	-0.007513	-0.756348	0.294922	-0.372314	0.632658	-0.203339	-0.727928	-0.168874
23243		9.678770	-0.141565	-1.403253	0.005050	0.003120	-0.008207	-0.758301	0.298096	-0.372559	0.632675	-0.203355	-0.727913	-0.168854
23244		9.671904	-0.147388	-1.381590	0.006568	-0.002821	-0.008165	-0.761475	0.294189	-0.378418	0.632635	-0.203420	-0.727941	-0.168803
23245		9.699286	-0.153755	-1.393891	0.007419	-0.002359	-0.007159	-0.765381	0.285645	-0.381592	0.632640	-0.203421	-0.727948	-0.168756
23246		9.681809	-0.139110	-1.395050	0.004311	0.000766	-0.007662	-0.768066	0.295166	-0.380127	0.632670	-0.203306	-0.727951	-0.168769
23247		9.684652	-0.126972	-1.403379	0.002460	0.002387	-0.008120	-0.763184	0.285645	-0.382324	0.632688	-0.203346	-0.727919	-0.168794
23248		9.684682	-0.198211	-1.402395	0.004113	-0.000865	-0.007999	-0.757324	0.284180	-0.377686	0.632716	-0.203232	-0.727923	-0.168809
23249		9.700631	-0.088551	-1.324788	0.002320	-0.005098	-0.007759	-0.756104	0.292236	-0.385498	0.632685	-0.203132	-0.727978	-0.168804
23250		9.692022	-0.139566	-1.391280	-0.000393	-0.003724	-0.008187	-0.759277	0.284424	-0.373291	0.632756	-0.203158	-0.727903	-0.168833
23251		9.661135	-0.151263	-1.406219	0.004084	-0.000214	-0.004890	-0.764160	0.285400	-0.385498	0.632727	-0.203073	-0.727959	-0.168802
23252		9.686183	-0.144631	-1.391839	0.004298	0.000987	-0.006627	-0.757568	0.285889	-0.374512	0.632811	-0.202951	-0.727917	-0.168812
23253		9.708787	-0.160783	-1.351276	0.003581	-0.001800	-0.008153	-0.750000	0.281006	-0.385010	0.632779	-0.202878	-0.727968	-0.168802
23254		9.684757	-0.128024	-1.388314	-0.004246	-0.002741	-0.007106	-0.757812	0.291504	-0.382080	0.632891	-0.202749	-0.727896	-0.168850
23255		9.681001	-0.134742	-1.432574	0.002368	-0.000919	-0.005868	-0.755859	0.291748	-0.387695	0.632961	-0.202785	-0.727829	-0.168827
23256		9.686052	-0.101976	-1.393517	0.007916	-0.000759	-0.003899	-0.768799	0.285156	-0.378418	0.633130	-0.202777	-0.727706	-0.168736
23257		9.705587	-0.116522	-1.361793	0.000823	0.000654	-0.003399	-0.765137	0.292480	-0.380127	0.633088	-0.202734	-0.727750	-0.168757
23258		9.677241	-0.178931	-1.401916	0.003007	-0.001657	-0.003124	-0.763184	0.287354	-0.376221	0.633083	-0.202814	-0.727740	-0.168721
23259		9.678500	-0.118182	-1.407273	0.001821	-0.001426	-0.003948	-0.765381	0.284424	-0.379150	0.633034	-0.202817	-0.727786	-0.168706
23260		9.684687	-0.158815	-1.389259	0.005868	-0.000772	-0.004693	-0.764160	0.277588	-0.381348	0.633019	-0.202709	-0.727834	-0.168683
23261		9.674376	-0.150103	-1.394445	0.004145	-0.001264	-0.004633	-0.758545	0.292725	-0.377197	0.633027	-0.202472	-0.727891	-0.168688
23262		9.677459	-0.151431	-1.385635	0.005218	0.000184	-0.006401	-0.766846	0.286621	-0.380371	0.633043	-0.202548	-0.727868	-0.168638
23263		9.691818	-0.124148	-1.394158	0.001829	-0.001641	-0.004984	-0.760498	0.292480	-0.379639	0.633016	-0.202519	-0.727898	-0.168649
23264		9.696305	-0.138485	-1.389477	0.001968	0.000831	-0.005945	-0.758545	0.284912	-0.376465	0.633050	-0.202606	-0.727847	-0.168635
23265		9.687557	-0.178875	-1.397815	0.007744	0.001766	-0.007788	-0.763916	0.289062	-0.379639	0.633068	-0.202485	-0.727874	-0.168596
23266		9.664555	-0.148321	-1.381597	0.002910	-0.000408	-0.007790	-0.766113	0.281982	-0.386719	0.633059	-0.202484	-0.727880	-0.168606
23267		9.684203	-0.159981	-1.424253	0.007555	-0.000080	-0.009161	-0.761230	0.296387	-0.379639	0.633137	-0.202251	-0.727873	-0.168621
23268		9.689218	-0.126467	-1.385250	0.009130	-0.001841	-0.007224	-0.766602	0.287109	-0.378662	0.633156	-0.202374	-0.727843	-0.168529
23269		9.699499	-0.132721	-1.380583	0.006148	-0.000834	-0.007210	-0.761230	0.291992	-0.379395	0.633113	-0.202322	-0.727899	-0.168515
23270		9.708771	-0.138347	-1.353872	0.001989	0.000186	-0.009056	-0.756592	0.290527	-0.384277	0.633122	-0.202392	-0.727869	-0.168524
23271		9.684883	-0.142271	-1.389684	0.003360	0.001806	-0.006862	-0.765137	0.285645	-0.377441	0.633256	-0.202425	-0.727747	-0.168508
23272		9.678734	-0.136038	-1.407508	0.005335	-0.001702	-0.004847	-0.756836	0.291748	-0.381592	0.633199	-0.202375	-0.727818	-0.168475
23273		9.683245	-0.150521	-1.402810	0.005471	0.000771	-0.005809	-0.760498	0.291992	-0.381104	0.633291	-0.202442	-0.727732	-0.168420
23274		9.689679	-0.130256	-1.367756	0.004099	-0.000848	-0.008004	-0.759277	0.284668	-0.372070	0.633321	-0.202507	-0.727692	-0.168402
23275		9.677515	-0.155389	-1.402835	0.003943	0.001909	-0.005414	-0.754883	0.292236	-0.378418	0.633262	-0.202445	-0.727772	-0.168354
23276		9.686054	-0.135850	-1.411333	0.009392	-0.001468	-0.007668	-0.765625	0.285400	-0.380859	0.633309	-0.202499	-0.727738	-0.168260
23277		9.689544	-0.149521	-1.384731	0.003097	0.001231	-0.007458	-0.755615	0.287109	-0.377930	0.633306	-0.202425	-0.727754	-0.168291
23278		9.672286	-0.171253	-1.384584	0.006413	0.004120	-0.009138	-0.761230	0.284912	-0.383301	0.633375	-0.202361	-0.727719	-0.168260
23279		9.679720	-0.114265	-1.370953	0.004424	0.003261	-0.008634	-0.760498	0.284912	-0.379150	0.633459	-0.202253	-0.727670	-0.168283
23280		9.691392	-0.156710	-1.386640	0.003044	0.001857	-0.009792	-0.765869	0.291748	-0.376221	0.633470	-0.202162	-0.727681	-0.168307
23281		9.678229	-0.120772	-1.383262	0.006149	-0.001037	-0.008249	-0.760254	0.291016	-0.378174	0.633383	-0.202236	-0.727742	-0.168282
23282		9.668047	-0.148228	-1.388225	0.003679	-0.003247	-0.004526	-0.754883	0.285156	-0.374023	0.633352	-0.202352	-0.727748	-0.168233
23283		9.696495	-0.155417	-1.422484	0.003679	-0.003246	-0.004526	-0.756592	0.285889	-0.374268	0.633307	-0.202336	-0.727809	-0.168156
23284		9.676938	-0.177004	-1.380175	0.003968	-0.003530	-0.008079	-0.758301	0.288574	-0.377686	0.633243	-0.202308	-0.727882	-0.168115
23285		9.682646	-0.167079	-1.380795	0.001594	-0.003074	-0.009727	-0.767090	0.289062	-0.386475	0.633209	-0.202346	-0.727898	-0.168129
23286		9.676402	-0.099845	-1.382406	0.003758	-0.000147	-0.007825	-0.758545	0.283447	-0.382080	0.633263	-0.202357	-0.727837	-0.168176
23287		9.688229	-0.119336	-1.381365	0.002801	0.001520	-0.003907	-0.755615	0.291260	-0.376953	0.633345	-0.202286	-0.727790	-0.168158
23288		9.697241	-0.089531	-1.355451	0.002010	-0.004367	-0.002130	-0.763184	0.291016	-0.383545	0.633325	-0.202466	-0.727772	-0.168091
23289		9.694942	-0.170679	-1.420921	-0.000096	-0.003550	-0.004220	-0.760742	0.283203	-0.384033	0.633333	-0.202606	-0.727721	-0.168115
23290		9.680796	-0.172158	-1.396000	0.004196	-0.002086	-0.003339	-0.761719	0.281982	-0.378662	0.633392	-0.202522	-0.727698	-0.168092
23291		9.654327	-0.163817	-1.406368	0.006981	-0.000134	-0.005173	-0.767334	0.293213	-0.380371	0.633391	-0.202371	-0.727753	-0.168040
23292		9.682180	-0.123005	-1.383786	0.006987	-0.000348	-0.006210	-0.761719	0.289307	-0.381104	0.633363	-0.202484	-0.727751	-0.168019
23293		9.691335	-0.152814	-1.374034	0.002813	0.001091	-0.005982	-0.766846	0.294189	-0.382568	0.633393	-0.202539	-0.727708	-0.168024
23294		9.686215	-0.146979	-1.413641	0.006720	-0.000710	-0.005767	-0.760498	0.293213	-0.379883	0.633395	-0.202677	-0.727672	-0.168010
23295		9.688845	-0.135622	-1.422830	0.007448	-0.002931	-0.004833	-0.761475	0.291748	-0.381104	0.633395	-0.202802	-0.727653	-0.167940
23296		9.688161	-0.147058	-1.383858	0.006786	-0.001763	-0.005507	-0.765869	0.285156	-0.371826	0.633409	-0.202887	-0.727626	-0.167897
23297		9.677002	-0.174321	-1.366910	0.000968	-0.002097	-0.005992	-0.755371	0.293701	-0.385498	0.633257	-0.202829	-0.727784	-0.167860
23298		9.686293	-0.178591	-1.414933	0.003559	-0.001776	-0.008160	-0.760742	0.290527	-0.384766	0.633363	-0.202979	-0.727645	-0.167880
23299		9.684804	-0.163819	-1.411132	0.011094	-0.000938	-0.007739	-0.762451	0.291992	-0.380127	0.633441	-0.202989	-0.727582	-0.167847
23300		9.688027	-0.140875	-1.385440	0.005344	-0.002328	-0.007962	-0.761230	0.287109	-0.380371	0.633420	-0.203062	-0.727584	-0.167830
23301		9.698494	-0.122989	-1.363680	0.002030	-0.000643	-0.007766	-0.756592	0.286865	-0.376709	0.633419	-0.203048	-0.727585	-0.167846
23302		9.683481	-0.121895	-1.390341	0.001811	0.002952	-0.006477	-0.767334	0.290771	-0.380371	0.633447	-0.203023	-0.727574	-0.167815
23303		9.671872	-0.160189	-1.407518	0.002078	-0.001050	-0.004393	-0.758545	0.285889	-0.380859	0.633402	-0.203121	-0.727583	-0.167826
23304		9.689994	-0.160887	-1.372160	0.003087	-0.003338	-0.005976	-0.757324	0.290283	-0.376953	0.633410	-0.203094	-0.727589	-0.167807
23305		9.682217	-0.141896	-1.386609	0.003333	-0.002329	-0.003308	-0.764893	0.288086	-0.376465	0.633398	-0.203178	-0.727593	-0.167731
23306		9.693122	-0.136392	-1.421477	0.002337	-0.000471	-0.003800	-0.768311	0.284912	-0.382080	0.633337	-0.203199	-0.727649	-0.167697
23307		9.686832	-0.155552	-1.381830	0.001543	0.002590	-0.006034	-0.756348	0.287109	-0.381836	0.633335	-0.203146	-0.727651	-0.167755
23308		9.679790	-0.125479	-1.360284	0.003386	0.001415	-0.003500	-0.756104	0.283936	-0.371826	0.633421	-0.203162	-0.727579	-0.167726
23309		9.679996	-0.184873	-1.376936	-0.001024	-0.002746	-0.004449	-0.764160	0.290283	-0.371582	0.633344	-0.203106	-0.727678	-0.167654
23310		9.689981	-0.154590	-1.372979	0.002620	-0.000751	-0.007355	-0.769043	0.287842	-0.379150	0.633224	-0.203144	-0.727780	-0.167619
23311		9.698743	-0.171169	-1.381116	0.000833	-0.000199	-0.007554	-0.759521	0.286621	-0.386230	0.633159	-0.203146	-0.727824	-0.167671
23312		9.672395	-0.137803	-1.374260	0.000851	-0.000844	-0.010666	-0.765625	0.294434	-0.385498	0.633233	-0.203117	-0.727748	-0.167757
23313		9.688016	-0.122945	-1.387225	0.002151	-0.002316	-0.005170	-0.771240	0.291748	-0.383057	0.633251	-0.203304	-0.727669	-0.167807
23314		9.694378	-0.186951	-1.386814	-0.002004	-0.005684	-0.004487	-0.758057	0.296387	-0.378906	0.633161	-0.203466	-0.727684	-0.167885
23315		9.685532	-0.167027	-1.379595	0.004081	-0.001037	-0.009051	-0.759766	0.288818	-0.380859	0.633172	-0.203617	-0.727633	-0.167876
23316		9.679415	-0.136485	-1.380503	0.005792	-0.000317	-0.008078	-0.754150	0.289062	-0.381836	0.633205	-0.203604	-0.727611	-0.167867
23317		9.682472	-0.137389	-1.372105	0.001102	-0.004199	-0.005470	-0.764160	0.291748	-0.379150	0.633245	-0.203673	-0.727559	-0.167858
23318		9.698350	-0.159855	-1.385220	0.003811	-0.005336	-0.004005	-0.760010	0.287109	-0.375977	0.633185	-0.203772	-0.727591	-0.167822
23319		9.704512	-0.138552	-1.425599	0.000432	-0.002818	-0.005107	-0.773682	0.291748	-0.387939	0.633139	-0.203764	-0.727643	-0.167784
23320		9.694497	-0.166074	-1.430380	0.006118	-0.000790	-0.007224	-0.761475	0.282715	-0.378906	0.633140	-0.203853	-0.727593	-0.167887
23321		9.683666	-0.145480	-1.378956	0.007310	-0.001227	-0.007438	-0.764160	0.290283	-0.379883	0.633140	-0.203691	-0.727650	-0.167840
23322		9.656102	-0.159955	-1.384283	0.006834	0.001573	-0.007781	-0.763916	0.289062	-0.377686	0.633153	-0.203691	-0.727641	-0.167830
23323		9.702441	-0.131630	-1.382708	0.004210	-0.002926	-0.007492	-0.760498	0.289551	-0.376953	0.633099	-0.203686	-0.727694	-0.167806
23324		9.674219	-0.133167	-1.406911	0.003237	-0.006079	-0.008566	-0.761475	0.288574	-0.382324	0.633031	-0.203692	-0.727759	-0.167774
23325		9.705195	-0.154149	-1.393295	0.004354	-0.005247	-0.008005	-0.761230	0.283936	-0.380127	0.633019	-0.203707	-0.727763	-0.167787
23326		9.689460	-0.165367	-1.381757	0.008050	-0.003869	-0.008579	-0.763184	0.289062	-0.370361	0.633010	-0.203577	-0.727816	-0.167748
23327		9.677537	-0.118890	-1.366311	0.005597	-0.002155	-0.009451	-0.754150	0.299561	-0.385498	0.632905	-0.203508	-0.727946	-0.167663
23328		9.676348	-0.139111	-1.436359	0.004399	-0.001503	-0.008200	-0.760010	0.290527	-0.375732	0.633007	-0.203755	-0.727781	-0.167694
23329		9.681514	-0.165412	-1.414056	0.006119	-0.001209	-0.009303	-0.760010	0.287598	-0.374512	0.632984	-0.203734	-0.727818	-0.167644
23330		9.694599	-0.112811	-1.384027	0.009893	-0.001311	-0.011691	-0.761963	0.286377	-0.375244	0.632954	-0.203598	-0.727900	-0.167565
23331		9.713784	-0.136313	-1.387372	0.005263	-0.001675	-0.010309	-0.759033	0.297119	-0.373535	0.632907	-0.203497	-0.727977	-0.167532
23332		9.680528	-0.158118	-1.392852	0.002730	0.001520	-0.009369	-0.759521	0.288086	-0.384277	0.632885	-0.203635	-0.727961	-0.167517
23333		9.657705	-0.115112	-1.416350	0.008089	-0.000116	-0.008777	-0.757812	0.286377	-0.376709	0.632960	-0.203610	-0.727900	-0.167530
23334		9.685758	-0.133940	-1.410544	0.004457	-0.002122	-0.005864	-0.758789	0.286621	-0.379639	0.632956	-0.203567	-0.727930	-0.167467
23335		9.687775	-0.134572	-1.380625	0.000839	-0.004772	-0.006062	-0.761230	0.286133	-0.376953	0.632937	-0.203578	-0.727944	-0.167464
23336		9.683553	-0.154158	-1.385362	-0.000645	0.000093	-0.005863	-0.763428	0.287842	-0.377197	0.632922	-0.203568	-0.727959	-0.167470
23337		9.682016	-0.186887	-1.415229	0.001868	0.001268	-0.009338	-0.761475	0.287842	-0.378418	0.632903	-0.203541	-0.727976	-0.167497
23338		9.676904	-0.108998	-1.403292	0.003243	0.002682	-0.008185	-0.761963	0.281738	-0.382812	0.632927	-0.203518	-0.727959	-0.167510
23339		9.687899	-0.150983	-1.397471	-0.000557	-0.001816	-0.009751	-0.762207	0.292725	-0.378418	0.632935	-0.203416	-0.727964	-0.167582
23340		9.691064	-0.151219	-1.388540	0.002719	0.001740	-0.008334	-0.759033	0.285400	-0.377197	0.632942	-0.203498	-0.727929	-0.167608
23341		9.676094	-0.102419	-1.380545	0.002498	0.005117	-0.008086	-0.762451	0.290283	-0.382568	0.632991	-0.203425	-0.727906	-0.167610
23342		9.663831	-0.163676	-1.392201	0.001263	0.001810	-0.007675	-0.759277	0.290039	-0.378174	0.633030	-0.203491	-0.727840	-0.167672
23343		9.693488	-0.146381	-1.430039	0.004173	0.001674	-0.008993	-0.764648	0.286865	-0.375488	0.633053	-0.203499	-0.727817	-0.167674
23344		9.694072	-0.109591	-1.377903	0.004835	0.000725	-0.007281	-0.761719	0.291504	-0.376465	0.633018	-0.203443	-0.727870	-0.167643
23345		9.694665	-0.144615	-1.377281	-0.000239	-0.001648	-0.005782	-0.759766	0.290283	-0.373291	0.632977	-0.203544	-0.727876	-0.167651
23346		9.675429	-0.141155	-1.391383	0.002186	0.001227	-0.006408	-0.766357	0.280029	-0.372803	0.632953	-0.203578	-0.727895	-0.167619
23347		9.682818	-0.144424	-1.394784	0.000859	0.003128	-0.009835	-0.762451	0.288086	-0.378906	0.632898	-0.203376	-0.727998	-0.167620
23348		9.705164	-0.097905	-1.411451	0.006478	0.002081	-0.008649	-0.760254	0.289551	-0.377441	0.632922	-0.203336	-0.727990	-0.167615
23349		9.693786	-0.112314	-1.411672	0.003594	-0.002152	-0.004794	-0.756104	0.286377	-0.373291	0.632907	-0.203390	-0.727995	-0.167585
23350		9.714161	-0.162394	-1.379705	0.000428	-0.002810	-0.005107	-0.756104	0.284912	-0.384033	0.632867	-0.203396	-0.728038	-0.167539
23351		9.667303	-0.151381	-1.382577	0.001478	-0.001348	-0.006887	-0.749268	0.296875	-0.382812	0.632934	-0.203370	-0.727983	-0.167559
23352		9.661982	-0.121695	-1.405475	0.004642	-0.000688	-0.006574	-0.758057	0.293457	-0.375732	0.633034	-0.203564	-0.727840	-0.167564
23353		9.699967	-0.135975	-1.412230	0.007271	-0.000119	-0.002258	-0.768066	0.291992	-0.372314	0.633046	-0.203676	-0.727818	-0.167481
23354		9.694910	-0.155857	-1.394276	0.002700	0.002389	-0.005224	-0.767334	0.283691	-0.376221	0.632980	-0.203735	-0.727862	-0.167465
23355		9.695021	-0.154472	-1.393657	0.007325	0.002556	-0.007647	-0.756348	0.286133	-0.377930	0.632965	-0.203583	-0.727927	-0.167423
23356		9.675801	-0.127147	-1.390150	0.006800	0.001826	-0.006757	-0.760010	0.290039	-0.377930	0.633018	-0.203516	-0.727912	-0.167372
23357		9.677428	-0.139009	-1.394145	0.006759	-0.001701	-0.005520	-0.766602	0.288330	-0.384033	0.633016	-0.203543	-0.727917	-0.167327
23358		9.686078	-0.108684	-1.368859	0.004072	-0.004731	-0.003409	-0.764160	0.293213	-0.375244	0.632999	-0.203592	-0.727918	-0.167326
23359		9.706368	-0.134262	-1.394089	-0.000662	0.000736	-0.002752	-0.764160	0.284668	-0.375732	0.632961	-0.203743	-0.727907	-0.167336
23360		9.676430	-0.159959	-1.389994	0.002881	0.004024	-0.004897	-0.761719	0.280029	-0.387451	0.632969	-0.203670	-0.727926	-0.167309
23361		9.676573	-0.158848	-1.389125	0.002360	0.003079	-0.005045	-0.759033	0.289795	-0.373291	0.633075	-0.203552	-0.727862	-0.167334
23362		9.682320	-0.149808	-1.388705	0.005230	-0.000579	-0.005125	-0.766846	0.282715	-0.377930	0.633048	-0.203573	-0.727893	-0.167273
23363		9.691026	-0.119395	-1.362929	0.005898	-0.001741	-0.004449	-0.760254	0.285156	-0.377441	0.633014	-0.203464	-0.727966	-0.167215
23364		9.694767	-0.157305	-1.353891	-0.001808	-0.004056	-0.004149	-0.764404	0.290527	-0.369629	0.632971	-0.203480	-0.728000	-0.167212
23365		9.689490	-0.175639	-1.411501	0.003671	-0.003627	-0.006606	-0.756592	0.289307	-0.377441	0.632853	-0.203517	-0.728101	-0.167176
23366		9.696587	-0.155457	-1.399333	0.002815	-0.003883	-0.006573	-0.749023	0.288086	-0.379639	0.632836	-0.203559	-0.728106	-0.167162
23367		9.678412	-0.153365	-1.361202	0.006276	0.000675	-0.007946	-0.764404	0.285400	-0.385498	0.632925	-0.203540	-0.728042	-0.167128
23368		9.690135	-0.099967	-1.383301	0.005933	0.001790	-0.005690	-0.760986	0.285645	-0.384277	0.632996	-0.203477	-0.727999	-0.167125
23369		9.683011	-0.117590	-1.395962	0.001313	0.001404	-0.004303	-0.761475	0.292480	-0.377686	0.633061	-0.203473	-0.727940	-0.167142
23370		9.665946	-0.140790	-1.396595	0.005519	-0.004363	-0.001992	-0.762207	0.283936	-0.377197	0.633028	-0.203586	-0.727950	-0.167086
23371		9.675363	-0.171070	-1.387657	0.000759	-0.003283	-0.004249	-0.756836	0.292725	-0.379395	0.632988	-0.203551	-0.728000	-0.167060
23372		9.702738	-0.153688	-1.383105	0.001021	-0.002917	-0.004695	-0.768799	0.294922	-0.379883	0.632988	-0.203684	-0.727960	-0.167071
23373		9.691505	-0.108668	-1.389443	0.004702	-0.001305	-0.004237	-0.756348	0.285889	-0.385010	0.632957	-0.203809	-0.727950	-0.167081
23374		9.684058	-0.162688	-1.379813	-0.000144	0.001681	-0.002606	-0.764160	0.292480	-0.375732	0.633051	-0.203843	-0.727855	-0.167097
23375		9.677967	-0.181091	-1.414195	0.003879	0.002178	-0.004405	-0.759277	0.288818	-0.379883	0.633042	-0.203913	-0.727846	-0.167085
23376		9.674616	-0.129826	-1.389091	0.000612	-0.001388	-0.005817	-0.760986	0.286133	-0.380127	0.633046	-0.203953	-0.727827	-0.167103
23377		9.702145	-0.136324	-1.401207	0.003324	-0.002294	-0.003312	-0.760986	0.290771	-0.382568	0.633050	-0.203945	-0.727834	-0.167068
23378		9.683441	-0.146391	-1.397976	0.004179	-0.002035	-0.003346	-0.764404	0.290527	-0.385010	0.633072	-0.204019	-0.727797	-0.167056
23379		9.686704	-0.172035	-1.406128	0.005737	0.000802	-0.002905	-0.760986	0.294434	-0.375732	0.633125	-0.204077	-0.727735	-0.167055
23380		9.675784	-0.152238	-1.354352	0.005142	0.000911	-0.003317	-0.754395	0.291992	-0.380371	0.633125	-0.204176	-0.727716	-0.167015
23381		9.671862	-0.196269	-1.375689	0.003665	-0.003407	-0.005569	-0.763916	0.289062	-0.383545	0.633141	-0.204255	-0.727683	-0.167002
23382		9.686672	-0.169107	-1.406700	0.006680	-0.001058	-0.007866	-0.764648	0.289795	-0.376465	0.633160	-0.204235	-0.727669	-0.167015
23383		9.700009	-0.129365	-1.358983	0.004298	-0.000413	-0.008475	-0.765869	0.290283	-0.384277	0.633126	-0.204208	-0.727707	-0.167012
23384		9.690751	-0.144248	-1.402628	-0.001660	0.001517	-0.008441	-0.763916	0.296143	-0.376953	0.633140	-0.204269	-0.727652	-0.167126
23385		9.683479	-0.137498	-1.398620	0.004365	-0.000825	-0.005096	-0.760986	0.291016	-0.383301	0.633113	-0.204383	-0.727645	-0.167118
23386		9.685657	-0.138098	-1.367725	0.006781	0.001847	-0.006767	-0.759766	0.293457	-0.385498	0.633170	-0.204405	-0.727586	-0.167133
23387		9.675808	-0.141856	-1.355311	-0.001468	-0.004958	-0.005365	-0.760254	0.293701	-0.386475	0.633162	-0.204576	-0.727525	-0.167219
23388		9.681678	-0.180178	-1.389983	-0.001100	-0.002118	-0.006788	-0.767822	0.286621	-0.381104	0.633180	-0.204737	-0.727437	-0.167334
23389		9.680222	-0.129385	-1.408842	0.003955	0.000492	-0.007258	-0.768799	0.287842	-0.383545	0.633172	-0.204691	-0.727452	-0.167359
23390		9.677419	-0.150512	-1.360108	0.004208	0.001498	-0.004589	-0.760986	0.296387	-0.379639	0.633186	-0.204706	-0.727427	-0.167394
23391		9.687294	-0.144215	-1.372576	0.004807	0.000966	-0.006254	-0.759521	0.291260	-0.380127	0.633204	-0.204810	-0.727379	-0.167406
23392		9.678687	-0.172403	-1.398497	0.000271	-0.000698	-0.005638	-0.759277	0.289551	-0.383789	0.633208	-0.204880	-0.727349	-0.167436
23393		9.678064	-0.158485	-1.416245	0.001307	0.001195	-0.005345	-0.764404	0.288574	-0.378174	0.633254	-0.204944	-0.727279	-0.167489
23394		9.688359	-0.140619	-1.394407	0.005895	-0.002359	-0.007569	-0.762695	0.281982	-0.382080	0.633222	-0.204891	-0.727329	-0.167458
23395		9.690484	-0.141101	-1.363939	0.004025	-0.000132	-0.004917	-0.759033	0.292969	-0.380615	0.633242	-0.204805	-0.727339	-0.167443
23396		9.690685	-0.163764	-1.380885	0.001385	-0.000071	-0.006118	-0.761719	0.285645	-0.375488	0.633257	-0.204889	-0.727295	-0.167475
23397		9.667266	-0.157492	-1.382150	0.001983	-0.000603	-0.007784	-0.756104	0.292969	-0.382812	0.633231	-0.204795	-0.727352	-0.167442
23398		9.688027	-0.146891	-1.355301	0.004623	-0.000663	-0.006582	-0.762695	0.281494	-0.377441	0.633273	-0.204866	-0.727291	-0.167459
23399		9.706162	-0.145958	-1.393938	0.002575	-0.000496	-0.006334	-0.756592	0.288086	-0.385254	0.633260	-0.204734	-0.727349	-0.167419
23400		9.680227	-0.150144	-1.386499	0.004104	-0.001609	-0.006729	-0.771484	0.288086	-0.376709	0.633305	-0.204749	-0.727300	-0.167441
23401		9.677030	-0.146375	-1.395881	0.000942	-0.002070	-0.005999	-0.760010	0.297363	-0.382080	0.633226	-0.204740	-0.727369	-0.167453
23402		9.687471	-0.152320	-1.391274	0.003508	-0.001501	-0.007141	-0.764893	0.290283	-0.378174	0.633233	-0.204874	-0.727315	-0.167497
23403		9.688934	-0.139923	-1.378592	0.001124	-0.000648	-0.006712	-0.760742	0.286621	-0.372314	0.633204	-0.204894	-0.727330	-0.167517
23404		9.676208	-0.165184	-1.391684	0.003091	0.000453	-0.006189	-0.766357	0.294922	-0.368164	0.633182	-0.204801	-0.727392	-0.167442
23405		9.675357	-0.127244	-1.392405	0.006251	0.000917	-0.006919	-0.763916	0.288574	-0.373535	0.633120	-0.204780	-0.727471	-0.167362
23406		9.683160	-0.119839	-1.361597	0.004098	-0.001179	-0.004653	-0.757080	0.290527	-0.373291	0.633081	-0.204745	-0.727530	-0.167298
23407		9.687671	-0.169524	-1.409056	0.000319	-0.005277	-0.004128	-0.761963	0.287598	-0.385986	0.633022	-0.204787	-0.727580	-0.167248
23408		9.668949	-0.179189	-1.406337	0.007157	-0.003613	-0.006482	-0.760986	0.291260	-0.380859	0.633041	-0.204774	-0.727568	-0.167248
23409		9.674987	-0.158311	-1.372155	0.008452	-0.001776	-0.008715	-0.762939	0.296387	-0.372803	0.633050	-0.204754	-0.727569	-0.167235
23410		9.684806	-0.151520	-1.384945	0.000963	0.001672	-0.006207	-0.760742	0.281738	-0.368652	0.633022	-0.204840	-0.727566	-0.167245
23411		9.680221	-0.158393	-1.406696	0.004022	-0.000761	-0.008036	-0.764648	0.289795	-0.378418	0.632974	-0.204645	-0.727687	-0.167142
23412		9.692182	-0.153079	-1.388916	0.001976	-0.000809	-0.008825	-0.762451	0.290039	-0.375000	0.632948	-0.204641	-0.727702	-0.167179
23413		9.688997	-0.148918	-1.398199	0.001794	-0.002017	-0.007074	-0.757568	0.290527	-0.380127	0.632904	-0.204646	-0.727739	-0.167178
23414		9.692115	-0.149391	-1.389779	0.005290	-0.002448	-0.009024	-0.754883	0.294922	-0.377930	0.632911	-0.204639	-0.727734	-0.167181
23415		9.682060	-0.128895	-1.360395	0.003422	-0.000227	-0.006372	-0.766602	0.291504	-0.371094	0.632934	-0.204725	-0.727688	-0.167188
23416		9.672576	-0.156410	-1.364331	0.000960	0.001462	-0.007247	-0.764648	0.285889	-0.380127	0.632882	-0.204729	-0.727731	-0.167196
23417		9.678064	-0.146362	-1.438484	0.006061	-0.000281	-0.005171	-0.766113	0.290527	-0.384521	0.632893	-0.204672	-0.727745	-0.167162
23418		9.690818	-0.154372	-1.402242	0.007790	0.003772	-0.006488	-0.766846	0.283936	-0.374756	0.632956	-0.204669	-0.727687	-0.167180
23419		9.694784	-0.167556	-1.375090	0.004018	-0.000967	-0.009077	-0.765869	0.286377	-0.369141	0.632909	-0.204543	-0.727768	-0.167159
23420		9.696497	-0.178600	-1.379370	0.006400	-0.001812	-0.009507	-0.764893	0.282959	-0.378418	0.632832	-0.204417	-0.727884	-0.167100
23421		9.680059	-0.117111	-1.390849	0.006141	-0.002391	-0.010099	-0.764648	0.296875	-0.381104	0.632805	-0.204276	-0.727952	-0.167078
23422		9.683440	-0.141132	-1.399476	0.003321	-0.003546	-0.009547	-0.764893	0.284912	-0.373047	0.632770	-0.204376	-0.727938	-0.167146
23423		9.689006	-0.131241	-1.399907	-0.000931	-0.000483	-0.006465	-0.765381	0.288330	-0.382080	0.632721	-0.204335	-0.727992	-0.167149
23424		9.700553	-0.137726	-1.416539	0.001550	0.001572	-0.005799	-0.763672	0.294678	-0.375732	0.632744	-0.204353	-0.727959	-0.167186
23425		9.678597	-0.156836	-1.381998	0.001452	-0.001326	-0.006895	-0.757812	0.284912	-0.377686	0.632706	-0.204441	-0.727958	-0.167224
23426		9.663924	-0.145022	-1.374300	0.001629	0.000307	-0.006571	-0.767090	0.283936	-0.380371	0.632724	-0.204395	-0.727958	-0.167215
23427		9.686222	-0.182953	-1.403252	0.003656	-0.003379	-0.005572	-0.758057	0.288574	-0.377930	0.632694	-0.204341	-0.728003	-0.167195
23428		9.690030	-0.160308	-1.399808	0.004349	-0.001432	-0.008220	-0.759033	0.290283	-0.379883	0.632698	-0.204317	-0.728008	-0.167188
23429		9.679216	-0.127117	-1.388090	0.006828	0.000412	-0.008594	-0.752686	0.285645	-0.382080	0.632730	-0.204296	-0.727988	-0.167183
23430		9.676179	-0.159107	-1.373943	0.008195	0.001837	-0.007446	-0.762695	0.296875	-0.376953	0.632819	-0.204213	-0.727945	-0.167135
23431		9.698979	-0.149579	-1.390148	0.003848	0.001785	-0.006498	-0.762939	0.283936	-0.377930	0.632825	-0.204315	-0.727903	-0.167169
23432		9.700119	-0.184368	-1.388926	0.006568	-0.000165	-0.009186	-0.763916	0.287842	-0.367676	0.632826	-0.204195	-0.727942	-0.167140
23433		9.695821	-0.143468	-1.399381	0.001610	-0.004066	-0.009478	-0.758057	0.285889	-0.375000	0.632717	-0.204152	-0.728050	-0.167134
23434		9.676863	-0.128445	-1.379546	0.004168	-0.002849	-0.007507	-0.760010	0.292236	-0.377686	0.632694	-0.204101	-0.728092	-0.167100
23435		9.682400	-0.118671	-1.380040	0.003491	-0.001691	-0.008187	-0.760498	0.290283	-0.380371	0.632682	-0.204141	-0.728086	-0.167125
23436		9.688240	-0.133135	-1.397601	0.007822	-0.004738	-0.005807	-0.764160	0.289795	-0.377686	0.632672	-0.204152	-0.728102	-0.167082
23437		9.709193	-0.146789	-1.388365	0.004763	-0.002528	-0.005017	-0.763672	0.290771	-0.378174	0.632649	-0.204175	-0.728120	-0.167063
23438		9.689210	-0.167359	-1.397843	0.004343	-0.001001	-0.006145	-0.763184	0.290039	-0.378418	0.632640	-0.204202	-0.728119	-0.167066
23439		9.681867	-0.160734	-1.394067	-0.000680	-0.000113	-0.006915	-0.763672	0.291016	-0.375732	0.632628	-0.204251	-0.728103	-0.167119
23440		9.653457	-0.139203	-1.400369	0.004598	-0.000843	-0.007632	-0.764893	0.291260	-0.376465	0.632606	-0.204259	-0.728119	-0.167124
23441		9.698977	-0.157219	-1.411152	0.004340	-0.001422	-0.008224	-0.760010	0.298828	-0.382568	0.632576	-0.204270	-0.728138	-0.167141
23442		9.702546	-0.146295	-1.367967	0.009956	-0.002622	-0.008083	-0.762451	0.292480	-0.376221	0.632593	-0.204366	-0.728092	-0.167157
23443		9.694336	-0.126909	-1.382582	0.007058	-0.002943	-0.008835	-0.763184	0.282227	-0.373779	0.632563	-0.204370	-0.728120	-0.167151
23444		9.683192	-0.141220	-1.382722	0.004094	0.002162	-0.006952	-0.757812	0.293213	-0.381104	0.632569	-0.204247	-0.728160	-0.167104
23445		9.670345	-0.142452	-1.378422	0.004431	0.001267	-0.008171	-0.761963	0.286621	-0.380615	0.632610	-0.204301	-0.728099	-0.167147
23446		9.684488	-0.174089	-1.381208	0.003145	-0.001212	-0.009049	-0.763428	0.287109	-0.379883	0.632612	-0.204263	-0.728102	-0.167170
23447		9.676959	-0.131000	-1.400218	0.003576	0.000792	-0.009175	-0.757324	0.285400	-0.381836	0.632623	-0.204222	-0.728098	-0.167197
23448		9.698151	-0.143520	-1.389635	0.001367	0.003051	-0.009461	-0.763672	0.291260	-0.364990	0.632680	-0.204178	-0.728050	-0.167243
23449		9.699079	-0.153964	-1.371109	0.006388	0.002172	-0.008692	-0.758301	0.282471	-0.381592	0.632636	-0.204128	-0.728110	-0.167207
23450		9.686050	-0.119007	-1.389468	0.004856	0.003063	-0.009337	-0.764404	0.287354	-0.380615	0.632701	-0.204014	-0.728088	-0.167202
23451		9.696670	-0.124406	-1.384094	0.006890	-0.000615	-0.008334	-0.752686	0.286621	-0.374512	0.632709	-0.203963	-0.728097	-0.167193
23452		9.679611	-0.122879	-1.367182	0.004683	0.002066	-0.006542	-0.762939	0.284180	-0.380371	0.632749	-0.203927	-0.728080	-0.167159
23453		9.693534	-0.119171	-1.392959	-0.001032	-0.002957	-0.005483	-0.759766	0.281494	-0.382324	0.632727	-0.203926	-0.728096	-0.167172
23454		9.694707	-0.154159	-1.392453	-0.000264	-0.001849	-0.006827	-0.762451	0.285645	-0.374512	0.632738	-0.203873	-0.728100	-0.167178
23455		9.678159	-0.129485	-1.380927	-0.002131	0.000359	-0.004175	-0.764160	0.294678	-0.376465	0.632717	-0.203899	-0.728107	-0.167195
23456		9.693926	-0.139041	-1.410356	-0.000173	0.001050	-0.005735	-0.759766	0.285645	-0.380371	0.632703	-0.204017	-0.728071	-0.167262
23457		9.697402	-0.175684	-1.378496	0.007228	-0.001082	-0.007475	-0.760010	0.288574	-0.375977	0.632725	-0.203949	-0.728079	-0.167224
23458		9.684806	-0.117848	-1.402399	-0.000257	0.002103	-0.006004	-0.758545	0.301025	-0.379883	0.632735	-0.203983	-0.728053	-0.167258
23459		9.685729	-0.128779	-1.383962	0.001445	0.002426	-0.007116	-0.762695	0.292236	-0.383057	0.632766	-0.204166	-0.727952	-0.167360
23460		9.683952	-0.114125	-1.379898	-0.001455	-0.001219	-0.005573	-0.758545	0.289551	-0.379883	0.632766	-0.204279	-0.727903	-0.167435
23461		9.672018	-0.116471	-1.397940	0.002805	0.000327	-0.004715	-0.757812	0.286865	-0.388428	0.632793	-0.204321	-0.727867	-0.167440
23462		9.695438	-0.167226	-1.408466	0.000507	0.000107	-0.004015	-0.758789	0.289795	-0.376709	0.632856	-0.204376	-0.727788	-0.167474
23463		9.708752	-0.151644	-1.377700	0.008079	-0.000598	-0.006473	-0.760498	0.286133	-0.385010	0.632868	-0.204353	-0.727794	-0.167430
23464		9.689304	-0.160538	-1.352079	0.005099	0.000127	-0.007494	-0.761475	0.295166	-0.375000	0.632911	-0.204319	-0.727765	-0.167436
23465		9.660995	-0.127412	-1.397894	0.005355	0.000708	-0.006903	-0.754639	0.289795	-0.383301	0.632907	-0.204375	-0.727751	-0.167449
23466		9.686208	-0.155251	-1.360707	0.003312	0.000857	-0.006652	-0.760010	0.287109	-0.373291	0.632961	-0.204410	-0.727687	-0.167475
23467		9.690929	-0.133306	-1.378647	0.007564	-0.001544	-0.006617	-0.763672	0.300049	-0.381836	0.632945	-0.204341	-0.727737	-0.167405
23468		9.703269	-0.105296	-1.366612	0.005605	-0.005766	-0.003799	-0.759766	0.297852	-0.376953	0.632908	-0.204521	-0.727712	-0.167432
23469		9.704885	-0.165079	-1.383557	0.000330	-0.005055	-0.003080	-0.766357	0.283691	-0.380371	0.632858	-0.204704	-0.727696	-0.167468
23470		9.679907	-0.170746	-1.398577	0.007987	-0.003067	-0.005488	-0.763428	0.294189	-0.384277	0.632846	-0.204618	-0.727746	-0.167401
23471		9.670611	-0.151438	-1.391481	0.007390	-0.002964	-0.005900	-0.769775	0.297852	-0.378662	0.632849	-0.204695	-0.727718	-0.167420
23472		9.688044	-0.138472	-1.373988	0.003732	-0.000877	-0.006563	-0.761475	0.286621	-0.379639	0.632815	-0.204806	-0.727702	-0.167481
23473		9.703743	-0.147823	-1.404015	0.003304	-0.002880	-0.006436	-0.765869	0.290283	-0.379639	0.632801	-0.204790	-0.727721	-0.167473
23474		9.696324	-0.141102	-1.400568	0.001091	-0.000838	-0.007763	-0.754395	0.300293	-0.375244	0.632780	-0.204821	-0.727718	-0.167527
23475		9.669600	-0.132960	-1.411052	0.005856	-0.002073	-0.006547	-0.758057	0.287354	-0.377686	0.632774	-0.204944	-0.727683	-0.167545
23476		9.685134	-0.107162	-1.389957	0.005775	-0.004126	-0.003479	-0.759033	0.290771	-0.377686	0.632765	-0.204937	-0.727710	-0.167476
23477		9.704400	-0.155106	-1.388101	0.003392	0.000019	-0.005346	-0.761719	0.288086	-0.382568	0.632777	-0.204970	-0.727690	-0.167476
23478		9.673532	-0.144780	-1.385410	0.003736	-0.000241	-0.003446	-0.758057	0.295166	-0.373779	0.632802	-0.205009	-0.727657	-0.167477
23479		9.686928	-0.164916	-1.406248	0.001775	-0.001570	-0.005002	-0.762451	0.291748	-0.376465	0.632782	-0.205093	-0.727649	-0.167484
23480		9.693353	-0.167954	-1.388361	0.003557	0.001232	-0.007105	-0.762939	0.287354	-0.376221	0.632786	-0.205105	-0.727639	-0.167500
23481		9.669921	-0.162117	-1.389245	0.004153	0.001131	-0.006693	-0.756348	0.286377	-0.383545	0.632793	-0.205054	-0.727652	-0.167478
23482		9.682364	-0.133583	-1.376300	0.003981	-0.000501	-0.007014	-0.749023	0.291504	-0.385010	0.632831	-0.205043	-0.727619	-0.167491
23483		9.673648	-0.137893	-1.385300	0.005682	0.000037	-0.007089	-0.754639	0.289551	-0.372803	0.632900	-0.205101	-0.727535	-0.167526
23484		9.700404	-0.142947	-1.374958	0.003558	0.001445	-0.006067	-0.761475	0.285156	-0.376221	0.632920	-0.205073	-0.727534	-0.167486
23485		9.689363	-0.157595	-1.375046	-0.000527	-0.002216	-0.006380	-0.757324	0.294434	-0.384033	0.632891	-0.205040	-0.727570	-0.167479
23486		9.666779	-0.152495	-1.398613	0.004151	-0.002604	-0.006474	-0.761719	0.288818	-0.375488	0.632902	-0.205143	-0.727519	-0.167533
23487		9.671803	-0.166413	-1.394022	0.002620	-0.001508	-0.006080	-0.767822	0.287842	-0.375977	0.632882	-0.205131	-0.727544	-0.167515
23488		9.673567	-0.130632	-1.386569	0.004318	-0.001180	-0.007194	-0.765381	0.284180	-0.381592	0.632851	-0.205080	-0.727590	-0.167496
23489		9.703117	-0.149417	-1.402329	0.000239	-0.000683	-0.005649	-0.760254	0.286621	-0.377441	0.632848	-0.205062	-0.727594	-0.167512
23490		9.698513	-0.167967	-1.384498	0.000395	-0.000101	-0.010528	-0.766113	0.291016	-0.381592	0.632839	-0.205010	-0.727607	-0.167553
23491		9.676761	-0.127307	-1.378218	0.002956	-0.002398	-0.007299	-0.764648	0.280762	-0.378906	0.632816	-0.205048	-0.727606	-0.167596
23492		9.672215	-0.134581	-1.400202	0.002449	0.000810	-0.005582	-0.761230	0.291992	-0.379883	0.632828	-0.204954	-0.727631	-0.167559
23493		9.669019	-0.131130	-1.409186	-0.000016	-0.001052	-0.005200	-0.757080	0.292725	-0.379150	0.632822	-0.205038	-0.727602	-0.167606
23494		9.722445	-0.142812	-1.389118	-0.000609	-0.000741	-0.004572	-0.761719	0.279785	-0.377930	0.632827	-0.205140	-0.727558	-0.167651
23495		9.695167	-0.111271	-1.382651	-0.000353	-0.000159	-0.003981	-0.759033	0.284424	-0.375977	0.632833	-0.205069	-0.727583	-0.167608
23496		9.684822	-0.197666	-1.411266	0.000917	-0.002044	-0.006007	-0.758057	0.295410	-0.372803	0.632816	-0.205027	-0.727615	-0.167584
23497		9.676285	-0.143007	-1.374270	0.003124	-0.000761	-0.006980	-0.763428	0.287598	-0.379150	0.632798	-0.205085	-0.727609	-0.167606
23498		9.679167	-0.155263	-1.399976	0.004484	0.000461	-0.006876	-0.764160	0.287598	-0.382568	0.632808	-0.205052	-0.727611	-0.167601
23499		9.687899	-0.147578	-1.391131	0.002266	-0.001451	-0.009023	-0.762695	0.283691	-0.374023	0.632802	-0.205034	-0.727612	-0.167642
23500		9.713670	-0.139534	-1.399384	0.000909	-0.002462	-0.008087	-0.760254	0.282959	-0.378906	0.632760	-0.204959	-0.727672	-0.167627
23501		9.678142	-0.149065	-1.379139	0.003719	-0.000859	-0.006569	-0.757080	0.291016	-0.384277	0.632770	-0.204884	-0.727694	-0.167591
23502		9.669392	-0.153343	-1.388499	0.008475	-0.002711	-0.008474	-0.763916	0.284424	-0.381348	0.632795	-0.204871	-0.727678	-0.167579
23503		9.670607	-0.140567	-1.376563	0.001676	-0.004876	-0.008174	-0.765137	0.292480	-0.377441	0.632757	-0.204831	-0.727721	-0.167586
23504		9.678504	-0.167819	-1.398001	0.000314	-0.002150	-0.007460	-0.758789	0.287354	-0.374756	0.632717	-0.204889	-0.727726	-0.167643
23505		9.695931	-0.142089	-1.420310	0.000214	-0.001727	-0.010852	-0.763428	0.290527	-0.377441	0.632686	-0.204850	-0.727755	-0.167683
23506		9.692699	-0.149208	-1.389706	0.003275	0.000249	-0.009784	-0.758301	0.285645	-0.377686	0.632678	-0.204836	-0.727756	-0.167725
23507		9.661152	-0.113695	-1.370639	0.004131	-0.003216	-0.009600	-0.759277	0.291016	-0.380371	0.632661	-0.204770	-0.727792	-0.167715
23508		9.703207	-0.152030	-1.385926	0.000479	-0.004672	-0.008999	-0.756104	0.290771	-0.376953	0.632626	-0.204812	-0.727798	-0.167768
23509		9.686699	-0.162449	-1.426181	0.006506	-0.000085	-0.009216	-0.758057	0.291748	-0.382324	0.632644	-0.204786	-0.727790	-0.167767
23510		9.695859	-0.131157	-1.421854	0.007346	0.003925	-0.009477	-0.765869	0.285889	-0.373535	0.632714	-0.204766	-0.727729	-0.167792
23511		9.681179	-0.130965	-1.373517	0.007185	0.002712	-0.007716	-0.760986	0.284424	-0.382812	0.632724	-0.204671	-0.727756	-0.167755
23512		9.696077	-0.139162	-1.380917	0.003867	0.000155	-0.009374	-0.750732	0.283936	-0.381836	0.632749	-0.204601	-0.727751	-0.167763
23513		9.670311	-0.143404	-1.373152	0.006003	-0.000614	-0.007277	-0.764404	0.300293	-0.377930	0.632803	-0.204531	-0.727736	-0.167713
23514		9.688720	-0.118932	-1.416750	0.002087	0.001083	-0.007490	-0.761719	0.288086	-0.372803	0.632796	-0.204663	-0.727683	-0.167808
23515		9.686175	-0.150890	-1.402562	0.003963	-0.000476	-0.007023	-0.760986	0.292725	-0.386963	0.632777	-0.204634	-0.727711	-0.167794
23516		9.689791	-0.128153	-1.398372	0.002510	0.003298	-0.006581	-0.765137	0.288574	-0.384521	0.632842	-0.204702	-0.727620	-0.167859
23517		9.668924	-0.171093	-1.380046	-0.000974	-0.000895	-0.008558	-0.753418	0.286133	-0.382812	0.632836	-0.204736	-0.727597	-0.167939
23518		9.689274	-0.170715	-1.387820	0.000284	0.000965	-0.010808	-0.757812	0.292480	-0.379150	0.632874	-0.204705	-0.727560	-0.167995
23519		9.682190	-0.139727	-1.389147	0.005132	-0.001717	-0.011402	-0.763428	0.287109	-0.383545	0.632869	-0.204697	-0.727558	-0.168036
23520		9.690579	-0.142795	-1.415089	0.004444	-0.000564	-0.012087	-0.752441	0.289307	-0.381592	0.632874	-0.204639	-0.727559	-0.168084
23521		9.687701	-0.126484	-1.389377	0.009886	0.000814	-0.010413	-0.756836	0.289795	-0.366943	0.632931	-0.204571	-0.727533	-0.168062
23522		9.697681	-0.107192	-1.367711	0.005129	-0.001712	-0.011404	-0.756348	0.280273	-0.380371	0.632886	-0.204497	-0.727596	-0.168049
23523		9.685416	-0.131937	-1.381168	0.003615	-0.004153	-0.009743	-0.759766	0.286377	-0.375977	0.632875	-0.204389	-0.727643	-0.168017
23524		9.671477	-0.120527	-1.395812	0.002505	-0.000851	-0.008440	-0.762695	0.291504	-0.377930	0.632863	-0.204355	-0.727661	-0.168024
23525		9.712755	-0.158210	-1.388990	-0.001216	-0.005002	-0.007883	-0.764404	0.294434	-0.375732	0.632802	-0.204427	-0.727680	-0.168089
23526		9.697323	-0.098550	-1.370894	0.003357	-0.004730	-0.010335	-0.762939	0.279297	-0.382568	0.632735	-0.204467	-0.727714	-0.168146
23527		9.655776	-0.151153	-1.380652	0.000741	-0.003664	-0.006329	-0.758789	0.286133	-0.378174	0.632719	-0.204407	-0.727749	-0.168124
23528		9.672050	-0.113737	-1.420912	0.002171	0.000249	-0.006182	-0.762451	0.278076	-0.377197	0.632734	-0.204398	-0.727739	-0.168122
23529		9.703097	-0.132885	-1.383844	0.007682	-0.000255	-0.008400	-0.765381	0.285156	-0.374756	0.632745	-0.204234	-0.727793	-0.168044
23530		9.702460	-0.107102	-1.366774	0.004784	0.003549	-0.007292	-0.761719	0.283691	-0.369873	0.632763	-0.204174	-0.727796	-0.168038
23531		9.682837	-0.116217	-1.415357	0.003633	-0.003311	-0.005582	-0.751953	0.292236	-0.382080	0.632711	-0.204136	-0.727862	-0.167995
23532		9.682290	-0.161805	-1.405693	0.005585	-0.002180	-0.005069	-0.761963	0.283203	-0.383301	0.632745	-0.204190	-0.727822	-0.167975
23533		9.677272	-0.133665	-1.377007	0.002277	-0.004538	-0.005683	-0.755859	0.289307	-0.383789	0.632731	-0.204167	-0.727847	-0.167948
23534		9.683312	-0.148177	-1.394792	0.001673	-0.004648	-0.007137	-0.764160	0.286133	-0.372559	0.632726	-0.204204	-0.727838	-0.167962
23535		9.707741	-0.150983	-1.416134	0.008007	-0.001345	-0.010663	-0.757080	0.286865	-0.381348	0.632695	-0.204111	-0.727895	-0.167945
23536		9.700625	-0.120354	-1.416954	0.008658	0.004981	-0.010434	-0.759033	0.282959	-0.380859	0.632777	-0.204015	-0.727853	-0.167934
23537		9.681572	-0.128728	-1.389853	0.008321	0.005870	-0.009216	-0.761475	0.285400	-0.375977	0.632863	-0.203890	-0.727820	-0.167900
23538		9.677740	-0.100810	-1.381217	0.006655	0.002002	-0.006829	-0.762207	0.280762	-0.383301	0.632887	-0.203835	-0.727822	-0.167870
23539		9.676901	-0.098556	-1.358660	0.006470	0.004106	-0.007375	-0.755615	0.287109	-0.368408	0.632957	-0.203723	-0.727802	-0.167826
23540		9.710874	-0.120106	-1.386936	0.000496	-0.003826	-0.004837	-0.758057	0.292969	-0.382080	0.632898	-0.203775	-0.727839	-0.167832
23541		9.694490	-0.142972	-1.387477	-0.000890	-0.001735	-0.007248	-0.761719	0.285889	-0.379150	0.632896	-0.203863	-0.727800	-0.167899
23542		9.676247	-0.152246	-1.383270	-0.000503	0.003800	-0.008652	-0.763184	0.289062	-0.381592	0.632925	-0.203849	-0.727765	-0.167956
23543		9.678767	-0.116905	-1.396657	0.004273	0.002813	-0.006396	-0.766846	0.289795	-0.376709	0.632966	-0.203853	-0.727726	-0.167968
23544		9.688700	-0.098511	-1.374821	0.003788	-0.001878	-0.006306	-0.761719	0.290039	-0.388672	0.632934	-0.203879	-0.727743	-0.167983
23545		9.692476	-0.146519	-1.377912	-0.002493	-0.003338	-0.006898	-0.755615	0.292725	-0.382812	0.632931	-0.203955	-0.727709	-0.168046
23546		9.680628	-0.125409	-1.401929	0.003119	-0.004464	-0.006763	-0.762207	0.280029	-0.385986	0.632925	-0.204019	-0.727693	-0.168062
23547		9.674307	-0.108045	-1.386104	0.001251	-0.002496	-0.005149	-0.759521	0.282715	-0.383789	0.632936	-0.203979	-0.727702	-0.168032
23548		9.692445	-0.119083	-1.384912	0.005813	0.002151	-0.004711	-0.768555	0.291260	-0.379639	0.632999	-0.203924	-0.727675	-0.167977
23549		9.687010	-0.149142	-1.378731	0.003136	0.005488	-0.008220	-0.764160	0.280518	-0.376709	0.633035	-0.203934	-0.727627	-0.168040
23550		9.676085	-0.175032	-1.412222	0.003900	0.002664	-0.010385	-0.757080	0.289551	-0.374512	0.633046	-0.203821	-0.727647	-0.168047
23551		9.678776	-0.127328	-1.391374	0.007218	0.001085	-0.010585	-0.764160	0.290527	-0.383301	0.633056	-0.203773	-0.727649	-0.168056
23552		9.689889	-0.096982	-1.356896	0.007995	-0.001322	-0.010668	-0.756348	0.290283	-0.379150	0.633062	-0.203732	-0.727654	-0.168065
23553		9.696278	-0.099233	-1.339798	0.001767	-0.005692	-0.006863	-0.767090	0.289307	-0.376221	0.633024	-0.203783	-0.727669	-0.168079
23554		9.678611	-0.121588	-1.393037	0.003442	-0.001193	-0.006131	-0.762451	0.284424	-0.376221	0.632995	-0.203808	-0.727683	-0.168095
23555		9.699840	-0.122942	-1.423064	0.001250	-0.002493	-0.005150	-0.758545	0.288574	-0.377930	0.632965	-0.203814	-0.727709	-0.168089
23556		9.701286	-0.099141	-1.375848	0.002427	0.001259	-0.003515	-0.760498	0.288574	-0.380371	0.632991	-0.203859	-0.727676	-0.168083
23557		9.681732	-0.143830	-1.379119	0.004705	0.001301	-0.005264	-0.760498	0.288330	-0.371826	0.633023	-0.203869	-0.727648	-0.168073
23558		9.673471	-0.113677	-1.358568	0.007775	-0.000649	-0.005012	-0.760254	0.288330	-0.380859	0.633013	-0.203858	-0.727670	-0.168029
23559		9.675472	-0.126042	-1.362738	0.007969	-0.002544	-0.003423	-0.752930	0.293213	-0.385742	0.633024	-0.203864	-0.727673	-0.167963
23560		9.688003	-0.133759	-1.401947	0.002182	-0.003475	-0.005956	-0.760742	0.284668	-0.370850	0.633041	-0.203946	-0.727631	-0.167985
23561		9.692165	-0.135307	-1.415208	0.001907	-0.000112	-0.005737	-0.758789	0.297119	-0.375244	0.633018	-0.203933	-0.727656	-0.167978
23562		9.697818	-0.114147	-1.380796	0.006328	-0.000827	-0.005386	-0.765381	0.290527	-0.379639	0.633014	-0.204018	-0.727631	-0.167994
23563		9.682810	-0.126588	-1.367834	0.005649	0.000737	-0.003990	-0.764160	0.286377	-0.376709	0.633030	-0.204051	-0.727612	-0.167981
23564		9.666340	-0.162033	-1.402376	0.004735	-0.002225	-0.003992	-0.758545	0.282715	-0.374512	0.633011	-0.204052	-0.727636	-0.167943
23565		9.690899	-0.176796	-1.384092	0.007762	-0.005420	-0.009988	-0.762207	0.291016	-0.375000	0.632967	-0.203944	-0.727718	-0.167887
23566		9.677196	-0.130145	-1.369685	0.005691	-0.001768	-0.011007	-0.764404	0.282471	-0.375244	0.632936	-0.203923	-0.727743	-0.167923
23567		9.699606	-0.119300	-1.387122	0.004091	-0.003374	-0.010654	-0.762695	0.281250	-0.380615	0.632888	-0.203833	-0.727811	-0.167918
23568		9.686692	-0.120131	-1.383785	0.007731	-0.001678	-0.010224	-0.766846	0.288086	-0.383545	0.632891	-0.203705	-0.727854	-0.167873
23569		9.695405	-0.088588	-1.380415	0.001880	-0.000733	-0.008863	-0.763916	0.284424	-0.383545	0.632887	-0.203704	-0.727848	-0.167917
23570		9.677970	-0.145693	-1.387771	0.002748	0.000170	-0.005779	-0.766357	0.292236	-0.376709	0.632909	-0.203687	-0.727836	-0.167907
23571		9.699662	-0.111724	-1.387359	0.005752	0.005491	-0.007037	-0.760742	0.277588	-0.379883	0.632949	-0.203701	-0.727789	-0.167943
23572		9.694430	-0.118344	-1.386299	0.004840	0.002528	-0.007038	-0.759277	0.286865	-0.378418	0.632992	-0.203585	-0.727796	-0.167890
23573		9.678595	-0.106189	-1.356549	0.005723	-0.000721	-0.005802	-0.760986	0.291260	-0.383789	0.633003	-0.203574	-0.727796	-0.167862
23574		9.693294	-0.126862	-1.398965	0.002252	-0.000577	-0.004875	-0.756836	0.287842	-0.383789	0.633022	-0.203638	-0.727757	-0.167881
23575		9.685810	-0.120961	-1.395318	0.005235	-0.001260	-0.003856	-0.757324	0.282959	-0.379150	0.633056	-0.203657	-0.727731	-0.167840
23576		9.689044	-0.122406	-1.386553	0.002019	-0.000535	-0.002340	-0.760254	0.291260	-0.377197	0.633076	-0.203667	-0.727722	-0.167795
23577		9.689085	-0.121530	-1.386347	-0.005232	0.002281	-0.004437	-0.762695	0.278809	-0.382324	0.633080	-0.203789	-0.727663	-0.167889
23578		9.675175	-0.134806	-1.394428	0.003081	0.003856	-0.003068	-0.762207	0.288086	-0.382812	0.633141	-0.203732	-0.727639	-0.167833
23579		9.676339	-0.123148	-1.381799	0.003830	-0.004972	-0.002951	-0.762451	0.289551	-0.376465	0.633122	-0.203775	-0.727652	-0.167793
23580		9.698627	-0.137247	-1.394250	0.004724	-0.002423	-0.005035	-0.757080	0.290771	-0.383057	0.633100	-0.203804	-0.727666	-0.167782
23581		9.692287	-0.143469	-1.372490	0.004691	0.001314	-0.005271	-0.761963	0.283936	-0.378418	0.633148	-0.203831	-0.727618	-0.167777
23582		9.687003	-0.127081	-1.377389	-0.001667	0.001087	-0.005089	-0.762939	0.286865	-0.375732	0.633152	-0.203849	-0.727603	-0.167802
23583		9.698750	-0.133817	-1.393729	0.002066	0.001736	-0.004385	-0.764648	0.281250	-0.382812	0.633159	-0.203870	-0.727590	-0.167807
23584		9.685033	-0.088427	-1.378479	0.002593	-0.001251	-0.005053	-0.760986	0.290039	-0.375244	0.633164	-0.203831	-0.727605	-0.167772
23585		9.683749	-0.145207	-1.381133	-0.002464	-0.002514	-0.002730	-0.759277	0.286621	-0.384033	0.633126	-0.203943	-0.727598	-0.167810
23586		9.690026	-0.160214	-1.398040	0.006812	-0.000060	-0.006296	-0.770508	0.284424	-0.369873	0.633165	-0.203904	-0.727585	-0.167768
23587		9.696630	-0.116524	-1.390525	0.004442	0.000943	-0.004820	-0.759521	0.288086	-0.378174	0.633131	-0.203887	-0.727621	-0.167758
23588		9.681731	-0.105631	-1.382575	0.003006	0.000966	-0.004150	-0.766113	0.285156	-0.380371	0.633151	-0.203914	-0.727598	-0.167751
23589		9.668866	-0.108197	-1.378799	0.003056	-0.002355	-0.001830	-0.761230	0.285889	-0.373291	0.633140	-0.203938	-0.727611	-0.167706
23590		9.704185	-0.131091	-1.355459	0.004533	-0.005906	-0.001222	-0.770996	0.282959	-0.379395	0.633086	-0.203979	-0.727662	-0.167642
23591		9.681377	-0.104761	-1.385117	0.004541	-0.005697	-0.000180	-0.768311	0.291260	-0.379395	0.633038	-0.203993	-0.727719	-0.167557
23592		9.684268	-0.142379	-1.406318	0.000799	-0.001989	0.002005	-0.759033	0.299805	-0.372070	0.633022	-0.204123	-0.727700	-0.167538
23593		9.672559	-0.157961	-1.384398	0.006499	0.001450	-0.001954	-0.763916	0.293701	-0.382080	0.633034	-0.204251	-0.727651	-0.167552
23594		9.686353	-0.178516	-1.404787	0.001762	-0.001115	-0.002930	-0.766357	0.287354	-0.385010	0.633037	-0.204346	-0.727617	-0.167570
23595		9.670422	-0.143595	-1.381046	0.006507	-0.002909	-0.004842	-0.765625	0.285156	-0.385498	0.633039	-0.204330	-0.727631	-0.167521
23596		9.703274	-0.176375	-1.422717	0.004464	-0.003000	-0.005626	-0.758545	0.286621	-0.378662	0.633038	-0.204304	-0.727648	-0.167485
23597		9.689417	-0.153875	-1.402963	0.007572	-0.002876	-0.008461	-0.767822	0.289551	-0.379883	0.633032	-0.204244	-0.727679	-0.167446
23598		9.671344	-0.128147	-1.370437	0.005881	-0.003435	-0.008380	-0.762695	0.294922	-0.375488	0.632998	-0.204224	-0.727714	-0.167447
23599		9.676419	-0.130379	-1.405731	0.003521	-0.002227	-0.005862	-0.763672	0.291748	-0.379883	0.632969	-0.204292	-0.727713	-0.167478
23600		9.688253	-0.125018	-1.388476	0.008775	-0.002852	-0.006597	-0.760254	0.291016	-0.382324	0.632960	-0.204285	-0.727730	-0.167447
23601		9.705516	-0.111520	-1.370880	0.004083	0.001415	-0.005689	-0.762451	0.291016	-0.380127	0.632997	-0.204309	-0.727690	-0.167454
23602		9.695750	-0.150851	-1.387188	0.005808	-0.001757	-0.005532	-0.769775	0.288574	-0.383545	0.632996	-0.204326	-0.727688	-0.167440
23603		9.695688	-0.126377	-1.392940	0.002930	-0.001924	-0.005232	-0.752930	0.283691	-0.383789	0.632983	-0.204349	-0.727692	-0.167445
23604		9.692326	-0.146463	-1.397489	0.002367	-0.005565	-0.005405	-0.763916	0.290527	-0.375977	0.632976	-0.204342	-0.727710	-0.167403
23605		9.695459	-0.124226	-1.394724	0.002103	-0.001788	-0.003108	-0.762695	0.291992	-0.378662	0.632955	-0.204404	-0.727712	-0.167402
23606		9.696406	-0.147577	-1.411377	0.006809	0.000160	-0.005262	-0.761230	0.287598	-0.376709	0.632970	-0.204418	-0.727698	-0.167385
23607		9.683599	-0.149931	-1.407288	0.004195	0.000783	-0.003331	-0.754883	0.285889	-0.381104	0.632986	-0.204430	-0.727688	-0.167355
23608		9.693416	-0.132081	-1.385545	-0.002992	0.000467	-0.002060	-0.765869	0.289062	-0.380615	0.633013	-0.204500	-0.727643	-0.167362
23609		9.684771	-0.137435	-1.394580	-0.001972	-0.001769	-0.003632	-0.756592	0.292236	-0.385010	0.632991	-0.204576	-0.727633	-0.167396
23610		9.682417	-0.158668	-1.420467	0.000061	-0.001882	-0.003891	-0.764893	0.293457	-0.379639	0.633007	-0.204663	-0.727590	-0.167417
23611		9.677276	-0.177138	-1.380896	0.004617	-0.001358	-0.005316	-0.763428	0.286865	-0.384766	0.633000	-0.204705	-0.727582	-0.167425
23612		9.679375	-0.165685	-1.390019	0.003823	0.000837	-0.006281	-0.763184	0.291748	-0.377686	0.633030	-0.204691	-0.727560	-0.167421
23613		9.690073	-0.124800	-1.395487	0.003085	-0.000287	-0.004921	-0.760010	0.291016	-0.379639	0.633028	-0.204731	-0.727549	-0.167431
23614		9.700885	-0.153958	-1.385076	0.002486	-0.000194	-0.005333	-0.762451	0.297363	-0.372803	0.633038	-0.204767	-0.727528	-0.167443
23615		9.661208	-0.150122	-1.391214	0.003576	0.000463	-0.005828	-0.765381	0.291504	-0.378662	0.633027	-0.204833	-0.727510	-0.167480
23616		9.709332	-0.157468	-1.410773	0.001749	-0.001318	-0.003974	-0.757080	0.293701	-0.377441	0.633012	-0.204892	-0.727503	-0.167493
23617		9.683745	-0.127255	-1.374316	0.002751	-0.003968	-0.007630	-0.759277	0.286133	-0.373291	0.632982	-0.204932	-0.727512	-0.167520
23618		9.706208	-0.163766	-1.381043	0.003909	-0.000418	-0.007047	-0.758545	0.282227	-0.377930	0.632975	-0.204889	-0.727535	-0.167499
23619		9.686764	-0.138168	-1.400483	0.005105	-0.000604	-0.006224	-0.760254	0.288574	-0.376465	0.632988	-0.204819	-0.727556	-0.167444
23620		9.666515	-0.158558	-1.387445	0.009178	-0.000617	-0.005701	-0.769531	0.290771	-0.385742	0.633001	-0.204776	-0.727571	-0.167384
23621		9.693230	-0.116793	-1.388211	0.005222	-0.001238	-0.003863	-0.760986	0.292969	-0.381348	0.633009	-0.204808	-0.727558	-0.167368
23622		9.696555	-0.141438	-1.374138	0.006664	-0.001047	-0.003493	-0.759766	0.289795	-0.378418	0.633028	-0.204847	-0.727538	-0.167337
23623		9.702869	-0.156716	-1.391034	0.000059	-0.001882	-0.003891	-0.752686	0.287354	-0.377197	0.633016	-0.204907	-0.727529	-0.167349
23624		9.677176	-0.162206	-1.383427	0.006899	-0.000879	-0.004989	-0.760498	0.289062	-0.379150	0.633041	-0.204878	-0.727529	-0.167287
23625		9.657785	-0.160511	-1.397526	0.007153	-0.000295	-0.004401	-0.755859	0.285156	-0.375732	0.633062	-0.204867	-0.727525	-0.167239
23626		9.706026	-0.132599	-1.387996	0.003424	-0.000958	-0.005100	-0.761719	0.289551	-0.384033	0.633067	-0.204845	-0.727536	-0.167202
23627		9.699632	-0.173958	-1.395406	0.002226	-0.000773	-0.005924	-0.762451	0.288330	-0.379883	0.633079	-0.204868	-0.727516	-0.167214
23628		9.699357	-0.161368	-1.435301	0.003570	0.000468	-0.005831	-0.755371	0.293457	-0.369385	0.633092	-0.204865	-0.727506	-0.167210
23629		9.684761	-0.161472	-1.387269	0.008532	0.003217	-0.006360	-0.764404	0.286865	-0.385010	0.633124	-0.204846	-0.727489	-0.167188
23630		9.667701	-0.137298	-1.375448	0.003923	0.000002	-0.004966	-0.767822	0.286865	-0.381104	0.633147	-0.204841	-0.727475	-0.167169
23631		9.676250	-0.165296	-1.395653	-0.001336	0.000403	-0.005270	-0.759033	0.298340	-0.377197	0.633141	-0.204871	-0.727464	-0.167203
23632		9.692317	-0.139425	-1.395742	0.002282	0.001912	-0.005891	-0.758789	0.286133	-0.381348	0.633159	-0.204953	-0.727412	-0.167261
23633		9.691444	-0.137157	-1.373673	0.000694	0.000295	-0.005530	-0.762695	0.287354	-0.374512	0.633176	-0.204959	-0.727394	-0.167265
23634		9.677571	-0.150264	-1.382014	0.001349	0.002888	-0.005085	-0.763916	0.287354	-0.386963	0.633191	-0.204961	-0.727379	-0.167274
23635		9.687273	-0.167161	-1.389402	0.001736	-0.001522	-0.005017	-0.764160	0.293213	-0.390869	0.633200	-0.204981	-0.727365	-0.167273
23636		9.687125	-0.142774	-1.395131	0.005208	-0.001437	-0.004907	-0.758057	0.292969	-0.369873	0.633228	-0.205025	-0.727329	-0.167270
23637		9.687398	-0.152871	-1.355581	-0.000894	-0.001322	-0.005169	-0.751221	0.288818	-0.381592	0.633193	-0.205089	-0.727333	-0.167307
23638		9.703122	-0.174426	-1.419838	0.001381	-0.001053	-0.005883	-0.762939	0.290527	-0.376953	0.633214	-0.205109	-0.727308	-0.167309
23639		9.671084	-0.163501	-1.395562	0.007128	-0.000700	-0.006488	-0.760742	0.291016	-0.379395	0.633214	-0.205086	-0.727321	-0.167284
23640		9.678628	-0.131732	-1.370486	0.006284	-0.000983	-0.006446	-0.758789	0.283691	-0.380615	0.633220	-0.205077	-0.727323	-0.167266
23641		9.684984	-0.146527	-1.387368	-0.001983	-0.001981	-0.004673	-0.761475	0.295898	-0.372070	0.633209	-0.205095	-0.727326	-0.167268
23642		9.670986	-0.159935	-1.396650	-0.000431	-0.002632	-0.002983	-0.760742	0.286377	-0.382812	0.633166	-0.205206	-0.727324	-0.167303
23643		9.670960	-0.123725	-1.368123	0.004118	-0.002093	-0.004412	-0.759277	0.282959	-0.376221	0.633173	-0.205200	-0.727329	-0.167263
23644		9.688047	-0.146168	-1.380196	-0.001153	-0.003551	-0.000579	-0.753418	0.291992	-0.373291	0.633146	-0.205241	-0.727352	-0.167216
23645		9.685856	-0.191264	-1.401028	0.003974	-0.003518	-0.003681	-0.761230	0.296631	-0.373291	0.633126	-0.205283	-0.727364	-0.167187
23646		9.681259	-0.140847	-1.399774	0.001588	-0.002945	-0.004286	-0.762207	0.293701	-0.379883	0.633087	-0.205374	-0.727365	-0.167218
23647		9.695367	-0.172034	-1.381197	-0.001440	-0.004756	-0.004294	-0.764160	0.295898	-0.378174	0.633042	-0.205472	-0.727368	-0.167257
23648		9.692183	-0.192344	-1.385221	0.000954	0.001088	-0.003901	-0.766357	0.293701	-0.376953	0.633048	-0.205558	-0.727329	-0.167299
23649		9.667375	-0.175176	-1.404197	0.004039	0.001021	-0.007786	-0.760742	0.289795	-0.372070	0.633046	-0.205563	-0.727321	-0.167333
23650		9.694089	-0.155893	-1.399861	0.003097	-0.004422	-0.006766	-0.766846	0.295410	-0.376953	0.632994	-0.205560	-0.727369	-0.167324
23651		9.692977	-0.130387	-1.383819	0.010160	0.001329	-0.005443	-0.761719	0.290039	-0.382324	0.633014	-0.205552	-0.727361	-0.167294
23652		9.703920	-0.159620	-1.373488	0.000745	-0.003228	-0.004244	-0.755859	0.299561	-0.378174	0.632998	-0.205603	-0.727359	-0.167299
23653		9.710199	-0.174456	-1.391007	-0.000020	-0.004977	-0.006008	-0.762695	0.293213	-0.383301	0.632957	-0.205721	-0.727347	-0.167363
23654		9.682114	-0.178554	-1.414518	0.004247	-0.000869	-0.006189	-0.759277	0.285889	-0.370850	0.632967	-0.205750	-0.727327	-0.167378
23655		9.669305	-0.180365	-1.410680	0.005921	-0.000506	-0.007317	-0.759766	0.291748	-0.376709	0.632960	-0.205672	-0.727367	-0.167329
23656		9.666207	-0.164646	-1.385304	0.004478	-0.000699	-0.007686	-0.759277	0.292480	-0.375244	0.632958	-0.205662	-0.727369	-0.167336
23657		9.685406	-0.175764	-1.406164	0.004923	-0.002422	-0.007585	-0.756836	0.291992	-0.380371	0.632938	-0.205659	-0.727388	-0.167337
23658		9.689524	-0.141582	-1.390723	0.001896	-0.004236	-0.007591	-0.763672	0.286133	-0.372070	0.632912	-0.205687	-0.727396	-0.167360
23659		9.671133	-0.163695	-1.421845	0.004102	-0.002292	-0.005458	-0.760010	0.288574	-0.375488	0.632883	-0.205650	-0.727442	-0.167317
23660		9.688333	-0.149972	-1.404346	0.005827	0.000756	-0.006555	-0.759277	0.287598	-0.378906	0.632898	-0.205610	-0.727447	-0.167290
23661		9.676642	-0.140611	-1.387661	0.003045	-0.000684	-0.007014	-0.760254	0.295898	-0.385010	0.632903	-0.205588	-0.727450	-0.167283
23662		9.689521	-0.171296	-1.420543	0.006324	0.001717	-0.006422	-0.755615	0.291504	-0.374023	0.632950	-0.205615	-0.727399	-0.167296
23663		9.690651	-0.158672	-1.407764	0.002202	-0.000968	-0.006972	-0.754150	0.298828	-0.378174	0.632942	-0.205628	-0.727398	-0.167313
23664		9.681152	-0.162336	-1.394907	0.002699	-0.000008	-0.006839	-0.762207	0.289551	-0.369141	0.632954	-0.205703	-0.727353	-0.167369
23665		9.685362	-0.163560	-1.407939	0.002534	-0.001848	-0.008191	-0.762207	0.293945	-0.378418	0.632913	-0.205676	-0.727395	-0.167379
23666		9.689746	-0.152530	-1.386504	0.005557	-0.000029	-0.008187	-0.766357	0.286621	-0.371826	0.632918	-0.205673	-0.727387	-0.167398
23667		9.684213	-0.135970	-1.392029	0.006970	-0.002101	-0.005764	-0.757812	0.289795	-0.377686	0.632891	-0.205612	-0.727442	-0.167336
23668		9.697252	-0.154826	-1.390681	0.003805	0.001070	-0.005253	-0.764404	0.292236	-0.374023	0.632916	-0.205614	-0.727422	-0.167325
23669		9.675862	-0.163147	-1.395594	0.002313	-0.001809	-0.005652	-0.756836	0.300781	-0.382080	0.632886	-0.205644	-0.727436	-0.167340
23670		9.688861	-0.181976	-1.394577	0.001483	-0.001888	-0.004566	-0.760254	0.290771	-0.378906	0.632887	-0.205775	-0.727384	-0.167401
23671		9.675817	-0.160746	-1.396183	0.002950	0.000578	-0.006253	-0.766113	0.290527	-0.379639	0.632901	-0.205783	-0.727367	-0.167411
23672		9.677150	-0.171227	-1.378169	0.001344	-0.001458	-0.007973	-0.764404	0.287109	-0.381104	0.632880	-0.205789	-0.727375	-0.167446
23673		9.701622	-0.173851	-1.399486	0.002722	-0.004150	-0.008677	-0.756592	0.289307	-0.378174	0.632846	-0.205758	-0.727414	-0.167448
23674		9.686268	-0.138682	-1.397939	0.006228	-0.001576	-0.009585	-0.762451	0.292480	-0.374268	0.632848	-0.205703	-0.727430	-0.167438
23675		9.689499	-0.139079	-1.389636	0.007171	-0.004193	-0.005208	-0.754639	0.285889	-0.376953	0.632815	-0.205706	-0.727467	-0.167398
23676		9.701465	-0.169033	-1.401160	0.000574	0.001352	-0.005816	-0.758545	0.296875	-0.379639	0.632839	-0.205695	-0.727449	-0.167396
23677		9.713433	-0.163275	-1.383029	0.002002	0.001343	-0.006490	-0.762695	0.291748	-0.373291	0.632860	-0.205760	-0.727400	-0.167453
23678		9.676631	-0.150390	-1.419875	0.001505	0.000384	-0.006623	-0.757812	0.289062	-0.380127	0.632849	-0.205776	-0.727398	-0.167482
23679		9.673744	-0.158242	-1.389161	0.002667	-0.002270	-0.004786	-0.761475	0.293701	-0.371094	0.632848	-0.205795	-0.727398	-0.167465
23680		9.693075	-0.157794	-1.375911	0.003956	-0.003705	-0.004726	-0.760742	0.289551	-0.377197	0.632806	-0.205831	-0.727426	-0.167457
23681		9.691615	-0.144908	-1.394936	0.002299	-0.003866	-0.002554	-0.762939	0.289062	-0.377197	0.632782	-0.205875	-0.727442	-0.167424
23682		9.702153	-0.163398	-1.425207	0.001457	-0.004153	-0.002510	-0.760010	0.292969	-0.374512	0.632749	-0.205920	-0.727464	-0.167395
23683		9.682883	-0.150126	-1.404876	0.003733	0.002746	-0.002407	-0.762695	0.293457	-0.381104	0.632782	-0.205964	-0.727426	-0.167384
23684		9.686187	-0.151829	-1.395972	0.002324	-0.003452	-0.000468	-0.763916	0.292969	-0.370605	0.632771	-0.206060	-0.727414	-0.167359
23685		9.682238	-0.207507	-1.407684	0.005628	-0.005191	-0.001714	-0.762939	0.285156	-0.381104	0.632722	-0.206102	-0.727458	-0.167303
23686		9.668135	-0.186060	-1.388277	0.006491	-0.002634	-0.003816	-0.756104	0.295166	-0.378174	0.632726	-0.206061	-0.727485	-0.167218
23687		9.680608	-0.158702	-1.398073	0.005098	-0.000150	-0.004155	-0.761963	0.293457	-0.375732	0.632748	-0.206107	-0.727455	-0.167210
23688		9.707620	-0.163478	-1.387572	0.001946	0.003221	-0.002601	-0.772217	0.297607	-0.380859	0.632780	-0.206164	-0.727409	-0.167219
23689		9.688219	-0.162267	-1.401457	0.001595	-0.002727	-0.003245	-0.757812	0.285400	-0.379639	0.632748	-0.206264	-0.727401	-0.167252
23690		9.660899	-0.201371	-1.379432	0.001224	-0.002468	-0.005155	-0.755127	0.296143	-0.375000	0.632743	-0.206254	-0.727415	-0.167224
23691		9.661676	-0.201249	-1.402199	0.004988	-0.005719	-0.005255	-0.753906	0.287354	-0.372803	0.632705	-0.206304	-0.727436	-0.167214
23692		9.674106	-0.173281	-1.412286	0.003767	0.000665	-0.007345	-0.761963	0.292969	-0.373047	0.632719	-0.206255	-0.727442	-0.167193
23693		9.707742	-0.180890	-1.384073	0.004353	0.000371	-0.007976	-0.763672	0.293457	-0.385254	0.632715	-0.206241	-0.727446	-0.167210
23694		9.691170	-0.169395	-1.429102	0.005387	-0.001645	-0.008504	-0.758057	0.287842	-0.378906	0.632720	-0.206236	-0.727440	-0.167224
23695		9.691289	-0.155523	-1.395164	0.008130	-0.002670	-0.007034	-0.758057	0.287354	-0.377197	0.632723	-0.206174	-0.727469	-0.167161
23696		9.695386	-0.169307	-1.442230	0.015039	0.003748	-0.008097	-0.768311	0.287354	-0.379395	0.632797	-0.206029	-0.727470	-0.167058
23697		9.664145	-0.169383	-1.375683	0.013287	0.013317	-0.008490	-0.753174	0.291992	-0.373047	0.632938	-0.205872	-0.727403	-0.167005
23698		9.691966	-0.151187	-1.390935	0.006553	0.002326	-0.005849	-0.768311	0.282471	-0.374023	0.632975	-0.205857	-0.727380	-0.166984
23699		9.689640	-0.136753	-1.387790	-0.003625	-0.006506	-0.005371	-0.757568	0.287354	-0.375977	0.632888	-0.205862	-0.727455	-0.166983
23700		9.685372	-0.167955	-1.405725	-0.003417	-0.008604	-0.004810	-0.762207	0.294434	-0.379150	0.632804	-0.205921	-0.727509	-0.166993
23701		9.710385	-0.217492	-1.416930	-0.003008	-0.004324	-0.007019	-0.758545	0.297852	-0.371582	0.632753	-0.206003	-0.727513	-0.167068
23702		9.690354	-0.156274	-1.408180	0.000730	-0.001364	-0.008389	-0.761719	0.295654	-0.378174	0.632721	-0.206064	-0.727505	-0.167149
23703		9.694549	-0.157431	-1.421312	0.003369	-0.001338	-0.007199	-0.759521	0.297607	-0.379395	0.632711	-0.206098	-0.727496	-0.167182
23704		9.670014	-0.151498	-1.400837	0.006504	-0.000350	-0.005878	-0.758301	0.289307	-0.368164	0.632727	-0.206134	-0.727470	-0.167190
23705		9.686497	-0.171969	-1.390382	0.004704	-0.000086	-0.007113	-0.761719	0.285645	-0.382324	0.632716	-0.206097	-0.727493	-0.167175
23706		9.691999	-0.197847	-1.419388	0.001506	0.000595	-0.005585	-0.767334	0.289062	-0.376709	0.632739	-0.206076	-0.727484	-0.167157
23707		9.693979	-0.186165	-1.428380	0.003158	0.000762	-0.007761	-0.759277	0.288818	-0.381836	0.632737	-0.206044	-0.727492	-0.167167
23708		9.679461	-0.185726	-1.380684	0.006728	-0.000176	-0.007378	-0.756104	0.298828	-0.369873	0.632764	-0.205994	-0.727492	-0.167130
23709		9.672438	-0.156911	-1.404400	0.002513	-0.001831	-0.008199	-0.759766	0.288330	-0.373291	0.632731	-0.206052	-0.727488	-0.167199
23710		9.675258	-0.179058	-1.368280	0.004327	0.000176	-0.009025	-0.763672	0.301758	-0.373291	0.632729	-0.205998	-0.727505	-0.167200
23711		9.668692	-0.173267	-1.385910	0.006155	0.002390	-0.008809	-0.763184	0.294189	-0.374023	0.632737	-0.206034	-0.727471	-0.167270
23712		9.687400	-0.125550	-1.382831	0.004220	-0.000836	-0.006202	-0.766602	0.296631	-0.378662	0.632724	-0.206055	-0.727474	-0.167283
23713		9.686577	-0.171010	-1.424906	0.001071	-0.004094	-0.005462	-0.758789	0.298096	-0.378174	0.632679	-0.206135	-0.727481	-0.167326
23714		9.690260	-0.194768	-1.410837	0.005538	0.000211	-0.007160	-0.754883	0.289307	-0.366943	0.632692	-0.206173	-0.727451	-0.167359
23715		9.674323	-0.182262	-1.381339	0.005523	0.000006	-0.008204	-0.756104	0.295410	-0.377686	0.632686	-0.206115	-0.727476	-0.167340
23716		9.684880	-0.163931	-1.381327	0.003779	0.003156	-0.008371	-0.760010	0.293701	-0.378418	0.632723	-0.206130	-0.727428	-0.167391
23717		9.665928	-0.184888	-1.389474	0.004188	-0.001245	-0.008290	-0.765625	0.302246	-0.381836	0.632718	-0.206135	-0.727426	-0.167416
23718		9.706575	-0.185999	-1.405408	0.006452	-0.000955	-0.009012	-0.757568	0.292969	-0.372803	0.632713	-0.206188	-0.727400	-0.167483
23719		9.677309	-0.165538	-1.411933	0.006584	0.000473	-0.009750	-0.767822	0.288574	-0.377686	0.632718	-0.206142	-0.727406	-0.167493
23720		9.672126	-0.171448	-1.411724	0.005475	-0.000608	-0.011336	-0.762451	0.290771	-0.379395	0.632705	-0.206057	-0.727440	-0.167500
23721		9.680858	-0.150400	-1.368328	0.006129	0.002195	-0.009858	-0.756592	0.291016	-0.379395	0.632733	-0.206001	-0.727428	-0.167513
23722		9.676617	-0.157901	-1.389516	0.003162	0.000978	-0.006723	-0.766113	0.294189	-0.377686	0.632757	-0.206008	-0.727402	-0.167525
23723		9.690319	-0.153947	-1.415266	0.003838	-0.000569	-0.008117	-0.765625	0.287354	-0.379395	0.632746	-0.206016	-0.727402	-0.167560
23724		9.701685	-0.182105	-1.404495	0.006594	0.000685	-0.008709	-0.768311	0.290771	-0.382812	0.632760	-0.205940	-0.727417	-0.167535
23725		9.682413	-0.167240	-1.383893	0.002515	0.000448	-0.010266	-0.760498	0.287109	-0.377930	0.632759	-0.205917	-0.727412	-0.167585
23726		9.684369	-0.154921	-1.392838	0.005646	0.001445	-0.008947	-0.765381	0.289062	-0.378418	0.632783	-0.205846	-0.727416	-0.167570
23727		9.686320	-0.143053	-1.401740	0.009230	0.000723	-0.007520	-0.761475	0.291260	-0.376709	0.632804	-0.205775	-0.727428	-0.167524
23728		9.679272	-0.102350	-1.391082	0.006104	-0.002336	-0.005732	-0.764160	0.284668	-0.377686	0.632793	-0.205771	-0.727445	-0.167496
23729		9.681456	-0.172331	-1.397036	0.000131	-0.005398	-0.002589	-0.766113	0.290039	-0.382324	0.632748	-0.205794	-0.727488	-0.167451
23730		9.687982	-0.187507	-1.413906	0.001986	0.001566	-0.005461	-0.762207	0.291016	-0.383301	0.632770	-0.205811	-0.727461	-0.167465
23731		9.678141	-0.168383	-1.406155	0.004371	0.001017	-0.004858	-0.764404	0.288818	-0.380859	0.632801	-0.205828	-0.727432	-0.167456
