// Start Time: Unknown
// Update Rate: 40.0Hz
// Filter Profile: human (46.1)
// Firmware Version: 4.6.0
PacketCounter	SampleTimeFine	Acc_X	Acc_Y	Acc_Z	Gyr_X	Gyr_Y	Gyr_Z	Mag_X	Mag_Y	Mag_Z	Quat_q0	Quat_q1	Quat_q2	Quat_q3
23208		9.444405	1.591046	-1.850967	0.003786	0.001265	0.000271	-0.785400	0.311523	0.328369	0.300606	-0.609879	-0.472152	-0.561032
23209		9.438891	1.632855	-1.906483	0.004502	-0.000288	-0.001001	-0.779297	0.314209	0.331543	0.300632	-0.609858	-0.472192	-0.561007
23210		9.449979	1.622284	-1.888258	0.003290	0.002751	-0.004173	-0.779053	0.313477	0.330322	0.300644	-0.609808	-0.472235	-0.561018
23211		9.441550	1.576796	-1.868932	0.007346	0.000077	-0.004178	-0.780029	0.312012	0.331055	0.300669	-0.609756	-0.472320	-0.560990
23212		9.454149	1.588690	-1.885970	0.002503	-0.000930	-0.002143	-0.771729	0.305420	0.327393	0.300666	-0.609741	-0.472359	-0.560974
23213		9.443795	1.614532	-1.853958	0.002438	-0.001567	-0.000620	-0.771240	0.310059	0.332764	0.300669	-0.609743	-0.472389	-0.560946
23214		9.451177	1.624415	-1.847616	0.003122	0.001022	-0.002687	-0.776367	0.313232	0.334229	0.300676	-0.609711	-0.472431	-0.560942
23215		9.461637	1.628657	-1.894028	0.002909	0.001002	-0.004702	-0.771729	0.306885	0.329346	0.300664	-0.609665	-0.472490	-0.560949
23216		9.447433	1.595709	-1.915888	0.000619	0.001952	-0.000544	-0.777100	0.315186	0.330078	0.300663	-0.609646	-0.472502	-0.560959
23217		9.445808	1.573770	-1.880800	0.004632	0.000988	-0.004050	-0.774658	0.317383	0.327881	0.300659	-0.609606	-0.472577	-0.560942
23218		9.432993	1.613804	-1.881070	0.004943	-0.002497	-0.002764	-0.780029	0.309082	0.327881	0.300648	-0.609600	-0.472657	-0.560887
23219		9.444746	1.639836	-1.889530	0.002295	-0.003113	-0.002217	-0.777588	0.315430	0.329590	0.300609	-0.609612	-0.472723	-0.560839
23220		9.466085	1.632533	-1.844844	0.001816	-0.001357	-0.002017	-0.774658	0.318848	0.333252	0.300572	-0.609616	-0.472781	-0.560805
23221		9.486792	1.589094	-1.847766	-0.000253	-0.000475	-0.003575	-0.769775	0.315674	0.330078	0.300513	-0.609611	-0.472831	-0.560800
23222		9.432288	1.616029	-1.882694	-0.003208	0.000231	-0.002374	-0.775635	0.312256	0.324463	0.300456	-0.609614	-0.472842	-0.560818
23223		9.433314	1.631512	-1.905599	-0.002653	0.001546	-0.001394	-0.781250	0.314453	0.325439	0.300413	-0.609603	-0.472855	-0.560843
23224		9.440409	1.612592	-1.884728	-0.000664	-0.000244	-0.002958	-0.773193	0.306641	0.330322	0.300351	-0.609590	-0.472908	-0.560845
23225		9.459013	1.590422	-1.857992	-0.005346	-0.004122	-0.003173	-0.773682	0.315918	0.319824	0.300217	-0.609630	-0.472948	-0.560840
23226		9.474183	1.567211	-1.840166	-0.003380	0.000665	-0.002828	-0.770264	0.305664	0.333252	0.300176	-0.609613	-0.472967	-0.560864
23227		9.463781	1.564419	-1.867032	0.004538	0.002332	-0.001383	-0.780518	0.311523	0.331543	0.300176	-0.609592	-0.473021	-0.560842
23228		9.452477	1.648499	-1.903719	0.000985	0.003431	-0.004664	-0.773193	0.309326	0.325928	0.300142	-0.609554	-0.473065	-0.560865
23229		9.436522	1.666052	-1.909672	-0.000559	0.000848	-0.002922	-0.772461	0.312744	0.329346	0.300109	-0.609534	-0.473101	-0.560873
23230		9.431842	1.600009	-1.878727	0.001124	0.000380	-0.003831	-0.776367	0.306152	0.328369	0.300067	-0.609524	-0.473158	-0.560859
23231		9.457081	1.572873	-1.895654	0.002119	-0.000514	-0.004613	-0.778076	0.305176	0.334717	0.299999	-0.609493	-0.473248	-0.560853
23232		9.451600	1.644341	-1.890987	0.000995	0.005865	-0.001960	-0.770996	0.313477	0.334473	0.299948	-0.609467	-0.473281	-0.560880
23233		9.444915	1.642682	-1.907504	0.001442	0.008253	-0.002958	-0.773926	0.315430	0.319824	0.299948	-0.609445	-0.473286	-0.560900
23234		9.456730	1.639777	-1.899795	0.003744	0.002978	-0.003234	-0.780273	0.314453	0.321289	0.300014	-0.609369	-0.473345	-0.560897
23235		9.443403	1.592843	-1.930273	0.000404	0.004096	-0.004503	-0.774902	0.305908	0.335449	0.300025	-0.609285	-0.473399	-0.560937
23236		9.443392	1.571697	-1.853600	0.001061	-0.000257	-0.002307	-0.777588	0.310791	0.321777	0.299909	-0.609325	-0.473461	-0.560903
23237		9.442029	1.629401	-1.849943	0.001687	-0.002630	0.001033	-0.774170	0.319824	0.334717	0.299932	-0.609314	-0.473508	-0.560864
23238		9.473563	1.668687	-1.856473	0.001165	0.000835	-0.002270	-0.779297	0.305176	0.329834	0.299914	-0.609385	-0.473505	-0.560798
23239		9.466600	1.616549	-1.857267	-0.001902	0.004773	-0.004992	-0.778320	0.309082	0.329102	0.299813	-0.609321	-0.473560	-0.560876
23240		9.457828	1.563980	-1.825439	0.001850	0.003426	-0.004341	-0.771240	0.314697	0.322998	0.299772	-0.609266	-0.473619	-0.560907
23241		9.445068	1.575079	-1.884454	-0.002306	0.000677	-0.000489	-0.774902	0.315186	0.320801	0.299827	-0.609258	-0.473599	-0.560904
23242		9.445546	1.633664	-1.912840	0.001130	-0.001783	-0.001889	-0.772705	0.318359	0.329346	0.299907	-0.609219	-0.473627	-0.560880
23243		9.459453	1.616987	-1.874327	0.004360	0.000336	-0.004543	-0.777588	0.322021	0.332031	0.299951	-0.609236	-0.473664	-0.560806
23244		9.441523	1.583021	-1.831875	0.002400	0.000144	-0.004124	-0.776123	0.315186	0.328125	0.299982	-0.609287	-0.473670	-0.560729
23245		9.458080	1.603649	-1.851359	0.003607	-0.000729	-0.002890	-0.778320	0.309814	0.323486	0.300011	-0.609286	-0.473707	-0.560682
23246		9.448441	1.637371	-1.904304	0.006740	0.002732	-0.002875	-0.780518	0.317139	0.324219	0.300080	-0.609173	-0.473783	-0.560704
23247		9.437803	1.634541	-1.857446	0.002331	0.001670	-0.004543	-0.779297	0.309814	0.324219	0.300155	-0.609105	-0.473814	-0.560712
23248		9.444778	1.616037	-1.836914	-0.001316	-0.002653	-0.003976	-0.771973	0.304932	0.330811	0.300108	-0.609057	-0.473864	-0.560748
23249		9.463053	1.586450	-1.872708	-0.001551	-0.005019	-0.000960	-0.767822	0.312256	0.319580	0.299950	-0.609125	-0.473903	-0.560725
23250		9.469748	1.589227	-1.855171	-0.002209	-0.000667	-0.003158	-0.774658	0.306641	0.332275	0.300026	-0.609076	-0.473913	-0.560729
23251		9.427985	1.605720	-1.830489	0.000197	0.001913	-0.004578	-0.779785	0.306152	0.320557	0.299892	-0.609085	-0.473952	-0.560758
23252		9.435668	1.645743	-1.912024	0.005840	-0.002312	-0.005527	-0.773438	0.310547	0.328125	0.299914	-0.608920	-0.474084	-0.560814
23253		9.458747	1.639591	-1.899701	-0.001966	-0.002626	-0.002286	-0.766113	0.302734	0.321289	0.299854	-0.608962	-0.474092	-0.560794
23254		9.444442	1.584826	-1.846551	-0.003651	-0.006758	-0.002139	-0.772217	0.311768	0.326416	0.299754	-0.608958	-0.474143	-0.560808
23255		9.454402	1.588816	-1.820872	-0.000417	-0.006801	-0.002852	-0.770508	0.312988	0.318115	0.299727	-0.609010	-0.474176	-0.560738
23256		9.454321	1.618615	-1.836069	0.000683	-0.002006	-0.002835	-0.780518	0.305908	0.330566	0.299894	-0.608915	-0.474217	-0.560718
23257		9.465630	1.637252	-1.832198	0.002990	0.001916	-0.001584	-0.780029	0.318604	0.326904	0.299792	-0.608880	-0.474255	-0.560778
23258		9.460202	1.607230	-1.868448	-0.001385	-0.001127	-0.004395	-0.777100	0.309082	0.327881	0.299882	-0.608866	-0.474256	-0.560745
23259		9.451889	1.612891	-1.940194	-0.006092	-0.005195	-0.001520	-0.780029	0.305664	0.324951	0.299765	-0.608911	-0.474244	-0.560768
23260		9.456543	1.585886	-1.876199	-0.000313	-0.001112	-0.002053	-0.779785	0.299316	0.321289	0.299706	-0.608825	-0.474292	-0.560853
23261		9.439401	1.588318	-1.859750	0.008180	-0.000367	-0.005424	-0.773682	0.312500	0.329346	0.299650	-0.608602	-0.474455	-0.560986
23262		9.440912	1.640384	-1.909423	0.005126	-0.002921	-0.002314	-0.782715	0.307861	0.326660	0.299668	-0.608661	-0.474489	-0.560885
23263		9.452936	1.644682	-1.915099	-0.000725	-0.000882	-0.001435	-0.776367	0.313721	0.326416	0.299623	-0.608598	-0.474519	-0.560951
23264		9.483652	1.597351	-1.879054	-0.003519	-0.000886	-0.004429	-0.773438	0.309082	0.329590	0.299645	-0.608599	-0.474518	-0.560939
23265		9.449029	1.565393	-1.893397	0.003365	0.001233	-0.003766	-0.780518	0.312744	0.325928	0.299599	-0.608622	-0.474547	-0.560915
23266		9.433784	1.568214	-1.909070	0.010803	0.000073	-0.002886	-0.779785	0.307129	0.323242	0.299742	-0.608529	-0.474643	-0.560858
23267		9.452544	1.646902	-1.915128	0.006467	0.004513	-0.000664	-0.775879	0.317871	0.327881	0.299837	-0.608377	-0.474703	-0.560921
23268		9.449979	1.660981	-1.873038	0.003534	0.002962	-0.005258	-0.778320	0.311523	0.329834	0.299978	-0.608375	-0.474720	-0.560833
23269		9.469147	1.617312	-1.842663	0.003398	0.003851	-0.004150	-0.779541	0.315918	0.327637	0.299974	-0.608361	-0.474748	-0.560827
23270		9.466280	1.573545	-1.846093	0.003643	0.001892	-0.003277	-0.772217	0.313232	0.319824	0.300085	-0.608339	-0.474768	-0.560774
23271		9.460053	1.608353	-1.889728	0.001442	0.001494	-0.001784	-0.778076	0.311279	0.332275	0.300274	-0.608259	-0.474777	-0.560752
23272		9.435105	1.644306	-1.883883	0.000439	0.004550	-0.002947	-0.767578	0.311035	0.324951	0.300211	-0.608300	-0.474769	-0.560749
23273		9.441896	1.617861	-1.850773	0.000444	0.002388	-0.001002	-0.774414	0.317627	0.322021	0.300271	-0.608335	-0.474746	-0.560697
23274		9.459703	1.602397	-1.876055	-0.000626	0.002372	-0.003345	-0.774902	0.307373	0.333008	0.300475	-0.608287	-0.474730	-0.560655
23275		9.469007	1.613142	-1.901201	0.006020	0.004291	-0.001610	-0.767822	0.314453	0.329102	0.300371	-0.608338	-0.474760	-0.560629
23276		9.439957	1.611126	-1.878547	0.005572	0.004067	-0.002555	-0.777100	0.310791	0.321289	0.300454	-0.608416	-0.474755	-0.560504
23277		9.438673	1.618532	-1.857109	0.005364	0.004046	-0.004573	-0.769775	0.307861	0.326660	0.300581	-0.608264	-0.474817	-0.560549
23278		9.441061	1.627097	-1.900426	0.005058	0.003205	-0.001973	-0.777100	0.309570	0.324219	0.300571	-0.608272	-0.474845	-0.560522
23279		9.451739	1.609016	-1.870384	0.002202	0.000398	-0.001494	-0.777832	0.309082	0.327393	0.300597	-0.608222	-0.474875	-0.560537
23280		9.462831	1.598614	-1.852248	-0.002619	-0.000441	-0.002541	-0.780762	0.314453	0.327148	0.300510	-0.608234	-0.474878	-0.560567
23281		9.463562	1.585199	-1.861075	0.001750	0.002336	-0.004386	-0.774902	0.312256	0.326904	0.300564	-0.608199	-0.474897	-0.560561
23282		9.469466	1.594976	-1.894944	0.001956	0.006955	-0.001610	-0.772461	0.306885	0.333008	0.300632	-0.608180	-0.474876	-0.560563
23283		9.451569	1.633052	-1.870173	-0.003794	0.005483	-0.001456	-0.769775	0.306152	0.332764	0.300446	-0.608286	-0.474828	-0.560588
23284		9.427858	1.632954	-1.870357	-0.001588	0.003719	-0.001003	-0.772949	0.311523	0.322510	0.300265	-0.608413	-0.474794	-0.560576
23285		9.424656	1.610802	-1.876680	-0.001309	-0.002656	-0.003977	-0.780518	0.312256	0.317871	0.300305	-0.608397	-0.474812	-0.560556
23286		9.470599	1.590350	-1.839724	-0.011290	-0.005359	-0.000382	-0.772461	0.310547	0.326416	0.300370	-0.608327	-0.474770	-0.560633
23287		9.487221	1.589033	-1.782823	-0.005202	0.002008	-0.000815	-0.768311	0.312500	0.328613	0.300343	-0.608377	-0.474713	-0.560641
23288		9.457873	1.580019	-1.822149	0.003092	0.005175	-0.003499	-0.781006	0.316162	0.323975	0.300376	-0.608438	-0.474693	-0.560575
23289		9.461542	1.632501	-1.902706	-0.006130	0.001375	0.000386	-0.778076	0.304932	0.320557	0.300483	-0.608424	-0.474613	-0.560600
23290		9.449026	1.650726	-1.899680	-0.000726	0.001280	-0.003383	-0.776855	0.302246	0.326904	0.300469	-0.608276	-0.474667	-0.560722
23291		9.433158	1.566799	-1.872713	0.002099	-0.000964	-0.006183	-0.783203	0.313965	0.328613	0.300287	-0.608221	-0.474762	-0.560799
23292		9.456597	1.539095	-1.857695	0.004960	-0.002482	-0.002766	-0.780029	0.313477	0.327637	0.300320	-0.608225	-0.474807	-0.560740
23293		9.487291	1.622114	-1.869316	0.002993	0.001921	-0.001587	-0.781982	0.316406	0.322510	0.300382	-0.608219	-0.474809	-0.560711
23294		9.455019	1.677266	-1.884634	0.004681	0.001457	-0.002497	-0.774658	0.312500	0.327148	0.300576	-0.608128	-0.474829	-0.560689
23295		9.456000	1.612750	-1.876573	0.000926	0.002797	-0.003150	-0.774902	0.316162	0.324951	0.300602	-0.608144	-0.474823	-0.560662
23296		9.438742	1.586300	-1.845302	-0.004786	-0.000658	-0.004141	-0.782959	0.305908	0.334717	0.300651	-0.608186	-0.474782	-0.560626
23297		9.451271	1.598689	-1.862084	0.003271	0.000145	-0.003804	-0.769775	0.318359	0.321045	0.300453	-0.608213	-0.474858	-0.560638
23298		9.443447	1.611014	-1.871344	0.000759	-0.001097	0.000292	-0.774658	0.315430	0.323730	0.300669	-0.608259	-0.474800	-0.560521
23299		9.442969	1.632737	-1.874570	0.002656	-0.003973	-0.001308	-0.777832	0.317627	0.326904	0.300776	-0.608291	-0.474805	-0.560424
23300		9.449513	1.635725	-1.857529	0.004619	-0.004049	-0.006384	-0.779053	0.307861	0.325439	0.300847	-0.608316	-0.474858	-0.560315
23301		9.473746	1.593866	-1.851849	0.000691	-0.002005	-0.002836	-0.771484	0.312500	0.327393	0.300789	-0.608281	-0.474904	-0.560345
23302		9.453474	1.573351	-1.842057	0.004891	-0.000955	-0.003188	-0.780029	0.313721	0.325684	0.300819	-0.608326	-0.474940	-0.560250
23303		9.452519	1.617154	-1.848152	0.006207	-0.005331	-0.002676	-0.771729	0.309082	0.324707	0.300874	-0.608321	-0.475005	-0.560171
23304		9.464000	1.643222	-1.857328	0.003384	-0.005523	-0.002581	-0.770752	0.316406	0.329590	0.300852	-0.608349	-0.475061	-0.560104
23305		9.453597	1.619019	-1.883272	0.001970	-0.004674	-0.005837	-0.778809	0.313477	0.329102	0.300849	-0.608464	-0.475089	-0.559957
23306		9.453077	1.591006	-1.870033	0.002794	-0.002697	-0.004367	-0.781982	0.305908	0.319580	0.300833	-0.608487	-0.475135	-0.559901
23307		9.452899	1.620902	-1.885153	0.004416	-0.003797	-0.003750	-0.771240	0.309814	0.325195	0.300839	-0.608334	-0.475234	-0.559980
23308		9.450013	1.606175	-1.904137	0.003931	-0.002042	-0.003552	-0.771484	0.305664	0.333740	0.300844	-0.608341	-0.475284	-0.559928
23309		9.449787	1.606933	-1.904619	-0.002305	-0.001765	-0.003196	-0.779297	0.312500	0.332520	0.300628	-0.608457	-0.475307	-0.559899
23310		9.436839	1.596342	-1.888531	-0.001058	-0.004615	-0.003104	-0.784668	0.308105	0.328369	0.300526	-0.608550	-0.475326	-0.559836
23311		9.463753	1.598841	-1.879501	-0.000673	-0.007462	-0.003339	-0.775879	0.310791	0.322754	0.300406	-0.608542	-0.475399	-0.559847
23312		9.456459	1.597368	-1.898895	-0.000957	-0.003523	-0.003070	-0.783203	0.318604	0.323975	0.300427	-0.608516	-0.475418	-0.559848
23313		9.454110	1.619078	-1.869426	-0.002757	0.000444	-0.001433	-0.785156	0.313965	0.325684	0.300554	-0.608491	-0.475361	-0.559855
23314		9.457616	1.650195	-1.874115	-0.006722	0.001759	-0.004102	-0.770996	0.320801	0.328125	0.300550	-0.608438	-0.475323	-0.559947
23315		9.440530	1.624046	-1.916772	-0.004127	-0.002849	-0.003884	-0.773438	0.310059	0.325195	0.300613	-0.608567	-0.475263	-0.559824
23316		9.443448	1.568082	-1.879958	-0.002264	-0.003744	-0.004342	-0.769287	0.311523	0.325684	0.300566	-0.608584	-0.475284	-0.559813
23317		9.465709	1.547627	-1.843550	-0.006106	0.003714	-0.004651	-0.780518	0.314941	0.330322	0.300551	-0.608600	-0.475238	-0.559842
23318		9.453402	1.624387	-1.868402	0.001643	0.003682	-0.001716	-0.779297	0.309326	0.330078	0.300603	-0.608602	-0.475228	-0.559822
23319		9.462339	1.656699	-1.895960	0.002331	0.004112	-0.001845	-0.791016	0.313232	0.319580	0.300590	-0.608570	-0.475252	-0.559842
23320		9.459786	1.642233	-1.913109	-0.007653	0.003288	-0.004850	-0.776367	0.304932	0.331055	0.300625	-0.608412	-0.475201	-0.560039
23321		9.440020	1.600893	-1.899550	-0.001793	0.001263	-0.005732	-0.778564	0.312012	0.327637	0.300471	-0.608404	-0.475258	-0.560082
23322		9.436220	1.542917	-1.879876	0.003681	0.002085	-0.006378	-0.777344	0.312256	0.328369	0.300490	-0.608355	-0.475311	-0.560080
23323		9.461934	1.632212	-1.879279	0.005469	0.002986	-0.002596	-0.776123	0.311768	0.332275	0.300550	-0.608333	-0.475343	-0.560044
23324		9.444722	1.685316	-1.878393	0.000090	0.005420	-0.003864	-0.775146	0.311035	0.322266	0.300529	-0.608350	-0.475347	-0.560034
23325		9.437260	1.647553	-1.869745	0.000719	0.002778	-0.005174	-0.776611	0.308594	0.324219	0.300581	-0.608279	-0.475359	-0.560073
23326		9.476325	1.588946	-1.897125	-0.004454	0.005232	-0.004423	-0.780762	0.308838	0.337646	0.300561	-0.608214	-0.475340	-0.560170
23327		9.450644	1.588664	-1.865214	0.003060	0.002564	-0.003120	-0.768799	0.320312	0.321533	0.300461	-0.608254	-0.475402	-0.560128
23328		9.441738	1.636845	-1.866845	0.003840	0.006520	-0.000504	-0.773193	0.311523	0.328369	0.300711	-0.608260	-0.475319	-0.560058
23329		9.432341	1.648521	-1.842201	0.001226	0.006076	-0.003050	-0.776611	0.308838	0.330078	0.300743	-0.608252	-0.475313	-0.560054
23330		9.456814	1.599279	-1.896901	0.004133	0.002312	-0.005434	-0.776855	0.309570	0.331787	0.300707	-0.608227	-0.475385	-0.560040
23331		9.466168	1.588437	-1.845924	0.004642	0.003446	-0.001358	-0.775635	0.317627	0.330566	0.300704	-0.608234	-0.475423	-0.560001
23332		9.452289	1.613108	-1.822134	0.006333	0.002986	-0.002270	-0.774658	0.309326	0.321777	0.300805	-0.608277	-0.475424	-0.559900
23333		9.441126	1.623960	-1.840029	0.009677	0.001882	-0.000999	-0.771484	0.308594	0.327393	0.300924	-0.608197	-0.475479	-0.559876
23334		9.461205	1.645346	-1.849827	0.001027	0.003891	-0.003122	-0.774170	0.309814	0.324951	0.300914	-0.608190	-0.475494	-0.559876
23335		9.478176	1.644430	-1.866028	-0.004062	0.000219	-0.002708	-0.776855	0.306396	0.326172	0.300880	-0.608199	-0.475476	-0.559900
23336		9.438508	1.610271	-1.857016	-0.001065	-0.000018	-0.002348	-0.779541	0.311768	0.328369	0.300823	-0.608176	-0.475504	-0.559932
23337		9.422071	1.590971	-1.911540	-0.000750	-0.001339	-0.003002	-0.777344	0.310547	0.326172	0.300792	-0.608194	-0.475516	-0.559919
23338		9.448798	1.614862	-1.904148	0.001490	-0.002645	-0.000981	-0.778564	0.304443	0.318359	0.300793	-0.608210	-0.475535	-0.559884
23339		9.444490	1.635760	-1.842606	-0.000577	-0.001772	-0.002546	-0.776855	0.312012	0.327148	0.300786	-0.608104	-0.475579	-0.559966
23340		9.477396	1.618069	-1.852997	-0.000619	0.000208	-0.001402	-0.774658	0.302246	0.327881	0.300792	-0.608127	-0.475566	-0.559949
23341		9.468229	1.579032	-1.887186	0.001117	-0.004396	-0.001506	-0.779297	0.312988	0.325439	0.300673	-0.608142	-0.475636	-0.559936
23342		9.434166	1.611800	-1.868347	-0.001894	0.000439	-0.001109	-0.775391	0.307617	0.328369	0.300703	-0.608144	-0.475608	-0.559943
23343		9.455296	1.655604	-1.839719	-0.002855	-0.000651	-0.001470	-0.779053	0.310547	0.331543	0.300630	-0.608177	-0.475605	-0.559949
23344		9.465246	1.623152	-1.860356	0.000726	0.000615	-0.003226	-0.779297	0.315430	0.323730	0.300581	-0.608201	-0.475626	-0.559932
23345		9.461168	1.586557	-1.843131	-0.000311	0.003215	-0.005960	-0.774170	0.312988	0.329834	0.300646	-0.608146	-0.475617	-0.559964
23346		9.436772	1.608278	-1.847051	-0.000715	-0.003049	0.000516	-0.781006	0.304688	0.337158	0.300632	-0.608248	-0.475590	-0.559883
23347		9.444388	1.625355	-1.853364	0.001537	-0.006788	-0.000174	-0.776855	0.310791	0.325684	0.300463	-0.608339	-0.475670	-0.559808
23348		9.474796	1.628711	-1.835244	-0.000634	-0.004844	-0.003726	-0.777100	0.315674	0.329834	0.300432	-0.608358	-0.475696	-0.559781
23349		9.463689	1.618924	-1.851438	0.000423	-0.000498	-0.005282	-0.772705	0.309326	0.330322	0.300429	-0.608397	-0.475695	-0.559740
23350		9.451382	1.644985	-1.860583	0.002002	0.000384	-0.003519	-0.770752	0.306641	0.322021	0.300396	-0.608426	-0.475723	-0.559704
23351		9.440870	1.612948	-1.873837	-0.000645	-0.002410	-0.001016	-0.767090	0.318604	0.325195	0.300397	-0.608419	-0.475733	-0.559702
23352		9.437151	1.583400	-1.869262	0.001773	-0.002254	-0.005155	-0.770996	0.316650	0.330811	0.300463	-0.608498	-0.475705	-0.559605
23353		9.477939	1.612279	-1.898760	0.002746	0.003887	-0.002469	-0.783936	0.316650	0.333252	0.300522	-0.608560	-0.475665	-0.559540
23354		9.452411	1.640422	-1.881029	0.007492	0.006265	-0.001843	-0.780518	0.305420	0.331787	0.300613	-0.608537	-0.475673	-0.559508
23355		9.461140	1.614448	-1.880608	0.006450	-0.000515	-0.002997	-0.773682	0.307373	0.327637	0.300570	-0.608494	-0.475783	-0.559484
23356		9.432139	1.591003	-1.856991	0.000818	-0.005509	-0.003563	-0.773682	0.312256	0.329590	0.300500	-0.608522	-0.475842	-0.559441
23357		9.450038	1.641231	-1.850141	-0.001332	-0.002842	-0.000886	-0.781006	0.311035	0.323975	0.300472	-0.608602	-0.475820	-0.559388
23358		9.456826	1.643911	-1.832169	0.002548	0.001703	-0.002540	-0.780518	0.317383	0.331299	0.300528	-0.608530	-0.475840	-0.559420
23359		9.471234	1.627450	-1.866742	0.004755	0.002109	-0.004039	-0.776611	0.305908	0.327881	0.300580	-0.608540	-0.475846	-0.559376
23360		9.438217	1.588152	-1.901981	-0.000258	-0.003093	-0.003201	-0.774414	0.305908	0.317139	0.300508	-0.608532	-0.475903	-0.559375
23361		9.450123	1.592715	-1.907985	-0.002806	-0.004796	-0.000661	-0.774414	0.311035	0.331299	0.300516	-0.608487	-0.475913	-0.559412
23362		9.463213	1.590374	-1.860770	0.002077	-0.001141	-0.003100	-0.778564	0.302490	0.329590	0.300485	-0.608530	-0.475936	-0.559361
23363		9.458689	1.604008	-1.861204	0.007728	-0.000743	-0.003293	-0.775879	0.304932	0.329590	0.300448	-0.608460	-0.476063	-0.559349
23364		9.442506	1.620947	-1.867969	-0.000203	-0.000021	-0.002022	-0.780518	0.312744	0.336426	0.300382	-0.608453	-0.476097	-0.559362
23365		9.444639	1.600401	-1.897992	0.000015	-0.002434	-0.002711	-0.770996	0.313721	0.328857	0.300303	-0.608535	-0.476106	-0.559308
23366		9.444353	1.601002	-1.898907	0.003919	-0.004649	-0.003171	-0.765137	0.309570	0.327393	0.300306	-0.608612	-0.476123	-0.559209
23367		9.445108	1.594759	-1.847376	0.003722	-0.006834	-0.003240	-0.782715	0.308594	0.321045	0.300273	-0.608698	-0.476161	-0.559101
23368		9.479330	1.606959	-1.832200	0.000897	-0.007033	-0.003143	-0.776367	0.310303	0.324707	0.300279	-0.608635	-0.476231	-0.559106
23369		9.471678	1.627041	-1.853846	0.000628	-0.000477	-0.003263	-0.772705	0.312500	0.328857	0.300297	-0.608604	-0.476248	-0.559116
23370		9.429921	1.613974	-1.889136	0.001633	-0.001366	-0.004048	-0.777100	0.308594	0.327148	0.300290	-0.608640	-0.476256	-0.559074
23371		9.432690	1.608488	-1.868905	0.004632	-0.001599	-0.003690	-0.772705	0.318848	0.326416	0.300297	-0.608605	-0.476320	-0.559053
23372		9.440548	1.633968	-1.886897	0.001973	-0.007284	-0.005461	-0.781738	0.319092	0.326904	0.300315	-0.608687	-0.476324	-0.558951
23373		9.484388	1.635146	-1.894685	-0.001041	-0.004617	-0.003107	-0.770996	0.308594	0.322510	0.300343	-0.608731	-0.476299	-0.558910
23374		9.430695	1.625364	-1.863058	-0.000475	-0.000681	-0.002513	-0.774414	0.314209	0.330322	0.300358	-0.608711	-0.476300	-0.558922
23375		9.430831	1.604469	-1.861465	-0.000919	-0.008121	-0.003832	-0.771484	0.312256	0.324707	0.300296	-0.608810	-0.476313	-0.558837
23376		9.455563	1.599000	-1.882730	-0.001402	-0.008531	-0.001679	-0.776855	0.309326	0.325439	0.300274	-0.608887	-0.476310	-0.558768
23377		9.477342	1.628448	-1.864451	-0.000785	-0.001524	0.000095	-0.773438	0.312012	0.327881	0.300287	-0.608882	-0.476303	-0.558773
23378		9.470323	1.626560	-1.882749	0.000454	-0.000044	-0.003720	-0.776611	0.312012	0.320557	0.300289	-0.608889	-0.476305	-0.558761
23379		9.431500	1.607404	-1.897440	0.002368	-0.002913	-0.005326	-0.773193	0.318115	0.332275	0.300338	-0.608828	-0.476349	-0.558764
23380		9.432647	1.601308	-1.918514	0.003309	0.000611	-0.002253	-0.768555	0.314941	0.329590	0.300389	-0.608893	-0.476326	-0.558685
23381		9.424765	1.584599	-1.913453	0.004315	-0.000277	-0.003039	-0.775146	0.307617	0.322998	0.300429	-0.608944	-0.476327	-0.558608
23382		9.438714	1.626417	-1.903859	0.006132	-0.004238	-0.004679	-0.777344	0.312500	0.331543	0.300448	-0.608885	-0.476420	-0.558582
23383		9.451022	1.609414	-1.907513	0.005572	-0.003123	-0.002948	-0.780273	0.313477	0.322754	0.300453	-0.608907	-0.476473	-0.558511
23384		9.448537	1.602062	-1.864354	-0.002218	-0.003296	-0.002778	-0.777588	0.320801	0.329834	0.300472	-0.608887	-0.476468	-0.558527
23385		9.448300	1.602703	-1.865004	0.000879	-0.002435	-0.002388	-0.774414	0.314697	0.325195	0.300522	-0.608951	-0.476438	-0.558455
23386		9.440659	1.622752	-1.886317	0.006842	-0.001188	-0.005199	-0.775391	0.312744	0.320557	0.300593	-0.608920	-0.476490	-0.558407
23387		9.436093	1.636493	-1.886725	0.001248	-0.000683	-0.001863	-0.774902	0.316406	0.321045	0.300663	-0.608882	-0.476483	-0.558416
23388		9.439794	1.645635	-1.889751	-0.004182	-0.003499	-0.002352	-0.778564	0.309814	0.328369	0.300695	-0.608903	-0.476436	-0.558416
23389		9.449572	1.613408	-1.911317	-0.001308	-0.005276	-0.003599	-0.782227	0.309814	0.321045	0.300631	-0.608919	-0.476470	-0.558404
23390		9.472358	1.571180	-1.873170	0.001461	-0.000932	-0.004508	-0.777832	0.320068	0.326172	0.300656	-0.608827	-0.476510	-0.558457
23391		9.456144	1.588306	-1.879644	0.004094	0.002137	-0.002351	-0.774414	0.313477	0.330322	0.300781	-0.608810	-0.476499	-0.558417
23392		9.440331	1.641434	-1.912165	0.006388	-0.001142	-0.001479	-0.774902	0.307373	0.323730	0.300831	-0.608828	-0.476537	-0.558339
23393		9.428525	1.616105	-1.904819	0.003185	-0.000934	-0.003858	-0.776123	0.309570	0.330811	0.300833	-0.608775	-0.476585	-0.558354
23394		9.439661	1.606047	-1.886926	-0.000474	-0.000681	-0.002514	-0.774658	0.303223	0.325928	0.300791	-0.608790	-0.476598	-0.558349
23395		9.452099	1.618009	-1.903975	0.002527	-0.000911	-0.002160	-0.771729	0.312988	0.326904	0.300754	-0.608750	-0.476645	-0.558372
23396		9.435920	1.634761	-1.910552	0.001617	0.001069	-0.001339	-0.774902	0.305908	0.332520	0.300799	-0.608761	-0.476633	-0.558347
23397		9.440277	1.593033	-1.896443	0.000020	-0.002434	-0.002714	-0.768311	0.313965	0.328613	0.300707	-0.608790	-0.476666	-0.558336
23398		9.455608	1.598980	-1.893330	-0.000347	-0.004185	-0.003239	-0.776123	0.304443	0.331543	0.300688	-0.608864	-0.476664	-0.558268
23399		9.470088	1.619067	-1.880917	0.000659	-0.000022	-0.001699	-0.771973	0.310791	0.324707	0.300621	-0.608860	-0.476692	-0.558284
23400		9.447103	1.604611	-1.891003	0.000232	0.002367	-0.003033	-0.786865	0.309570	0.332764	0.300652	-0.608830	-0.476686	-0.558305
23401		9.430964	1.592709	-1.883188	0.004464	-0.001161	-0.004155	-0.771240	0.316650	0.323486	0.300625	-0.608785	-0.476762	-0.558304
23402		9.466771	1.627128	-1.901421	-0.001210	0.000865	-0.001238	-0.777832	0.311523	0.330078	0.300701	-0.608800	-0.476716	-0.558287
23403		9.441097	1.626348	-1.870164	-0.001655	0.000638	-0.002184	-0.775146	0.308838	0.333252	0.300681	-0.608807	-0.476704	-0.558299
23404		9.437956	1.604300	-1.876902	-0.001381	-0.003752	-0.004021	-0.780762	0.314209	0.338379	0.300582	-0.608857	-0.476728	-0.558277
23405		9.450463	1.558442	-1.865783	-0.000569	-0.001773	-0.002550	-0.776611	0.312256	0.335938	0.300521	-0.608925	-0.476729	-0.558235
23406		9.470104	1.609424	-1.890582	0.002692	0.000820	-0.003660	-0.771729	0.312988	0.337646	0.300495	-0.608951	-0.476752	-0.558202
23407		9.444738	1.645350	-1.885047	0.000328	0.003460	-0.002999	-0.777100	0.307373	0.325439	0.300464	-0.609006	-0.476730	-0.558178
23408		9.435076	1.657394	-1.935389	0.000264	-0.002228	-0.003793	-0.777100	0.310547	0.329102	0.300439	-0.608970	-0.476769	-0.558197
23409		9.444653	1.588812	-1.930618	0.001368	-0.002023	-0.004545	-0.778076	0.318115	0.337158	0.300414	-0.608961	-0.476807	-0.558187
23410		9.451492	1.563035	-1.898432	0.001831	0.000821	-0.003986	-0.774658	0.303467	0.337402	0.300411	-0.609013	-0.476801	-0.558138
23411		9.444560	1.627086	-1.882999	0.004832	0.000593	-0.003632	-0.778320	0.308594	0.331543	0.300342	-0.609006	-0.476877	-0.558117
23412		9.445161	1.671396	-1.920691	0.005452	0.000388	-0.002229	-0.773926	0.311768	0.332520	0.300355	-0.608979	-0.476928	-0.558096
23413		9.434003	1.624534	-1.910195	-0.001412	0.000843	-0.003263	-0.769531	0.315186	0.326416	0.300320	-0.609010	-0.476911	-0.558096
23414		9.453060	1.602809	-1.882843	-0.005022	-0.000887	-0.003064	-0.768555	0.316650	0.328125	0.300304	-0.609066	-0.476846	-0.558098
23415		9.452960	1.603589	-1.882679	0.001685	0.001708	-0.002875	-0.778320	0.313232	0.337891	0.300352	-0.609102	-0.476808	-0.558066
23416		9.449985	1.610314	-1.902585	0.000277	0.005439	-0.001854	-0.778809	0.306152	0.324951	0.300346	-0.609120	-0.476778	-0.558076
23417		9.431540	1.611687	-1.925837	0.001652	0.006304	-0.002116	-0.781006	0.315186	0.324463	0.300396	-0.609010	-0.476795	-0.558154
23418		9.443863	1.616251	-1.929708	0.002661	0.005418	-0.002904	-0.781006	0.303711	0.333740	0.300491	-0.608933	-0.476784	-0.558196
23419		9.426545	1.611171	-1.900395	0.005957	0.003417	-0.004774	-0.780029	0.307617	0.339355	0.300471	-0.608846	-0.476877	-0.558222
23420		9.446117	1.596678	-1.884300	0.005027	0.002780	-0.003565	-0.779541	0.304688	0.326660	0.300435	-0.608832	-0.476934	-0.558209
23421		9.449071	1.619778	-1.877448	0.004985	0.002597	-0.000462	-0.777588	0.320557	0.330322	0.300481	-0.608751	-0.476982	-0.558231
23422		9.448946	1.649133	-1.891453	-0.003202	0.000204	-0.002380	-0.778076	0.305176	0.330322	0.300494	-0.608814	-0.476910	-0.558217
23423		9.446725	1.641865	-1.847010	-0.006081	0.001977	-0.001133	-0.780762	0.312012	0.324463	0.300426	-0.608806	-0.476881	-0.558286
23424		9.458231	1.631661	-1.901666	-0.002401	0.004346	-0.002867	-0.777588	0.318359	0.331299	0.300459	-0.608745	-0.476854	-0.558358
23425		9.443285	1.605341	-1.901908	0.001462	0.004121	-0.002186	-0.774658	0.304199	0.327393	0.300515	-0.608759	-0.476810	-0.558350
23426		9.436079	1.596186	-1.907312	-0.001713	0.004779	-0.002999	-0.782227	0.305176	0.325195	0.300493	-0.608701	-0.476811	-0.558425
23427		9.437350	1.619190	-1.867138	0.000202	0.006965	-0.002280	-0.775635	0.308838	0.330566	0.300526	-0.608585	-0.476823	-0.558524
23428		9.442703	1.621282	-1.889555	0.002897	0.000845	-0.001636	-0.773682	0.312012	0.330078	0.300528	-0.608585	-0.476835	-0.558512
23429		9.455429	1.604107	-1.891574	0.002568	0.004327	-0.002940	-0.766846	0.306152	0.326416	0.300558	-0.608574	-0.476823	-0.558518
23430		9.459180	1.576845	-1.866846	0.000716	0.007831	-0.002870	-0.776611	0.321045	0.330322	0.300580	-0.608530	-0.476796	-0.558577
23431		9.441687	1.629847	-1.865535	0.001116	0.004987	-0.003102	-0.778320	0.305664	0.326660	0.300646	-0.608549	-0.476737	-0.558571
23432		9.454883	1.620401	-1.878682	0.000160	0.003894	-0.003462	-0.778564	0.309570	0.336914	0.300642	-0.608479	-0.476756	-0.558633
23433		9.431578	1.598595	-1.876814	-0.000103	0.001071	-0.001993	-0.770752	0.306641	0.330078	0.300587	-0.608516	-0.476747	-0.558630
23434		9.435368	1.607604	-1.879410	-0.001400	-0.001321	-0.001307	-0.774170	0.312744	0.329834	0.300533	-0.608561	-0.476731	-0.558624
23435		9.465145	1.596713	-1.836671	-0.002538	0.000182	-0.004083	-0.778076	0.311523	0.326660	0.300493	-0.608595	-0.476701	-0.558635
23436		9.468541	1.598736	-1.827115	0.001882	0.003895	-0.002810	-0.779541	0.310791	0.331299	0.300537	-0.608550	-0.476698	-0.558663
23437		9.454715	1.623720	-1.876665	0.002223	0.005194	-0.003855	-0.779053	0.314697	0.327148	0.300553	-0.608507	-0.476702	-0.558697
23438		9.436964	1.640245	-1.923859	0.001935	0.001916	-0.003955	-0.777832	0.311279	0.328125	0.300587	-0.608484	-0.476700	-0.558705
23439		9.431197	1.631762	-1.888790	0.004596	0.000393	-0.002553	-0.776611	0.314697	0.327881	0.300620	-0.608466	-0.476726	-0.558685
23440		9.438698	1.583871	-1.853795	0.003735	0.000393	-0.002879	-0.779785	0.315430	0.330566	0.300658	-0.608470	-0.476727	-0.558659
23441		9.451031	1.625144	-1.884694	0.001762	0.002348	-0.004414	-0.774658	0.318848	0.322021	0.300673	-0.608462	-0.476722	-0.558664
23442		9.467465	1.645753	-1.903575	0.008574	0.003882	-0.002229	-0.776367	0.316895	0.328857	0.300820	-0.608424	-0.476717	-0.558631
23443		9.454947	1.634399	-1.886423	0.004449	0.001281	-0.001442	-0.778564	0.307861	0.330811	0.300880	-0.608445	-0.476698	-0.558592
23444		9.445907	1.624401	-1.859854	0.000282	0.005441	-0.001863	-0.769775	0.315430	0.324463	0.300885	-0.608406	-0.476690	-0.558639
23445		9.439214	1.622546	-1.876612	0.001903	0.006514	-0.003205	-0.775879	0.310791	0.326416	0.300955	-0.608387	-0.476640	-0.558664
23446		9.433084	1.598856	-1.890947	0.004049	0.004126	-0.001213	-0.779785	0.308594	0.324707	0.301015	-0.608352	-0.476637	-0.558673
23447		9.455529	1.635695	-1.882380	0.000115	0.003711	-0.000360	-0.773193	0.307129	0.326172	0.301052	-0.608303	-0.476623	-0.558718
23448		9.454647	1.650123	-1.872648	-0.001530	0.002183	-0.000588	-0.777344	0.310791	0.339111	0.301045	-0.608300	-0.476595	-0.558748
23449		9.435604	1.578584	-1.844476	0.001120	0.004988	-0.003107	-0.770752	0.307129	0.323486	0.301008	-0.608321	-0.476578	-0.558761
23450		9.447357	1.575714	-1.837427	0.007010	0.000831	-0.002032	-0.778076	0.310059	0.323975	0.301062	-0.608282	-0.476622	-0.558736
23451		9.470094	1.619867	-1.841220	0.002333	0.001962	0.000096	-0.769775	0.311279	0.332520	0.301116	-0.608251	-0.476616	-0.558745
23452		9.448638	1.634850	-1.824333	0.000049	0.000183	-0.003106	-0.776123	0.304932	0.326660	0.301068	-0.608313	-0.476587	-0.558730
23453		9.449950	1.628674	-1.844981	-0.002607	-0.000459	-0.002549	-0.776611	0.304199	0.326172	0.301016	-0.608300	-0.476593	-0.558766
23454		9.456691	1.595080	-1.874701	-0.001154	-0.001117	-0.002386	-0.774658	0.308350	0.332031	0.300973	-0.608280	-0.476616	-0.558792
23455		9.446824	1.606973	-1.851783	-0.000119	-0.001548	-0.001602	-0.780029	0.316895	0.328613	0.300919	-0.608328	-0.476603	-0.558780
23456		9.443272	1.606084	-1.861195	-0.003194	-0.001963	-0.000423	-0.773682	0.307617	0.324219	0.300908	-0.608391	-0.476541	-0.558769
23457		9.437490	1.626453	-1.914748	0.001383	-0.002022	-0.004546	-0.774902	0.309326	0.330566	0.300887	-0.608372	-0.476579	-0.558770
23458		9.434901	1.619193	-1.871793	0.002500	-0.006142	-0.001374	-0.773438	0.324707	0.325684	0.300841	-0.608437	-0.476598	-0.558707
23459		9.452390	1.603964	-1.824761	-0.004497	-0.002193	-0.001697	-0.779297	0.314453	0.325928	0.300849	-0.608546	-0.476486	-0.558679
23460		9.457078	1.598882	-1.836720	-0.002529	-0.001984	-0.002124	-0.776367	0.312256	0.327393	0.300837	-0.608571	-0.476457	-0.558683
23461		9.447490	1.610648	-1.887363	-0.000370	0.000410	-0.002485	-0.771973	0.309082	0.318604	0.300834	-0.608579	-0.476438	-0.558692
23462		9.450948	1.612313	-1.877774	-0.001609	0.003708	-0.001013	-0.775391	0.310059	0.331787	0.300886	-0.608532	-0.476405	-0.558744
23463		9.439286	1.616106	-1.883549	0.000240	0.002369	-0.003042	-0.776611	0.310547	0.322021	0.300860	-0.608541	-0.476387	-0.558764
23464		9.445628	1.575261	-1.901462	0.000965	-0.001795	-0.003925	-0.776123	0.314941	0.329102	0.300869	-0.608511	-0.476416	-0.558766
23465		9.435846	1.558298	-1.864517	0.002172	-0.002658	-0.002683	-0.767578	0.314453	0.326172	0.300866	-0.608554	-0.476411	-0.558726
23466		9.456478	1.602433	-1.836712	0.001161	-0.001772	-0.001898	-0.772949	0.312012	0.331787	0.300870	-0.608616	-0.476374	-0.558687
23467		9.477166	1.609960	-1.856450	0.004750	-0.000490	-0.003667	-0.778320	0.320312	0.325684	0.300862	-0.608642	-0.476386	-0.558652
23468		9.477623	1.589224	-1.853718	0.001324	0.002122	-0.005366	-0.775635	0.320557	0.330566	0.300900	-0.608634	-0.476363	-0.558661
23469		9.445160	1.623067	-1.866468	-0.000470	0.001480	-0.004481	-0.780273	0.309326	0.324219	0.300897	-0.608683	-0.476305	-0.558659
23470		9.416306	1.592228	-1.903963	0.004309	-0.000717	-0.004616	-0.777588	0.314453	0.319824	0.300918	-0.608621	-0.476369	-0.558660
23471		9.419431	1.594288	-1.895705	0.008134	-0.004009	-0.005110	-0.786377	0.319580	0.326416	0.300982	-0.608578	-0.476449	-0.558604
23472		9.448810	1.612754	-1.868071	0.002074	-0.001587	-0.004680	-0.776855	0.311279	0.328369	0.301006	-0.608567	-0.476462	-0.558593
23473		9.448717	1.649960	-1.894896	0.004641	-0.004199	-0.003308	-0.780518	0.312500	0.325439	0.300998	-0.608582	-0.476507	-0.558542
23474		9.464176	1.627096	-1.877500	0.002494	-0.001813	-0.005303	-0.769531	0.322998	0.329834	0.300996	-0.608553	-0.476549	-0.558538
23475		9.456585	1.618193	-1.884777	0.001813	-0.004410	-0.003208	-0.770264	0.307617	0.329834	0.300994	-0.608668	-0.476503	-0.558454
23476		9.438844	1.613250	-1.857320	0.003261	-0.002904	-0.005010	-0.774902	0.318115	0.330811	0.300950	-0.608682	-0.476549	-0.558423
23477		9.458498	1.635302	-1.867821	0.002649	0.002807	-0.002524	-0.777100	0.313721	0.321533	0.300983	-0.608709	-0.476508	-0.558410
23478		9.448168	1.632011	-1.894833	0.000151	-0.000887	-0.001113	-0.771973	0.317871	0.331055	0.301016	-0.608708	-0.476488	-0.558412
23479		9.453595	1.604964	-1.903808	0.002041	0.000848	-0.001966	-0.777588	0.312988	0.330566	0.301033	-0.608764	-0.476441	-0.558381
23480		9.456935	1.606684	-1.894789	0.003473	-0.000263	-0.003375	-0.778320	0.307129	0.329834	0.301036	-0.608768	-0.476457	-0.558361
23481		9.452515	1.591063	-1.881131	0.001591	-0.004161	-0.000557	-0.771240	0.311035	0.321533	0.301009	-0.608787	-0.476487	-0.558329
23482		9.452417	1.591266	-1.881453	0.000167	0.001731	-0.001506	-0.765137	0.313721	0.320557	0.301044	-0.608772	-0.476463	-0.558348
23483		9.448241	1.612443	-1.893130	0.002590	-0.000720	-0.005272	-0.770508	0.311279	0.330322	0.301064	-0.608773	-0.476469	-0.558331
23484		9.463189	1.611351	-1.877848	0.001237	-0.001134	-0.003438	-0.771729	0.307617	0.327393	0.301035	-0.608808	-0.476465	-0.558312
23485		9.457850	1.610291	-1.854417	0.003337	0.003243	-0.002657	-0.775146	0.317627	0.322510	0.301058	-0.608773	-0.476478	-0.558326
23486		9.444256	1.576864	-1.876364	-0.000478	-0.003302	-0.002125	-0.773926	0.309082	0.328613	0.301071	-0.608811	-0.476451	-0.558301
23487		9.463524	1.627861	-1.901986	0.001643	-0.003978	-0.003667	-0.782471	0.312256	0.329346	0.301031	-0.608832	-0.476483	-0.558273
23488		9.442499	1.621364	-1.883151	0.001527	-0.000018	-0.001377	-0.780029	0.308594	0.324463	0.301041	-0.608825	-0.476485	-0.558273
23489		9.441975	1.614731	-1.871489	-0.000145	0.000159	-0.005139	-0.774414	0.307861	0.328613	0.301025	-0.608769	-0.476522	-0.558311
23490		9.465953	1.624042	-1.882304	0.000095	-0.004415	-0.003861	-0.779785	0.314209	0.324463	0.300964	-0.608791	-0.476551	-0.558295
23491		9.463238	1.609302	-1.901277	-0.002026	-0.003739	-0.002319	-0.778564	0.307373	0.328857	0.300948	-0.608812	-0.476542	-0.558288
23492		9.441450	1.588103	-1.858993	-0.000883	-0.000458	-0.001897	-0.778320	0.315186	0.329102	0.300919	-0.608806	-0.476545	-0.558308
23493		9.434524	1.659514	-1.855402	0.000984	0.000824	-0.004323	-0.774170	0.315186	0.326416	0.300918	-0.608805	-0.476540	-0.558315
23494		9.474489	1.645060	-1.847180	0.001078	0.001916	-0.004291	-0.778564	0.304443	0.328125	0.300935	-0.608797	-0.476526	-0.558325
23495		9.457195	1.603410	-1.865615	0.000940	0.005421	-0.003572	-0.777344	0.307129	0.329590	0.300937	-0.608718	-0.476544	-0.558395
23496		9.438157	1.597774	-1.877973	-0.001938	-0.000484	-0.004253	-0.774658	0.318115	0.331299	0.300877	-0.608712	-0.476551	-0.558428
23497		9.416584	1.576705	-1.909060	-0.003733	-0.001128	-0.003366	-0.777588	0.309814	0.325928	0.300831	-0.608786	-0.476486	-0.558428
23498		9.466202	1.587185	-1.876714	0.000420	-0.000226	-0.000623	-0.779785	0.309326	0.322510	0.300844	-0.608782	-0.476478	-0.558433
23499		9.458533	1.606902	-1.897797	0.002941	-0.001581	-0.004359	-0.774902	0.306152	0.334229	0.300859	-0.608728	-0.476535	-0.558434
23500		9.473580	1.642123	-1.908748	0.001834	-0.001790	-0.003604	-0.776123	0.305908	0.327148	0.300796	-0.608751	-0.476553	-0.558428
23501		9.461527	1.610065	-1.889298	-0.001772	0.001247	-0.005761	-0.771240	0.311279	0.321777	0.300745	-0.608711	-0.476572	-0.558483
23502		9.451007	1.571302	-1.889884	0.004076	0.003864	-0.005903	-0.776611	0.304932	0.325195	0.300796	-0.608641	-0.476603	-0.558505
23503		9.426091	1.622181	-1.907869	0.004925	0.001250	-0.005183	-0.777832	0.312012	0.327637	0.300807	-0.608566	-0.476670	-0.558523
23504		9.434918	1.670046	-1.885971	-0.003885	-0.000242	-0.002253	-0.774658	0.308838	0.329834	0.300775	-0.608587	-0.476632	-0.558550
23505		9.439945	1.636279	-1.883053	-0.005361	-0.000042	-0.003987	-0.780518	0.313232	0.330566	0.300694	-0.608615	-0.476590	-0.558598
23506		9.469789	1.589579	-1.887965	-0.002223	-0.001599	-0.006318	-0.771973	0.308350	0.328857	0.300631	-0.608626	-0.476594	-0.558618
23507		9.453083	1.599452	-1.882516	-0.000929	0.004139	-0.001147	-0.774414	0.312744	0.327637	0.300631	-0.608628	-0.476543	-0.558659
23508		9.449606	1.635452	-1.842966	0.000333	0.003463	-0.003016	-0.765869	0.312988	0.327637	0.300648	-0.608619	-0.476513	-0.558685
23509		9.446110	1.627215	-1.913060	-0.000168	0.005213	-0.002819	-0.772705	0.311035	0.324219	0.300663	-0.608636	-0.476447	-0.558715
23510		9.442369	1.619306	-1.909494	0.003584	0.003454	-0.003741	-0.778076	0.309082	0.333496	0.300711	-0.608592	-0.476457	-0.558729
23511		9.468937	1.607426	-1.874881	0.004365	0.004983	-0.003842	-0.775635	0.308594	0.321777	0.300719	-0.608559	-0.476459	-0.558758
23512		9.463788	1.606323	-1.850496	0.004212	0.005870	-0.002729	-0.767334	0.305908	0.322754	0.300801	-0.608469	-0.476482	-0.558793
23513		9.457071	1.604194	-1.867636	0.004466	0.003913	-0.001844	-0.781250	0.324463	0.331055	0.300854	-0.608427	-0.476487	-0.558806
23514		9.459577	1.619875	-1.848670	0.002169	0.005018	-0.000761	-0.776855	0.307861	0.331787	0.300934	-0.608451	-0.476414	-0.558798
23515		9.456082	1.647850	-1.870789	-0.000741	0.006326	-0.001087	-0.774658	0.312500	0.321533	0.300932	-0.608438	-0.476359	-0.558861
23516		9.451196	1.610035	-1.893702	0.004115	0.006941	-0.004730	-0.779785	0.307861	0.320557	0.301015	-0.608348	-0.476375	-0.558900
23517		9.427784	1.580814	-1.879329	-0.000586	0.005439	-0.002201	-0.767822	0.308594	0.324707	0.301065	-0.608262	-0.476377	-0.558966
23518		9.436950	1.591542	-1.904507	-0.002583	-0.000011	-0.000980	-0.774170	0.316406	0.324219	0.301041	-0.608301	-0.476324	-0.558980
23519		9.460784	1.592832	-1.902953	0.000762	0.001074	-0.001673	-0.779053	0.309326	0.322998	0.301082	-0.608315	-0.476294	-0.558969
23520		9.472652	1.597799	-1.833651	0.000696	0.005218	-0.002497	-0.769287	0.312256	0.322021	0.301128	-0.608246	-0.476293	-0.559021
23521		9.462508	1.594958	-1.859532	0.005648	0.006927	-0.006109	-0.771973	0.313477	0.337158	0.301202	-0.608166	-0.476315	-0.559049
23522		9.473632	1.614408	-1.854391	0.004886	0.005853	-0.004437	-0.771729	0.302490	0.325684	0.301194	-0.608189	-0.476270	-0.559066
23523		9.461007	1.632586	-1.850338	0.001666	0.008934	-0.002539	-0.777832	0.310059	0.328613	0.301221	-0.608113	-0.476251	-0.559151
23524		9.425617	1.635630	-1.856576	-0.000087	0.005853	-0.004368	-0.777588	0.313232	0.329590	0.301217	-0.608076	-0.476225	-0.559215
23525		9.473395	1.638439	-1.852648	-0.005150	0.002595	-0.002360	-0.780029	0.315186	0.327393	0.301173	-0.608110	-0.476146	-0.559269
23526		9.448757	1.615826	-1.891898	-0.004462	0.003031	-0.002493	-0.776855	0.303467	0.321533	0.301159	-0.608123	-0.476081	-0.559318
23527		9.446460	1.608782	-1.847221	0.001528	0.002150	-0.003347	-0.773193	0.309326	0.327393	0.301173	-0.608051	-0.476120	-0.559356
23528		9.428613	1.596335	-1.806520	-0.005150	0.002595	-0.002361	-0.775879	0.302246	0.326416	0.301124	-0.608077	-0.476048	-0.559415
23529		9.487749	1.624687	-1.810992	-0.002754	0.000420	-0.001442	-0.779053	0.308105	0.331787	0.301073	-0.608076	-0.476026	-0.559462
23530		9.485146	1.638708	-1.842916	0.001200	0.003469	-0.002694	-0.779541	0.304443	0.331299	0.301051	-0.608072	-0.475998	-0.559503
23531		9.462050	1.653325	-1.867130	0.001512	0.001696	-0.004920	-0.767090	0.315918	0.324463	0.300998	-0.608048	-0.476010	-0.559546
23532		9.435058	1.623055	-1.862587	0.000855	0.004333	-0.003613	-0.777588	0.306396	0.323730	0.301026	-0.608063	-0.475952	-0.559564
23533		9.436110	1.573143	-1.844702	0.005563	0.003674	-0.004172	-0.770996	0.311035	0.320312	0.301073	-0.607982	-0.476003	-0.559584
23534		9.440339	1.589541	-1.858508	0.003862	0.001956	-0.001284	-0.779053	0.306152	0.331055	0.301143	-0.607958	-0.476005	-0.559570
23535		9.467464	1.657265	-1.887921	0.003361	0.003707	-0.001090	-0.772705	0.308594	0.324219	0.301146	-0.607946	-0.475984	-0.559600
23536		9.462888	1.634299	-1.861465	0.007615	0.002365	-0.004171	-0.773438	0.307617	0.323730	0.301194	-0.607899	-0.476027	-0.559589
23537		9.479419	1.589474	-1.840207	0.001626	0.001080	-0.001347	-0.773926	0.308105	0.329102	0.301210	-0.607891	-0.476018	-0.559595
23538		9.460379	1.591011	-1.791125	0.002204	-0.000033	-0.003083	-0.776611	0.306396	0.319336	0.301177	-0.607915	-0.476002	-0.559602
23539		9.463908	1.629003	-1.807577	0.007490	0.006327	-0.001886	-0.772217	0.309814	0.336182	0.301297	-0.607798	-0.476059	-0.559616
23540		9.459934	1.649574	-1.818451	0.001125	0.002831	-0.001155	-0.770752	0.312744	0.320801	0.301237	-0.607880	-0.475955	-0.559647
23541		9.443632	1.658419	-1.887354	-0.000562	-0.004398	-0.002153	-0.772705	0.309326	0.324951	0.301228	-0.607924	-0.475947	-0.559611
23542		9.438312	1.584240	-1.886510	-0.004161	-0.003529	-0.002351	-0.779053	0.316406	0.321045	0.301160	-0.607982	-0.475908	-0.559618
23543		9.471355	1.574812	-1.835142	-0.002174	-0.002858	-0.001206	-0.780029	0.312988	0.326172	0.301179	-0.608004	-0.475894	-0.559596
23544		9.461077	1.615589	-1.826582	0.004707	0.001507	-0.002530	-0.775146	0.311768	0.316895	0.301222	-0.607982	-0.475907	-0.559585
23545		9.444043	1.654040	-1.835736	0.002126	0.001493	-0.003513	-0.773682	0.312988	0.321289	0.301292	-0.607916	-0.475949	-0.559584
23546		9.450331	1.642091	-1.868180	-0.003300	-0.003525	-0.002023	-0.774658	0.305176	0.322510	0.301271	-0.607955	-0.475927	-0.559571
23547		9.462663	1.617725	-1.859130	-0.007807	-0.000226	0.000168	-0.775391	0.306396	0.322266	0.301219	-0.607981	-0.475862	-0.559626
23548		9.459230	1.580664	-1.841454	-0.000427	0.004554	-0.003321	-0.784912	0.314453	0.326904	0.301234	-0.607924	-0.475858	-0.559683
23549		9.439286	1.588977	-1.844324	0.003359	0.005874	-0.003064	-0.780518	0.304688	0.329834	0.301298	-0.607862	-0.475860	-0.559715
23550		9.445920	1.613069	-1.901791	0.002580	0.002179	-0.000990	-0.771240	0.311768	0.329590	0.301285	-0.607853	-0.475843	-0.559746
23551		9.443598	1.641860	-1.883988	0.002630	-0.002421	-0.001733	-0.783447	0.311279	0.318359	0.301252	-0.607928	-0.475802	-0.559717
23552		9.480416	1.604688	-1.808901	-0.002175	-0.000694	-0.003179	-0.771240	0.310059	0.326904	0.301280	-0.607871	-0.475843	-0.559729
23553		9.466610	1.572109	-1.756592	0.004189	0.004969	-0.005884	-0.780029	0.309814	0.323975	0.301286	-0.607840	-0.475837	-0.559765
23554		9.445963	1.594260	-1.824397	0.003454	0.004804	-0.001062	-0.773926	0.308838	0.328125	0.301353	-0.607786	-0.475836	-0.559788
23555		9.441635	1.680377	-1.875944	-0.004209	0.001069	-0.001608	-0.776367	0.312744	0.325195	0.301292	-0.607835	-0.475756	-0.559836
23556		9.464222	1.660297	-1.838919	-0.003630	0.002122	-0.005318	-0.774170	0.311279	0.322266	0.301255	-0.607833	-0.475721	-0.559887
23557		9.450714	1.554783	-1.808309	-0.003206	-0.000267	-0.003967	-0.777832	0.311279	0.327881	0.301228	-0.607839	-0.475702	-0.559912
23558		9.455125	1.542577	-1.808149	-0.003019	-0.000245	-0.001934	-0.777344	0.310547	0.326660	0.301184	-0.607880	-0.475647	-0.559938
23559		9.465325	1.619584	-1.833136	0.005899	0.000197	-0.002855	-0.769775	0.314453	0.318848	0.301209	-0.607870	-0.475667	-0.559918
23560		9.448168	1.657992	-1.842776	0.006745	-0.000253	-0.004102	-0.775879	0.308838	0.336182	0.301284	-0.607841	-0.475715	-0.559868
23561		9.453953	1.638744	-1.864172	0.002854	-0.005287	-0.003990	-0.771973	0.316895	0.327881	0.301172	-0.607939	-0.475686	-0.559847
23562		9.484642	1.606687	-1.893174	0.000365	-0.002044	-0.006917	-0.779053	0.312012	0.322510	0.301115	-0.607990	-0.475663	-0.559842
23563		9.451121	1.552765	-1.830638	0.002671	0.005439	-0.002935	-0.780518	0.311035	0.326904	0.301183	-0.607924	-0.475669	-0.559872
23564		9.441782	1.608628	-1.844013	0.011325	0.007386	-0.006324	-0.776123	0.302002	0.327148	0.301273	-0.607813	-0.475735	-0.559888
23565		9.422575	1.667961	-1.896752	0.008059	0.002604	-0.003226	-0.776367	0.314697	0.332031	0.301296	-0.607758	-0.475780	-0.559896
23566		9.448645	1.640820	-1.913296	0.000317	-0.001774	-0.002226	-0.781738	0.309570	0.325439	0.301242	-0.607842	-0.475714	-0.559890
23567		9.480868	1.580625	-1.812217	-0.001841	-0.002015	-0.003832	-0.777832	0.301758	0.321533	0.301201	-0.607843	-0.475721	-0.559905
23568		9.467407	1.591785	-1.798171	0.001520	0.001697	-0.004928	-0.780029	0.309570	0.322510	0.301201	-0.607762	-0.475781	-0.559942
23569		9.452684	1.638067	-1.851055	0.011078	0.005018	-0.003269	-0.778076	0.308105	0.319580	0.301321	-0.607657	-0.475858	-0.559926
23570		9.443298	1.657095	-1.838757	0.003017	0.004576	-0.002018	-0.783936	0.313477	0.326904	0.301397	-0.607578	-0.475885	-0.559949
23571		9.464804	1.650750	-1.792993	-0.000106	-0.001549	-0.001603	-0.776367	0.303711	0.325684	0.301390	-0.607598	-0.475871	-0.559942
23572		9.468062	1.608535	-1.820410	-0.000649	-0.003329	-0.004157	-0.775391	0.309570	0.327637	0.301315	-0.607613	-0.475882	-0.559957
23573		9.460297	1.592008	-1.815583	0.002647	0.000201	-0.002135	-0.774170	0.314209	0.323242	0.301304	-0.607636	-0.475858	-0.559958
23574		9.451161	1.618228	-1.815818	0.006182	0.001318	-0.000796	-0.775635	0.310059	0.317871	0.301379	-0.607633	-0.475857	-0.559922
23575		9.452914	1.662960	-1.812575	0.003059	-0.002643	-0.002357	-0.772217	0.308105	0.323975	0.301423	-0.607606	-0.475910	-0.559883
23576		9.459948	1.629300	-1.842709	-0.002356	-0.002886	-0.003238	-0.775391	0.313232	0.326904	0.301362	-0.607647	-0.475885	-0.559892
23577		9.439380	1.586023	-1.871470	-0.005600	-0.002431	-0.000940	-0.776123	0.302734	0.323730	0.301298	-0.607730	-0.475802	-0.559907
23578		9.436454	1.607504	-1.842760	0.001684	-0.005682	-0.000115	-0.779297	0.311279	0.322510	0.301267	-0.607760	-0.475822	-0.559874
23579		9.466868	1.611270	-1.824198	0.006409	-0.001549	-0.003053	-0.778320	0.314697	0.322998	0.301319	-0.607727	-0.475884	-0.559830
23580		9.443615	1.625269	-1.849581	0.002040	-0.001762	-0.001572	-0.773926	0.316406	0.322021	0.301351	-0.607736	-0.475891	-0.559797
23581		9.429036	1.605730	-1.863428	-0.000724	-0.006132	-0.000637	-0.775879	0.307373	0.324707	0.301349	-0.607805	-0.475876	-0.559735
23582		9.454028	1.607789	-1.822182	-0.002616	-0.007876	0.000223	-0.777588	0.310547	0.326904	0.301282	-0.607888	-0.475855	-0.559700
23583		9.477545	1.608961	-1.822394	0.000561	-0.006350	-0.000934	-0.776367	0.300781	0.319336	0.301240	-0.607955	-0.475847	-0.559656
23584		9.476949	1.594012	-1.873931	0.003233	-0.003074	-0.001899	-0.775635	0.314697	0.331299	0.301249	-0.607913	-0.475915	-0.559639
23585		9.439591	1.603727	-1.861866	-0.001152	-0.001579	-0.003966	-0.771484	0.308350	0.320557	0.301183	-0.607980	-0.475860	-0.559649
23586		9.442678	1.605713	-1.853781	-0.000563	-0.007018	-0.001752	-0.785889	0.308350	0.334229	0.301152	-0.608024	-0.475878	-0.559602
23587		9.466488	1.614553	-1.865792	0.002007	-0.007454	-0.002346	-0.779053	0.310791	0.326904	0.301063	-0.608095	-0.475883	-0.559569
23588		9.468375	1.594314	-1.823278	0.002614	-0.005491	-0.002911	-0.781494	0.307373	0.325684	0.301036	-0.608127	-0.475910	-0.559526
23589		9.457753	1.599269	-1.789650	-0.003148	-0.004872	-0.004710	-0.773926	0.308350	0.330322	0.300958	-0.608139	-0.475932	-0.559536
23590		9.450954	1.605030	-1.820463	0.003221	-0.003528	-0.003476	-0.785645	0.305908	0.322754	0.300903	-0.608189	-0.475923	-0.559519
23591		9.477107	1.621996	-1.875685	0.000638	-0.003546	-0.004457	-0.781006	0.310547	0.323730	0.300889	-0.608137	-0.476003	-0.559514
23592		9.469598	1.613180	-1.882865	-0.002791	-0.003117	-0.004190	-0.774902	0.322021	0.331055	0.300854	-0.608133	-0.476023	-0.559520
23593		9.437093	1.617836	-1.882189	-0.000650	-0.001164	-0.006136	-0.776611	0.315918	0.324951	0.300814	-0.608192	-0.475980	-0.559514
23594		9.438678	1.582972	-1.889382	0.002950	-0.006807	-0.003568	-0.777832	0.310547	0.322021	0.300808	-0.608233	-0.476018	-0.559441
23595		9.447278	1.594298	-1.916655	0.004572	-0.003560	-0.006896	-0.780029	0.307861	0.322510	0.300813	-0.608189	-0.476111	-0.559406
23596		9.439645	1.629646	-1.888154	0.005884	-0.002868	-0.004044	-0.772949	0.308838	0.327881	0.300844	-0.608142	-0.476198	-0.559367
23597		9.443448	1.646224	-1.903505	0.007343	-0.003516	-0.003881	-0.781006	0.311768	0.327148	0.300838	-0.608160	-0.476235	-0.559319
23598		9.447341	1.626427	-1.892860	0.006656	-0.003954	-0.003748	-0.776855	0.317139	0.328369	0.300855	-0.608153	-0.476299	-0.559263
23599		9.454030	1.593344	-1.849288	0.004607	-0.000031	-0.004149	-0.776123	0.313965	0.326660	0.300883	-0.608157	-0.476310	-0.559234
23600		9.454220	1.609187	-1.799402	0.005726	-0.001980	-0.002931	-0.775146	0.309814	0.323242	0.300914	-0.608164	-0.476338	-0.559187
23601		9.451564	1.666690	-1.870124	0.007706	0.000859	-0.003765	-0.775879	0.312500	0.329346	0.300976	-0.608112	-0.476397	-0.559159
23602		9.454962	1.624313	-1.897004	-0.001735	-0.000470	-0.002228	-0.784180	0.315186	0.317139	0.300940	-0.608156	-0.476346	-0.559174
23603		9.448669	1.608805	-1.851284	0.003805	-0.007254	-0.004818	-0.769043	0.304443	0.321289	0.300987	-0.608109	-0.476476	-0.559089
23604		9.464934	1.600800	-1.857756	0.000566	-0.004185	-0.002914	-0.780029	0.313232	0.328125	0.300951	-0.608128	-0.476492	-0.559075
23605		9.460140	1.614408	-1.858439	0.001099	-0.000241	-0.002335	-0.776855	0.310791	0.329346	0.300956	-0.608135	-0.476483	-0.559071
23606		9.454245	1.642262	-1.849876	0.002983	-0.001114	-0.002797	-0.777344	0.307861	0.329834	0.300945	-0.608154	-0.476479	-0.559061
23607		9.428968	1.656018	-1.843114	0.000053	-0.005054	-0.002319	-0.766846	0.309082	0.325928	0.300878	-0.608211	-0.476465	-0.559046
23608		9.451724	1.635353	-1.881493	-0.006914	-0.005750	-0.003383	-0.777588	0.313232	0.322998	0.300760	-0.608308	-0.476401	-0.559059
23609		9.448810	1.613234	-1.888752	-0.005776	-0.004624	-0.000991	-0.770264	0.313477	0.322266	0.300728	-0.608354	-0.476376	-0.559048
23610		9.449784	1.599367	-1.898299	-0.000102	-0.001549	-0.001606	-0.775879	0.314941	0.324951	0.300748	-0.608375	-0.476365	-0.559024
23611		9.428277	1.621720	-1.894085	-0.002092	-0.004843	-0.002348	-0.778076	0.305664	0.322266	0.300725	-0.608420	-0.476360	-0.558991
23612		9.451818	1.623351	-1.893832	-0.003030	-0.005489	-0.001129	-0.778076	0.312012	0.330322	0.300683	-0.608443	-0.476369	-0.558981
23613		9.472134	1.587496	-1.876327	-0.003725	-0.003764	-0.002971	-0.772705	0.309326	0.330811	0.300610	-0.608502	-0.476331	-0.558987
23614		9.459739	1.584107	-1.871982	0.000395	-0.003752	-0.003377	-0.777588	0.314941	0.329346	0.300544	-0.608562	-0.476307	-0.558979
23615		9.423328	1.615695	-1.895188	0.002380	-0.003075	-0.002235	-0.779053	0.310303	0.327148	0.300545	-0.608596	-0.476308	-0.558940
23616		9.433162	1.656398	-1.894914	-0.000627	-0.002873	-0.002588	-0.771240	0.315430	0.328613	0.300520	-0.608613	-0.476310	-0.558933
23617		9.458448	1.615037	-1.888657	-0.001238	-0.002673	-0.004000	-0.774414	0.308350	0.333252	0.300482	-0.608665	-0.476283	-0.558920
23618		9.452380	1.555345	-1.878522	0.007264	-0.001984	-0.004323	-0.772461	0.307861	0.327637	0.300459	-0.608685	-0.476302	-0.558894
23619		9.447229	1.561583	-1.867648	0.003756	-0.002197	-0.002505	-0.776123	0.310303	0.325439	0.300451	-0.608702	-0.476311	-0.558873
23620		9.448566	1.650769	-1.829365	0.003664	-0.005908	-0.002135	-0.782227	0.312500	0.322266	0.300452	-0.608725	-0.476354	-0.558811
23621		9.453825	1.660184	-1.865472	0.006841	-0.001760	-0.003700	-0.777100	0.312256	0.325684	0.300526	-0.608659	-0.476453	-0.558758
23622		9.476007	1.624776	-1.880127	-0.000465	-0.003759	-0.003704	-0.776367	0.311035	0.329590	0.300504	-0.608674	-0.476471	-0.558739
23623		9.444946	1.622147	-1.900412	-0.001075	-0.003560	-0.005116	-0.768799	0.305664	0.328857	0.300439	-0.608705	-0.476471	-0.558740
23624		9.405775	1.587509	-1.892073	0.009151	-0.002853	-0.004792	-0.776611	0.308350	0.326904	0.300431	-0.608709	-0.476519	-0.558698
23625		9.439876	1.600374	-1.876593	0.007614	-0.005461	-0.003007	-0.771973	0.305176	0.329834	0.300443	-0.608712	-0.476589	-0.558629
23626		9.461091	1.674260	-1.896595	0.000573	-0.004182	-0.002918	-0.776367	0.308838	0.325439	0.300373	-0.608763	-0.476573	-0.558625
23627		9.437902	1.651893	-1.895799	0.002997	-0.000655	-0.001226	-0.775146	0.310791	0.327637	0.300403	-0.608751	-0.476589	-0.558608
23628		9.436778	1.586167	-1.897611	0.006654	-0.007016	-0.004941	-0.769043	0.311279	0.337158	0.300389	-0.608769	-0.476664	-0.558533
23629		9.447581	1.612727	-1.907012	0.000149	-0.003959	-0.002293	-0.776123	0.305664	0.325439	0.300295	-0.608886	-0.476583	-0.558525
23630		9.438907	1.661738	-1.869484	0.003509	-0.002402	-0.001422	-0.780029	0.309082	0.327393	0.300308	-0.608876	-0.476615	-0.558501
23631		9.432192	1.623007	-1.861863	0.001024	-0.000878	-0.000791	-0.773682	0.316162	0.330322	0.300321	-0.608873	-0.476617	-0.558495
23632		9.435293	1.616776	-1.915242	0.001174	-0.002220	-0.003485	-0.773926	0.306152	0.326172	0.300306	-0.608914	-0.476602	-0.558472
23633		9.458045	1.639956	-1.917485	-0.002324	-0.004596	0.000316	-0.775879	0.306641	0.333984	0.300267	-0.608964	-0.476577	-0.558459
23634		9.451494	1.609469	-1.847719	-0.009978	-0.000504	-0.001405	-0.778564	0.308105	0.319580	0.300138	-0.609048	-0.476452	-0.558545
23635		9.451425	1.565803	-1.883896	-0.005595	-0.005059	-0.000526	-0.776855	0.315430	0.316650	0.300126	-0.609051	-0.476472	-0.558531
23636		9.447220	1.593670	-1.908193	-0.002835	-0.002848	0.000510	-0.772705	0.312744	0.337646	0.300199	-0.609032	-0.476506	-0.558483
23637		9.446261	1.615488	-1.911208	-0.007217	-0.000910	0.000031	-0.768066	0.309082	0.326904	0.300097	-0.609155	-0.476358	-0.558530
23638		9.456160	1.612644	-1.872423	-0.005518	-0.001803	-0.002474	-0.778076	0.311035	0.332275	0.300031	-0.609208	-0.476298	-0.558558
23639		9.447654	1.573668	-1.906274	-0.000461	-0.003758	-0.003707	-0.775635	0.308350	0.328125	0.299973	-0.609249	-0.476289	-0.558553
23640		9.459490	1.578667	-1.912026	0.000837	-0.000901	-0.002830	-0.772949	0.303467	0.327881	0.299961	-0.609249	-0.476290	-0.558558
23641		9.435088	1.615120	-1.865975	0.000662	-0.000471	-0.003290	-0.774658	0.314209	0.334473	0.299925	-0.609246	-0.476286	-0.558583
23642		9.442642	1.640511	-1.883272	-0.000973	-0.002010	-0.003511	-0.775879	0.307861	0.326172	0.299869	-0.609307	-0.476239	-0.558587
23643		9.437317	1.595384	-1.896327	-0.001909	-0.002657	-0.002290	-0.774414	0.302734	0.331787	0.299842	-0.609318	-0.476239	-0.558590
23644		9.452362	1.594376	-1.880995	-0.008264	-0.000943	-0.002333	-0.768066	0.313721	0.333740	0.299719	-0.609375	-0.476148	-0.558671
23645		9.446750	1.629915	-1.883620	-0.004656	0.000822	-0.002548	-0.776367	0.317383	0.332764	0.299651	-0.609454	-0.476039	-0.558715
23646		9.421545	1.643419	-1.950119	-0.000122	-0.005073	-0.004366	-0.776367	0.311523	0.329102	0.299601	-0.609516	-0.476030	-0.558681
23647		9.470495	1.596284	-1.930616	-0.003470	0.001676	-0.004856	-0.777832	0.314697	0.331055	0.299569	-0.609507	-0.476006	-0.558729
23648		9.414538	1.563323	-1.904575	-0.001670	-0.002902	-0.004956	-0.780762	0.309570	0.332520	0.299522	-0.609535	-0.476002	-0.558727
23649		9.420418	1.596041	-1.901863	0.003824	-0.004623	-0.005239	-0.777344	0.306152	0.335938	0.299483	-0.609544	-0.476049	-0.558698
23650		9.455489	1.631019	-1.920870	0.000425	-0.000223	-0.000626	-0.781982	0.310791	0.332520	0.299441	-0.609588	-0.475991	-0.558722
23651		9.458213	1.618282	-1.888646	0.003909	-0.000913	-0.005607	-0.773926	0.307373	0.322754	0.299430	-0.609565	-0.476031	-0.558719
23652		9.454525	1.618115	-1.897965	0.001338	-0.000484	-0.005005	-0.771484	0.317871	0.327881	0.299445	-0.609513	-0.476088	-0.558719
23653		9.447717	1.623725	-1.928042	-0.000534	-0.001778	-0.002561	-0.772949	0.311768	0.324219	0.299453	-0.609549	-0.476070	-0.558691
23654		9.431925	1.619067	-1.932530	0.003738	-0.003099	-0.005670	-0.771973	0.308105	0.338623	0.299469	-0.609522	-0.476142	-0.558650
23655		9.435643	1.592672	-1.909729	0.006733	-0.001133	-0.007298	-0.772949	0.312012	0.331299	0.299406	-0.609546	-0.476148	-0.558652
23656		9.426096	1.619660	-1.910510	0.005559	-0.001534	-0.003411	-0.772461	0.311768	0.332275	0.299418	-0.609559	-0.476164	-0.558618
23657		9.439407	1.617710	-1.936784	0.008119	0.000201	-0.005992	-0.770508	0.309814	0.326172	0.299434	-0.609542	-0.476204	-0.558594
23658		9.448613	1.643867	-1.912854	0.006858	-0.001293	-0.002135	-0.775879	0.302734	0.335938	0.299487	-0.609529	-0.476246	-0.558544
23659		9.447907	1.629745	-1.889802	0.001776	-0.000253	-0.004055	-0.773193	0.306885	0.332520	0.299421	-0.609546	-0.476224	-0.558580
23660		9.431664	1.610582	-1.870313	-0.000808	-0.000279	-0.005031	-0.770996	0.307861	0.332520	0.299357	-0.609562	-0.476201	-0.558616
23661		9.441851	1.614733	-1.917035	0.004361	-0.000226	-0.003080	-0.776123	0.311768	0.321045	0.299347	-0.609579	-0.476191	-0.558612
23662		9.437122	1.628184	-1.917207	0.002048	0.000864	-0.001985	-0.772949	0.310791	0.335693	0.299426	-0.609521	-0.476242	-0.558589
23663		9.427434	1.647506	-1.905847	0.004351	-0.000680	-0.004659	-0.770752	0.314697	0.328857	0.299393	-0.609551	-0.476227	-0.558587
23664		9.458094	1.607780	-1.922896	0.002818	-0.003290	-0.002871	-0.773438	0.306641	0.339844	0.299395	-0.609588	-0.476232	-0.558541
23665		9.425127	1.596962	-1.898795	0.001952	-0.000683	-0.003596	-0.772949	0.310547	0.327148	0.299315	-0.609648	-0.476172	-0.558569
23666		9.428918	1.613376	-1.913679	0.002829	-0.002836	-0.001292	-0.778076	0.304688	0.338135	0.299336	-0.609664	-0.476188	-0.558528
23667		9.458534	1.639138	-1.897738	0.005138	-0.001308	-0.002788	-0.770020	0.309570	0.333252	0.299296	-0.609689	-0.476177	-0.558530
23668		9.451265	1.629760	-1.904227	0.000150	0.001276	-0.003097	-0.780273	0.312012	0.332031	0.299262	-0.609722	-0.476123	-0.558559
23669		9.445504	1.613650	-1.930945	-0.002259	0.000818	-0.003611	-0.771973	0.319336	0.325439	0.299232	-0.609727	-0.476095	-0.558594
23670		9.433384	1.610048	-1.925482	0.000761	0.001078	-0.001684	-0.771973	0.308105	0.325684	0.299284	-0.609735	-0.476076	-0.558574
23671		9.426405	1.607971	-1.943578	0.001953	-0.000683	-0.003596	-0.779785	0.312012	0.332275	0.299298	-0.609712	-0.476108	-0.558564
23672		9.443427	1.615249	-1.898677	-0.000531	-0.001780	-0.002562	-0.778564	0.308105	0.323486	0.299271	-0.609738	-0.476090	-0.558565
23673		9.450664	1.632961	-1.904470	-0.002580	-0.002645	-0.000575	-0.771729	0.307129	0.332764	0.299282	-0.609729	-0.476109	-0.558552
23674		9.446001	1.602824	-1.867184	0.000756	-0.001993	-0.002864	-0.777344	0.313721	0.332764	0.299236	-0.609767	-0.476084	-0.558556
23675		9.448501	1.582382	-1.896917	0.004087	0.001276	-0.005553	-0.769043	0.306641	0.331543	0.299240	-0.609750	-0.476099	-0.558560
23676		9.433172	1.636585	-1.888360	0.004188	0.000207	-0.003544	-0.773193	0.315674	0.330811	0.299232	-0.609756	-0.476096	-0.558561
23677		9.454232	1.658880	-1.931494	-0.001207	-0.001765	-0.000847	-0.773926	0.312012	0.329834	0.299221	-0.609814	-0.476045	-0.558547
23678		9.435304	1.608840	-1.906914	0.000071	-0.002433	-0.002729	-0.772461	0.306396	0.332275	0.299201	-0.609844	-0.476035	-0.558533
23679		9.436705	1.610559	-1.866497	-0.003705	-0.006388	-0.002571	-0.774414	0.307129	0.335449	0.299102	-0.609923	-0.476003	-0.558529
23680		9.451819	1.617164	-1.863733	-0.003034	-0.003786	-0.004687	-0.776855	0.309082	0.329834	0.298994	-0.609982	-0.475965	-0.558554
23681		9.461088	1.599251	-1.876078	-0.000088	-0.004163	-0.001211	-0.774658	0.309570	0.330322	0.298974	-0.610014	-0.475965	-0.558528
23682		9.442307	1.607458	-1.913642	-0.002240	-0.007031	-0.002414	-0.773682	0.312744	0.334961	0.298908	-0.610079	-0.475960	-0.558498
23683		9.457883	1.628481	-1.934623	-0.001219	-0.005290	-0.003608	-0.776611	0.310791	0.330078	0.298828	-0.610159	-0.475926	-0.558483
23684		9.459290	1.630445	-1.894068	0.002119	-0.001566	-0.004718	-0.774658	0.313232	0.336914	0.298820	-0.610148	-0.475956	-0.558473
23685		9.425775	1.604696	-1.920176	0.004519	-0.001560	-0.005785	-0.779053	0.305420	0.328125	0.298782	-0.610177	-0.475954	-0.558463
23686		9.406955	1.613149	-1.957588	0.004294	-0.006545	-0.002319	-0.769287	0.313965	0.330566	0.298785	-0.610173	-0.476031	-0.558400
23687		9.471039	1.659071	-1.937435	0.001702	-0.003959	-0.003692	-0.776611	0.315186	0.332764	0.298761	-0.610220	-0.476030	-0.558363
23688		9.454606	1.632343	-1.906492	-0.001399	0.000827	-0.003287	-0.786865	0.316895	0.329590	0.298742	-0.610241	-0.475990	-0.558384
23689		9.451001	1.580217	-1.939560	0.000667	-0.000468	-0.003297	-0.772461	0.302246	0.329834	0.298766	-0.610218	-0.476015	-0.558375
23690		9.433162	1.611485	-1.937171	-0.001148	0.001035	-0.004376	-0.768799	0.310059	0.330078	0.298733	-0.610192	-0.476017	-0.558419
23691		9.405523	1.602205	-1.935728	-0.000945	-0.001103	-0.000355	-0.769287	0.308594	0.337891	0.298725	-0.610237	-0.475971	-0.558413
23692		9.426014	1.609893	-1.955574	0.001871	-0.001773	-0.003631	-0.774658	0.312256	0.335449	0.298662	-0.610297	-0.475927	-0.558419
23693		9.449904	1.619101	-1.966461	0.002992	-0.001100	-0.002815	-0.775391	0.315430	0.326172	0.298646	-0.610332	-0.475905	-0.558408
23694		9.455934	1.600509	-1.913475	0.004438	0.000419	-0.004638	-0.771240	0.306152	0.333008	0.298699	-0.610290	-0.475958	-0.558380
23695		9.451135	1.614200	-1.913623	0.004448	0.000874	-0.003058	-0.770752	0.305664	0.333740	0.298705	-0.610283	-0.475960	-0.558383
23696		9.417897	1.639131	-1.915111	0.003521	0.000680	-0.000252	-0.778320	0.306152	0.331055	0.298716	-0.610303	-0.475930	-0.558381
23697		9.453538	1.637793	-1.907110	0.001771	0.002366	-0.004462	-0.768311	0.310303	0.334473	0.298722	-0.610255	-0.475951	-0.558413
23698		9.436648	1.647312	-1.902144	0.000677	-0.003084	-0.002898	-0.781982	0.300781	0.334473	0.298669	-0.610320	-0.475914	-0.558402
23699		9.444368	1.628097	-1.955140	-0.003790	0.001273	-0.000639	-0.772705	0.303711	0.332031	0.298629	-0.610317	-0.475871	-0.558463
23700		9.435348	1.611026	-1.916829	-0.004317	0.002564	-0.002022	-0.774414	0.313232	0.332764	0.298589	-0.610321	-0.475813	-0.558529
23701		9.415377	1.626365	-1.932087	0.000928	0.000195	-0.002806	-0.772949	0.315430	0.337402	0.298582	-0.610342	-0.475786	-0.558532
23702		9.439583	1.642640	-1.954474	0.003605	-0.001297	-0.001402	-0.773926	0.312500	0.332764	0.298569	-0.610410	-0.475734	-0.558510
23703		9.438766	1.621035	-1.919646	0.000418	-0.000676	-0.002209	-0.771973	0.316895	0.329590	0.298555	-0.610442	-0.475703	-0.558509
23704		9.440912	1.637167	-1.901627	-0.004049	0.000610	-0.001131	-0.772949	0.308594	0.341797	0.298545	-0.610487	-0.475634	-0.558525
23705		9.446062	1.639150	-1.924604	0.002993	0.001971	-0.001635	-0.776367	0.305420	0.328857	0.298510	-0.610538	-0.475555	-0.558554
23706		9.433367	1.612364	-1.957367	0.002048	0.003938	-0.000809	-0.781006	0.305908	0.333740	0.298567	-0.610486	-0.475561	-0.558576
23707		9.420156	1.622497	-1.942815	-0.003521	-0.000681	0.000252	-0.774414	0.306152	0.328613	0.298536	-0.610512	-0.475514	-0.558604
23708		9.447883	1.640194	-1.955730	-0.002000	0.001478	-0.003122	-0.771240	0.318604	0.340576	0.298530	-0.610486	-0.475511	-0.558637
23709		9.424290	1.596076	-1.918685	0.003671	0.001958	-0.003352	-0.776611	0.309082	0.336182	0.298504	-0.610552	-0.475429	-0.558649
23710		9.434053	1.586125	-1.868125	-0.000702	-0.001349	-0.003025	-0.777588	0.316895	0.333496	0.298451	-0.610589	-0.475394	-0.558666
23711		9.453804	1.622704	-1.902360	0.000602	-0.000652	-0.000167	-0.772949	0.314941	0.337891	0.298455	-0.610641	-0.475340	-0.558654
23712		9.471736	1.651415	-1.892170	0.001706	0.002183	-0.001332	-0.778809	0.313721	0.333252	0.298443	-0.610694	-0.475258	-0.558673
23713		9.445980	1.642250	-1.922365	-0.004233	0.003656	-0.001993	-0.772461	0.316406	0.329834	0.298422	-0.610708	-0.475181	-0.558734
23714		9.435406	1.631823	-1.937056	-0.002434	0.001246	-0.004075	-0.768555	0.306641	0.341064	0.298399	-0.610727	-0.475139	-0.558761
23715		9.434643	1.609650	-1.975410	0.006181	0.001352	-0.000827	-0.770264	0.313477	0.331787	0.298394	-0.610772	-0.475083	-0.558761
23716		9.440681	1.583125	-1.910047	0.002475	0.003717	-0.001438	-0.775635	0.313965	0.329590	0.298427	-0.610779	-0.475036	-0.558776
23717		9.430628	1.638268	-1.924119	0.001104	0.002835	-0.001165	-0.774902	0.320068	0.326172	0.298464	-0.610773	-0.475007	-0.558788
23718		9.451139	1.638502	-1.931143	0.004274	0.004378	-0.002339	-0.769043	0.314209	0.337158	0.298543	-0.610744	-0.474999	-0.558784
23719		9.429845	1.608990	-1.949595	0.005907	0.002852	-0.003301	-0.780518	0.307861	0.331787	0.298551	-0.610770	-0.474955	-0.558789
23720		9.435508	1.626284	-1.922205	-0.000092	0.001523	-0.000431	-0.774902	0.309570	0.331543	0.298568	-0.610758	-0.474938	-0.558808
23721		9.437045	1.620193	-1.868701	0.001707	0.002184	-0.001332	-0.772705	0.310303	0.331055	0.298592	-0.610750	-0.474919	-0.558820
23722		9.447951	1.587491	-1.888633	0.000159	0.001732	-0.001521	-0.779785	0.309814	0.332764	0.298600	-0.610755	-0.474887	-0.558836
23723		9.448450	1.602577	-1.911530	0.002469	0.003263	-0.003020	-0.778564	0.309814	0.327148	0.298621	-0.610723	-0.474884	-0.558863
23724		9.441048	1.636627	-1.955350	0.004109	0.002192	-0.002401	-0.779297	0.310547	0.331055	0.298683	-0.610667	-0.474924	-0.558858
23725		9.432685	1.590732	-1.902950	-0.001479	-0.000268	-0.003321	-0.772705	0.304932	0.334473	0.298659	-0.610667	-0.474915	-0.558878
23726		9.445558	1.574148	-1.905683	-0.000608	-0.002873	-0.002594	-0.779053	0.309814	0.333740	0.298606	-0.610702	-0.474899	-0.558881
23727		9.445076	1.618735	-1.870447	0.002067	-0.001293	-0.000008	-0.777100	0.311035	0.333252	0.298611	-0.610729	-0.474879	-0.558866
23728		9.451375	1.657845	-1.878567	0.001959	0.002392	-0.002423	-0.777344	0.303955	0.331787	0.298622	-0.610722	-0.474857	-0.558887
23729		9.441851	1.625714	-1.890436	-0.005102	0.003188	-0.003902	-0.779297	0.310303	0.327637	0.298582	-0.610692	-0.474829	-0.558965
23730		9.430533	1.592834	-1.943894	-0.005175	-0.000521	-0.003531	-0.774902	0.311523	0.325684	0.298546	-0.610687	-0.474818	-0.558998
23731		9.426666	1.584930	-1.941562	-0.001545	-0.003523	-0.001369	-0.777100	0.305176	0.329102	0.298543	-0.610707	-0.474826	-0.558972
