// Start Time: Unknown
// Update Rate: 40.0Hz
// Filter Profile: human (46.1)
// Firmware Version: 4.6.0
PacketCounter	SampleTimeFine	Acc_X	Acc_Y	Acc_Z	Gyr_X	Gyr_Y	Gyr_Z	Mag_X	Mag_Y	Mag_Z	Quat_q0	Quat_q1	Quat_q2	Quat_q3
23208		9.642955	1.488374	0.810330	-0.000825	-0.000136	-0.009415	-0.801270	-0.295410	0.474121	-0.173646	-0.674755	0.057646	-0.715003
23209		9.665864	1.545671	0.791515	-0.000930	0.003271	-0.011997	-0.795166	-0.294434	0.478760	-0.173763	-0.674732	0.057546	-0.715004
23210		9.639224	1.544863	0.799598	0.002985	-0.002273	-0.009643	-0.795166	-0.291016	0.475098	-0.173800	-0.674777	0.057445	-0.714961
23211		9.660954	1.499781	0.779454	0.005098	-0.000574	-0.011176	-0.797119	-0.291260	0.477295	-0.173808	-0.674810	0.057315	-0.714939
23212		9.647594	1.585332	0.796187	0.003930	-0.001105	-0.009571	-0.788818	-0.299072	0.476074	-0.173801	-0.674848	0.057211	-0.714913
23213		9.657916	1.543830	0.788254	0.003626	0.000959	-0.009329	-0.784668	-0.293945	0.477051	-0.173919	-0.674848	0.057078	-0.714895
23214		9.645706	1.487626	0.795603	0.001308	-0.000417	-0.009797	-0.793213	-0.292725	0.478027	-0.174003	-0.674868	0.056972	-0.714864
23215		9.667803	1.537384	0.818222	0.000507	0.000629	-0.011571	-0.788330	-0.300537	0.474609	-0.174071	-0.674886	0.056866	-0.714839
23216		9.666128	1.564295	0.777353	0.001718	0.002028	-0.009214	-0.790527	-0.290283	0.472900	-0.174218	-0.674872	0.056742	-0.714826
23217		9.645968	1.574759	0.787952	0.000866	0.000857	-0.006445	-0.792725	-0.289062	0.473877	-0.174237	-0.674884	0.056667	-0.714816
23218		9.649021	1.502759	0.790778	-0.000505	0.000647	-0.006842	-0.795898	-0.294434	0.474121	-0.174257	-0.674907	0.056593	-0.714795
23219		9.651063	1.549858	0.795418	-0.002306	0.006222	-0.005904	-0.793457	-0.291992	0.477295	-0.174335	-0.674878	0.056524	-0.714809
23220		9.639349	1.522647	0.771007	-0.003082	0.005289	-0.006528	-0.791260	-0.286133	0.480469	-0.174397	-0.674871	0.056457	-0.714806
23221		9.665417	1.485822	0.817819	-0.001961	0.001865	-0.008673	-0.786133	-0.292969	0.474365	-0.174399	-0.674916	0.056378	-0.714769
23222		9.643206	1.565492	0.804889	-0.005070	0.002956	-0.009510	-0.791992	-0.292725	0.470215	-0.174535	-0.674898	0.056309	-0.714759
23223		9.644590	1.540611	0.775650	-0.003673	0.001186	-0.007963	-0.798340	-0.287598	0.470947	-0.174643	-0.674876	0.056249	-0.714757
23224		9.639579	1.535858	0.781504	-0.006986	-0.000491	-0.007381	-0.789062	-0.298340	0.477539	-0.174704	-0.674875	0.056236	-0.714745
23225		9.626529	1.513762	0.777030	-0.003514	-0.000001	-0.009922	-0.791260	-0.287109	0.468506	-0.174863	-0.674932	0.056134	-0.714660
23226		9.638556	1.510050	0.814612	-0.001750	-0.003282	-0.008334	-0.787354	-0.298828	0.479004	-0.174898	-0.674952	0.056077	-0.714637
23227		9.652095	1.469613	0.792940	-0.001158	-0.000914	-0.011980	-0.794189	-0.293945	0.477295	-0.175049	-0.675035	0.055943	-0.714532
23228		9.663282	1.531221	0.785791	-0.000242	0.002236	-0.013056	-0.791260	-0.298096	0.470703	-0.175136	-0.675071	0.055816	-0.714487
23229		9.648215	1.589212	0.786976	0.001505	0.002359	-0.011211	-0.788574	-0.293457	0.473633	-0.175265	-0.675062	0.055690	-0.714473
23230		9.643480	1.562886	0.784371	-0.001202	0.001379	-0.009451	-0.792725	-0.299805	0.475342	-0.175345	-0.675078	0.055601	-0.714445
23231		9.620024	1.510216	0.803957	-0.002028	0.001315	-0.008954	-0.794678	-0.299805	0.479492	-0.175483	-0.675107	0.055512	-0.714391
23232		9.627629	1.529988	0.814548	0.001709	0.002038	-0.009209	-0.786377	-0.292480	0.480713	-0.175568	-0.675163	0.055388	-0.714327
23233		9.659541	1.537830	0.779966	-0.001322	0.000275	-0.010019	-0.790283	-0.293457	0.466553	-0.175610	-0.675237	0.055299	-0.714254
23234		9.655744	1.561322	0.801653	-0.002635	-0.003898	-0.008120	-0.795654	-0.292236	0.467529	-0.175699	-0.675223	0.055269	-0.714248
23235		9.644488	1.544458	0.804392	-0.000968	-0.000923	-0.006301	-0.791260	-0.299072	0.479736	-0.175725	-0.675187	0.055235	-0.714278
23236		9.627221	1.545212	0.772023	-0.000850	0.000182	-0.005733	-0.792969	-0.295166	0.469482	-0.175790	-0.675253	0.055169	-0.714205
23237		9.646553	1.508244	0.794997	-0.005849	-0.001072	-0.006712	-0.792969	-0.287109	0.479492	-0.175893	-0.675226	0.055170	-0.714204
23238		9.667786	1.506841	0.793026	-0.002075	0.003608	-0.006425	-0.794922	-0.300293	0.475586	-0.175801	-0.675253	0.055120	-0.714206
23239		9.649214	1.522473	0.812175	-0.004648	0.003419	-0.007773	-0.793701	-0.298828	0.476807	-0.175933	-0.675237	0.055085	-0.714191
23240		9.653312	1.520742	0.778410	0.003312	0.004465	-0.007673	-0.785400	-0.292480	0.468750	-0.175972	-0.675240	0.054978	-0.714186
23241		9.641264	1.516421	0.761701	-0.002091	0.000764	-0.009236	-0.790527	-0.289307	0.470459	-0.176046	-0.675212	0.054940	-0.714198
23242		9.624272	1.538253	0.787871	-0.001385	-0.000275	-0.010301	-0.787109	-0.289551	0.477051	-0.176038	-0.675202	0.054892	-0.714213
23243		9.658702	1.549636	0.810704	-0.002152	0.000212	-0.009520	-0.791504	-0.286865	0.477783	-0.176002	-0.675265	0.054827	-0.714167
23244		9.663979	1.513597	0.788252	0.005049	0.003170	-0.007233	-0.792969	-0.291748	0.472900	-0.175816	-0.675306	0.054713	-0.714183
23245		9.655180	1.520317	0.787496	0.003646	0.004939	-0.008778	-0.797119	-0.294678	0.469727	-0.175767	-0.675269	0.054619	-0.714237
23246		9.641375	1.552925	0.830441	0.004964	0.006022	-0.007258	-0.798828	-0.289795	0.470703	-0.175747	-0.675172	0.054548	-0.714339
23247		9.641100	1.512318	0.764479	0.000337	0.003253	-0.008197	-0.796387	-0.294678	0.470459	-0.175669	-0.675094	0.054511	-0.714435
23248		9.641895	1.542017	0.781444	-0.001885	0.000440	-0.007235	-0.790039	-0.298096	0.475098	-0.175699	-0.675044	0.054507	-0.714475
23249		9.637095	1.547472	0.816223	-0.002548	-0.000813	-0.008698	-0.785645	-0.293213	0.468262	-0.175800	-0.675089	0.054458	-0.714412
23250		9.648098	1.535534	0.775100	-0.002828	-0.000731	-0.007307	-0.791504	-0.297363	0.478516	-0.175880	-0.675072	0.054462	-0.714407
23251		9.669605	1.482028	0.797567	-0.001711	0.002098	-0.006382	-0.794922	-0.298584	0.468750	-0.175895	-0.675126	0.054399	-0.714357
23252		9.649956	1.542193	0.834019	0.005076	0.007131	-0.006688	-0.789307	-0.297607	0.477783	-0.175953	-0.675008	0.054339	-0.714459
23253		9.638847	1.555221	0.805383	0.002595	0.005510	-0.006605	-0.780273	-0.302246	0.469727	-0.175955	-0.675045	0.054236	-0.714431
23254		9.653182	1.491850	0.776253	-0.003257	0.000225	-0.007633	-0.790527	-0.290283	0.471680	-0.176241	-0.675063	0.054231	-0.714345
23255		9.629395	1.523330	0.808759	-0.003257	0.000226	-0.007633	-0.789062	-0.293457	0.465820	-0.176174	-0.675056	0.054221	-0.714369
23256		9.630655	1.530920	0.816947	-0.003240	0.001338	-0.009901	-0.797852	-0.299805	0.473389	-0.176260	-0.674968	0.054228	-0.714430
23257		9.652677	1.475803	0.768579	-0.000876	0.001856	-0.010552	-0.794434	-0.290283	0.473633	-0.176348	-0.674924	0.054174	-0.714454
23258		9.665594	1.500697	0.823483	-0.000261	0.002247	-0.013047	-0.792969	-0.294922	0.474121	-0.176242	-0.674916	0.054078	-0.714495
23259		9.651604	1.554347	0.803319	0.000505	0.001762	-0.013827	-0.798340	-0.302734	0.472168	-0.176247	-0.674925	0.053971	-0.714493
23260		9.639939	1.601021	0.811544	0.002688	0.002354	-0.010250	-0.797363	-0.304199	0.468994	-0.176367	-0.674861	0.053901	-0.714529
23261		9.631063	1.525374	0.747529	0.002955	0.002583	-0.007966	-0.791016	-0.291992	0.474121	-0.176532	-0.674757	0.053864	-0.714590
23262		9.654536	1.517967	0.773956	-0.000728	0.000979	-0.008835	-0.795654	-0.296143	0.474365	-0.176429	-0.674790	0.053801	-0.714588
23263		9.651213	1.529400	0.816842	0.001089	0.001351	-0.010379	-0.791748	-0.293213	0.473145	-0.176391	-0.674793	0.053717	-0.714602
23264		9.651700	1.549506	0.804446	0.004376	0.001931	-0.008689	-0.792236	-0.296875	0.476318	-0.176276	-0.674808	0.053619	-0.714622
23265		9.646563	1.535070	0.780829	0.005348	-0.000299	-0.008874	-0.796631	-0.294434	0.473145	-0.176205	-0.674884	0.053495	-0.714578
23266		9.631507	1.529951	0.776973	-0.000394	0.001451	-0.009940	-0.800537	-0.302246	0.469727	-0.176142	-0.674856	0.053440	-0.714624
23267		9.628034	1.531277	0.790898	-0.000280	0.002556	-0.009371	-0.791992	-0.288574	0.473145	-0.176266	-0.674736	0.053420	-0.714708
23268		9.655997	1.520652	0.782700	0.001800	0.001736	-0.010037	-0.794922	-0.294922	0.473145	-0.176068	-0.674755	0.053332	-0.714746
23269		9.665007	1.546283	0.801029	0.001575	0.000948	-0.009768	-0.792969	-0.293945	0.473389	-0.176003	-0.674753	0.053259	-0.714769
23270		9.650536	1.518883	0.788938	0.001257	0.003010	-0.009525	-0.788330	-0.291260	0.469482	-0.175927	-0.674750	0.053181	-0.714796
23271		9.637903	1.537053	0.780674	0.002288	0.001333	-0.009426	-0.793945	-0.294922	0.474121	-0.175855	-0.674745	0.053128	-0.714823
23272		9.640719	1.550310	0.796489	-0.001182	-0.000599	-0.008296	-0.786865	-0.294922	0.471191	-0.175792	-0.674772	0.053084	-0.714816
23273		9.641016	1.529946	0.788158	-0.000562	0.002637	-0.007981	-0.791748	-0.288818	0.473145	-0.175810	-0.674780	0.053050	-0.714806
23274		9.649555	1.475373	0.815075	-0.000495	0.002881	-0.011369	-0.791016	-0.297607	0.478760	-0.175648	-0.674788	0.052970	-0.714845
23275		9.658024	1.553299	0.808484	-0.002292	-0.003431	-0.009220	-0.787598	-0.292969	0.475342	-0.175622	-0.674925	0.052886	-0.714728
23276		9.651476	1.543540	0.805566	-0.001733	-0.002168	-0.010593	-0.794922	-0.298584	0.469482	-0.175563	-0.675028	0.052817	-0.714651
23277		9.651822	1.523378	0.796544	0.005555	-0.000613	-0.006872	-0.785400	-0.295654	0.473389	-0.175573	-0.674981	0.052781	-0.714695
23278		9.650177	1.559647	0.784144	0.000395	-0.002126	-0.007302	-0.794678	-0.296387	0.469482	-0.175572	-0.675068	0.052738	-0.714616
23279		9.627472	1.536233	0.769751	-0.002833	-0.000737	-0.007303	-0.792236	-0.299316	0.475586	-0.175604	-0.675006	0.052774	-0.714664
23280		9.663392	1.542574	0.771579	-0.001669	0.002648	-0.006095	-0.795166	-0.293701	0.475098	-0.175621	-0.675023	0.052736	-0.714647
23281		9.639045	1.493774	0.812840	0.001194	0.003883	-0.008402	-0.791504	-0.291748	0.474121	-0.175489	-0.675014	0.052662	-0.714693
23282		9.638135	1.558017	0.818409	-0.001712	0.004630	-0.007241	-0.786377	-0.300049	0.479248	-0.175366	-0.675006	0.052630	-0.714733
23283		9.651610	1.569164	0.773836	-0.004675	0.004825	-0.006365	-0.786865	-0.298340	0.477539	-0.175419	-0.675093	0.052564	-0.714643
23284		9.639575	1.524101	0.761545	-0.008858	0.001082	-0.006981	-0.787109	-0.293945	0.477051	-0.175489	-0.675176	0.052561	-0.714548
23285		9.657081	1.544147	0.781811	-0.006117	0.001520	-0.006184	-0.797363	-0.293701	0.465576	-0.175433	-0.675253	0.052554	-0.714489
23286		9.646742	1.514662	0.806035	-0.007768	-0.000041	-0.006598	-0.786865	-0.298828	0.471191	-0.175474	-0.675101	0.052693	-0.714613
23287		9.647231	1.504058	0.826764	-0.005519	-0.000620	-0.007816	-0.787109	-0.291992	0.476318	-0.175611	-0.675115	0.052721	-0.714563
23288		9.652957	1.468141	0.803687	0.004516	-0.001770	-0.009778	-0.795898	-0.290527	0.468750	-0.175454	-0.675241	0.052605	-0.714491
23289		9.661851	1.483971	0.792012	0.001394	-0.002120	-0.012020	-0.792969	-0.300537	0.469238	-0.175356	-0.675190	0.052590	-0.714565
23290		9.662961	1.492832	0.799178	-0.003925	-0.004180	-0.015570	-0.795410	-0.301514	0.474121	-0.175570	-0.675168	0.052576	-0.714534
23291		9.623476	1.620469	0.827867	-0.001503	0.001162	-0.011720	-0.796631	-0.290283	0.476318	-0.175662	-0.675152	0.052515	-0.714531
23292		9.625929	1.563867	0.760358	0.003757	0.001251	-0.009859	-0.791016	-0.291992	0.473145	-0.175410	-0.675179	0.052413	-0.714575
23293		9.646269	1.505810	0.774614	-0.000311	-0.001391	-0.009908	-0.797363	-0.289062	0.473145	-0.175313	-0.675213	0.052376	-0.714569
23294		9.668988	1.511314	0.779793	0.001503	-0.001012	-0.011450	-0.789062	-0.293213	0.472412	-0.175113	-0.675207	0.052321	-0.714628
23295		9.654004	1.556802	0.800585	0.001390	-0.002116	-0.012018	-0.791260	-0.292725	0.474609	-0.175076	-0.675255	0.052257	-0.714597
23296		9.635114	1.563111	0.789274	-0.007166	-0.001073	-0.010493	-0.796143	-0.300049	0.479004	-0.175044	-0.675286	0.052260	-0.714575
23297		9.630110	1.518651	0.799330	-0.001015	0.003600	-0.008300	-0.785645	-0.291504	0.465820	-0.175004	-0.675307	0.052165	-0.714572
23298		9.653567	1.581563	0.788617	0.000020	0.000506	-0.009606	-0.791016	-0.292480	0.468994	-0.175039	-0.675259	0.052202	-0.714606
23299		9.650997	1.570101	0.822765	0.000561	0.000960	-0.005043	-0.793701	-0.291260	0.473633	-0.174966	-0.675212	0.052236	-0.714666
23300		9.657648	1.471374	0.795666	0.002872	0.002053	-0.008241	-0.793945	-0.298584	0.471924	-0.174799	-0.675209	0.052170	-0.714714
23301		9.640329	1.532865	0.818147	0.003260	0.003080	-0.009061	-0.787842	-0.295410	0.475586	-0.174815	-0.675167	0.052106	-0.714754
23302		9.649058	1.538533	0.778486	0.003155	0.003091	-0.011895	-0.796387	-0.292725	0.471436	-0.174779	-0.675220	0.051976	-0.714722
23303		9.653991	1.535608	0.794065	0.010498	0.003796	-0.009294	-0.788330	-0.296875	0.474365	-0.174607	-0.675171	0.051856	-0.714820
23304		9.642035	1.541422	0.806604	0.004739	0.004408	-0.008094	-0.789551	-0.291748	0.474365	-0.174573	-0.675191	0.051754	-0.714816
23305		9.666298	1.452259	0.770655	0.008640	0.005093	-0.012566	-0.798096	-0.293945	0.476318	-0.174436	-0.675213	0.051584	-0.714842
23306		9.654815	1.566769	0.791499	0.009235	0.003261	-0.010526	-0.798584	-0.297119	0.472168	-0.174244	-0.675217	0.051418	-0.714897
23307		9.648263	1.577478	0.847318	0.015803	-0.000925	-0.009090	-0.786133	-0.297119	0.471436	-0.174100	-0.675214	0.051254	-0.714947
23308		9.644840	1.548592	0.772870	0.009503	0.002069	-0.009648	-0.787842	-0.299561	0.480469	-0.174107	-0.675239	0.051133	-0.714929
23309		9.642875	1.545564	0.765351	0.007093	0.003519	-0.010146	-0.797852	-0.294434	0.479248	-0.174058	-0.675347	0.050933	-0.714854
23310		9.630847	1.561721	0.807160	0.004406	0.005047	-0.009256	-0.798096	-0.296875	0.474609	-0.173886	-0.675355	0.050792	-0.714898
23311		9.666590	1.568565	0.810162	0.009938	0.009337	-0.004572	-0.790771	-0.296143	0.471436	-0.173735	-0.675274	0.050674	-0.715020
23312		9.627087	1.543349	0.765532	0.003851	0.008047	-0.003675	-0.797852	-0.287354	0.469238	-0.173699	-0.675201	0.050647	-0.715100
23313		9.654672	1.484346	0.804225	-0.001354	0.003117	-0.007197	-0.802002	-0.290039	0.472412	-0.173565	-0.675101	0.050689	-0.715223
23314		9.664030	1.567376	0.806207	0.001114	0.003335	-0.008680	-0.788330	-0.286621	0.473877	-0.173411	-0.675020	0.050659	-0.715339
23315		9.653712	1.567971	0.797431	-0.007773	0.001351	-0.005197	-0.790039	-0.294434	0.471436	-0.173300	-0.675042	0.050719	-0.715341
23316		9.634415	1.515131	0.803637	-0.006125	0.000076	-0.007588	-0.784668	-0.294434	0.469971	-0.173360	-0.675035	0.050761	-0.715331
23317		9.632678	1.481486	0.829569	0.000290	0.003265	-0.008185	-0.797363	-0.289551	0.473633	-0.173421	-0.675028	0.050746	-0.715323
23318		9.642836	1.532370	0.794019	0.000348	0.004932	-0.010166	-0.793701	-0.294678	0.476318	-0.173291	-0.674979	0.050687	-0.715405
23319		9.667791	1.521288	0.799934	-0.000254	0.004228	-0.011343	-0.805908	-0.293213	0.464844	-0.173257	-0.674986	0.050587	-0.715414
23320		9.661847	1.539569	0.814875	-0.005957	0.001426	-0.010406	-0.792236	-0.301514	0.473877	-0.173312	-0.674801	0.050681	-0.715568
23321		9.651479	1.540696	0.805766	-0.002453	0.000282	-0.008119	-0.793457	-0.295166	0.472412	-0.173418	-0.674817	0.050649	-0.715530
23322		9.627862	1.579557	0.796597	-0.000536	0.003193	-0.007689	-0.792725	-0.294678	0.477051	-0.173405	-0.674791	0.050621	-0.715560
23323		9.634777	1.520909	0.766396	-0.003828	0.005434	-0.006575	-0.792236	-0.294189	0.475586	-0.173351	-0.674794	0.050582	-0.715572
23324		9.652135	1.511350	0.820679	-0.003937	0.004329	-0.007142	-0.792236	-0.292480	0.469482	-0.173315	-0.674795	0.050557	-0.715582
23325		9.652452	1.530844	0.809034	-0.001853	0.003522	-0.007804	-0.791504	-0.300293	0.470947	-0.173312	-0.674741	0.050571	-0.715632
23326		9.642814	1.549342	0.787380	-0.008374	-0.000778	-0.007778	-0.794434	-0.297363	0.482910	-0.173475	-0.674728	0.050626	-0.715601
23327		9.644263	1.516607	0.799485	-0.009745	-0.001003	-0.008177	-0.784912	-0.285889	0.465820	-0.173448	-0.674832	0.050588	-0.715513
23328		9.633876	1.527639	0.819138	-0.009742	-0.002423	-0.009580	-0.790283	-0.291504	0.475098	-0.173495	-0.674821	0.050714	-0.715502
23329		9.645366	1.486218	0.811549	-0.004758	0.001417	-0.009452	-0.792236	-0.294189	0.477783	-0.173454	-0.674855	0.050693	-0.715483
23330		9.656210	1.534993	0.825302	-0.004266	0.001015	-0.008843	-0.790283	-0.296875	0.477051	-0.173405	-0.674907	0.050648	-0.715448
23331		9.667396	1.533745	0.813931	0.000450	0.002092	-0.010135	-0.787109	-0.287842	0.477783	-0.173391	-0.674960	0.050550	-0.715408
23332		9.643768	1.562741	0.775660	-0.005036	0.001493	-0.008065	-0.788330	-0.294189	0.466064	-0.173273	-0.675035	0.050530	-0.715367
23333		9.642250	1.518954	0.772203	-0.001087	0.000512	-0.007718	-0.788574	-0.297363	0.474121	-0.173348	-0.674990	0.050579	-0.715388
23334		9.656399	1.538614	0.805298	0.000121	-0.000920	-0.008170	-0.787109	-0.295898	0.468750	-0.173367	-0.675044	0.050534	-0.715336
23335		9.657591	1.546026	0.813183	0.000993	0.001128	-0.006976	-0.792480	-0.297607	0.475342	-0.173415	-0.675032	0.050540	-0.715335
23336		9.639233	1.501164	0.777208	-0.003117	0.000450	-0.008175	-0.795410	-0.297607	0.476074	-0.173434	-0.675056	0.050514	-0.715310
23337		9.665488	1.545043	0.815222	0.000828	0.000890	-0.006425	-0.792725	-0.293945	0.472900	-0.173380	-0.675076	0.050463	-0.715308
23338		9.634516	1.535711	0.828942	0.009430	0.003278	-0.004847	-0.791992	-0.301758	0.469971	-0.173235	-0.675075	0.050376	-0.715350
23339		9.659157	1.515489	0.755439	0.014797	0.005615	-0.004677	-0.792725	-0.292480	0.474365	-0.173197	-0.675034	0.050247	-0.715407
23340		9.657262	1.521351	0.777716	-0.002197	0.004468	-0.005295	-0.791748	-0.298828	0.476074	-0.173124	-0.675014	0.050249	-0.715444
23341		9.640811	1.519553	0.796031	0.001205	0.003338	-0.005840	-0.796631	-0.291260	0.469238	-0.173109	-0.675030	0.050194	-0.715436
23342		9.642591	1.544593	0.791922	0.001592	0.002948	-0.008062	-0.792480	-0.292969	0.473877	-0.173044	-0.674964	0.050185	-0.715514
23343		9.653382	1.592953	0.805624	0.001374	0.001040	-0.005531	-0.794434	-0.294434	0.477783	-0.172958	-0.674981	0.050163	-0.715521
23344		9.646987	1.514118	0.791221	0.001480	0.002146	-0.004963	-0.792969	-0.290039	0.470947	-0.172842	-0.675014	0.050109	-0.715521
23345		9.653801	1.505311	0.785155	0.004007	0.000389	-0.005299	-0.789062	-0.291992	0.476562	-0.172723	-0.675011	0.050096	-0.715554
23346		9.647475	1.494677	0.783378	0.000433	0.004932	-0.007327	-0.797607	-0.299805	0.481445	-0.172649	-0.675034	0.050040	-0.715554
23347		9.645635	1.568721	0.817740	0.004935	0.001571	-0.005224	-0.794678	-0.292236	0.472412	-0.172535	-0.675095	0.049917	-0.715533
23348		9.651336	1.514450	0.807940	0.006633	0.002276	-0.005927	-0.791504	-0.290771	0.472656	-0.172417	-0.675084	0.049859	-0.715575
23349		9.664076	1.450320	0.791685	0.002860	-0.000467	-0.007368	-0.788330	-0.295410	0.479980	-0.172338	-0.675110	0.049829	-0.715572
23350		9.639782	1.539550	0.806485	0.003529	-0.003469	-0.010114	-0.787354	-0.298340	0.469238	-0.172285	-0.675246	0.049711	-0.715465
23351		9.627985	1.535366	0.788629	-0.001415	-0.000273	-0.010280	-0.781982	-0.286377	0.468994	-0.172423	-0.675242	0.049707	-0.715436
23352		9.633566	1.482320	0.778601	-0.000976	-0.000110	-0.012217	-0.787842	-0.288818	0.476074	-0.172443	-0.675269	0.049708	-0.715405
23353		9.658461	1.549974	0.824872	0.001274	-0.000672	-0.013429	-0.798340	-0.289551	0.479004	-0.172393	-0.675342	0.049623	-0.715354
23354		9.644042	1.563078	0.808088	0.004611	0.000491	-0.011452	-0.800049	-0.298584	0.476074	-0.172233	-0.675385	0.049501	-0.715360
23355		9.625319	1.558830	0.767853	0.000551	0.000661	-0.008702	-0.789551	-0.297119	0.474854	-0.172219	-0.675376	0.049442	-0.715377
23356		9.648879	1.484365	0.782041	-0.003455	0.002197	-0.011598	-0.790771	-0.293945	0.474365	-0.172308	-0.675384	0.049403	-0.715350
23357		9.660630	1.549551	0.832940	-0.005700	0.001339	-0.011788	-0.796387	-0.295410	0.469727	-0.172374	-0.675388	0.049396	-0.715331
23358		9.629894	1.520867	0.788337	-0.002189	0.000205	-0.009501	-0.793701	-0.292236	0.477051	-0.172420	-0.675339	0.049409	-0.715365
23359		9.665627	1.528529	0.790100	-0.003559	-0.000024	-0.009901	-0.791016	-0.297607	0.478027	-0.172389	-0.675370	0.049386	-0.715345
23360		9.657788	1.513145	0.780010	-0.004107	-0.000177	-0.010793	-0.791992	-0.301025	0.464844	-0.172441	-0.675418	0.049344	-0.715290
23361		9.654286	1.514690	0.793475	-0.005529	-0.000959	-0.011476	-0.790283	-0.292480	0.477539	-0.172659	-0.675349	0.049396	-0.715299
23362		9.634269	1.543125	0.790944	-0.002517	-0.000573	-0.012063	-0.797119	-0.299805	0.473877	-0.172650	-0.675407	0.049348	-0.715250
23363		9.637797	1.534658	0.798513	-0.003522	0.003067	-0.010476	-0.791992	-0.299805	0.475342	-0.172723	-0.675362	0.049323	-0.715276
23364		9.648927	1.533756	0.787760	0.000469	0.005189	-0.010704	-0.796875	-0.292725	0.482178	-0.172776	-0.675344	0.049248	-0.715286
23365		9.660102	1.532756	0.776703	-0.003511	0.000530	-0.009615	-0.789307	-0.293213	0.474609	-0.172690	-0.675397	0.049201	-0.715259
23366		9.649878	1.571685	0.813409	-0.004126	0.002663	-0.007987	-0.784180	-0.296387	0.473633	-0.172696	-0.675398	0.049216	-0.715256
23367		9.637300	1.521020	0.792732	-0.001374	0.000587	-0.006327	-0.797119	-0.296875	0.465332	-0.172731	-0.675435	0.049225	-0.715213
23368		9.647773	1.473805	0.777288	0.002736	0.000978	-0.008792	-0.792236	-0.296143	0.467529	-0.172763	-0.675352	0.049222	-0.715283
23369		9.653648	1.516363	0.796423	-0.001490	0.001718	-0.011419	-0.791992	-0.291992	0.476074	-0.172851	-0.675297	0.049222	-0.715314
23370		9.657959	1.553648	0.808347	0.000841	0.006224	-0.011520	-0.793457	-0.301758	0.476562	-0.172809	-0.675281	0.049147	-0.715344
23371		9.645511	1.531969	0.804622	0.004260	0.002569	-0.011204	-0.786133	-0.287598	0.474854	-0.172835	-0.675298	0.049033	-0.715329
23372		9.660734	1.520171	0.799807	0.005934	-0.002348	-0.010469	-0.795166	-0.291260	0.473389	-0.172722	-0.675386	0.048959	-0.715279
23373		9.649204	1.544187	0.798426	-0.001751	-0.001047	-0.012836	-0.787109	-0.295410	0.466309	-0.172710	-0.675394	0.048929	-0.715277
23374		9.640991	1.597140	0.800454	0.005805	0.000505	-0.010494	-0.794189	-0.293701	0.476562	-0.172749	-0.675377	0.048886	-0.715286
23375		9.641292	1.521423	0.758436	0.004674	-0.002590	-0.008039	-0.789307	-0.294678	0.471924	-0.172647	-0.675437	0.048820	-0.715258
23376		9.642842	1.499189	0.799252	0.002731	0.000981	-0.008790	-0.791748	-0.297119	0.471680	-0.172639	-0.675443	0.048786	-0.715257
23377		9.655698	1.531996	0.812082	0.001789	0.002033	-0.013388	-0.790771	-0.291992	0.472656	-0.172699	-0.675427	0.048717	-0.715262
23378		9.653723	1.529671	0.804629	-0.001772	0.001489	-0.013695	-0.795166	-0.291504	0.468750	-0.172729	-0.675423	0.048679	-0.715261
23379		9.647802	1.538070	0.789734	0.002079	-0.000276	-0.010249	-0.789795	-0.289062	0.476074	-0.172696	-0.675393	0.048658	-0.715299
23380		9.645209	1.575275	0.777932	0.003043	0.002581	-0.012152	-0.785400	-0.291504	0.471436	-0.172618	-0.675421	0.048570	-0.715297
23381		9.619601	1.608899	0.760722	0.003438	0.001377	-0.008447	-0.791016	-0.295898	0.470703	-0.172584	-0.675438	0.048540	-0.715291
23382		9.655126	1.540903	0.792100	-0.001765	0.000670	-0.007769	-0.793457	-0.292969	0.477295	-0.172619	-0.675420	0.048560	-0.715299
23383		9.647920	1.495075	0.815668	0.002433	0.003595	-0.008263	-0.793701	-0.292480	0.469482	-0.172534	-0.675427	0.048497	-0.715317
23384		9.656041	1.540624	0.771902	0.001895	0.002023	-0.010557	-0.795166	-0.286865	0.475830	-0.172521	-0.675388	0.048465	-0.715359
23385		9.636060	1.596454	0.786432	-0.000306	0.003128	-0.009063	-0.792236	-0.291748	0.471924	-0.172401	-0.675379	0.048429	-0.715399
23386		9.631750	1.523933	0.780392	-0.003318	0.002734	-0.008478	-0.791504	-0.290771	0.468262	-0.172398	-0.675347	0.048447	-0.715428
23387		9.661211	1.529788	0.809329	-0.001108	0.000211	-0.011372	-0.790771	-0.291016	0.462891	-0.172418	-0.675321	0.048447	-0.715448
23388		9.626601	1.549947	0.802988	-0.001494	0.000597	-0.009153	-0.794434	-0.299561	0.471680	-0.172463	-0.675253	0.048498	-0.715499
23389		9.641878	1.537710	0.799214	-0.002471	0.005905	-0.009546	-0.800049	-0.296631	0.467773	-0.172544	-0.675183	0.048492	-0.715545
23390		9.651668	1.531039	0.780742	0.002752	0.004079	-0.009362	-0.793701	-0.288330	0.472168	-0.172544	-0.675093	0.048458	-0.715632
23391		9.642685	1.538042	0.779345	0.001427	-0.001530	-0.011705	-0.792725	-0.293945	0.473145	-0.172473	-0.675115	0.048406	-0.715632
23392		9.636662	1.584329	0.809247	-0.000579	-0.004144	-0.011303	-0.790527	-0.297119	0.470459	-0.172479	-0.675163	0.048380	-0.715587
23393		9.631284	1.534318	0.810482	0.000158	-0.000359	-0.007875	-0.792969	-0.297363	0.474609	-0.172514	-0.675163	0.048387	-0.715578
23394		9.651157	1.528663	0.800389	0.005782	0.001941	-0.009086	-0.792480	-0.305420	0.469238	-0.172478	-0.675176	0.048305	-0.715580
23395		9.639476	1.552242	0.800090	0.001701	0.004326	-0.010863	-0.788330	-0.291992	0.471191	-0.172624	-0.675119	0.048274	-0.715601
23396		9.648419	1.585726	0.777153	-0.001845	0.002655	-0.008910	-0.794434	-0.297607	0.478271	-0.172630	-0.675106	0.048278	-0.715612
23397		9.641812	1.557362	0.788013	-0.000127	0.001132	-0.005089	-0.785400	-0.292969	0.473389	-0.172581	-0.675132	0.048267	-0.715600
23398		9.638272	1.502139	0.768487	-0.000602	-0.001306	-0.008500	-0.793457	-0.301025	0.475830	-0.172582	-0.675182	0.048266	-0.715552
23399		9.659741	1.557822	0.799030	0.002558	0.000752	-0.008233	-0.789307	-0.295410	0.468018	-0.172597	-0.675203	0.048223	-0.715532
23400		9.634999	1.550848	0.785794	0.007197	0.002734	-0.008400	-0.803223	-0.296875	0.477539	-0.172576	-0.675179	0.048168	-0.715563
23401		9.641745	1.515115	0.763280	0.000479	0.000121	-0.008975	-0.789307	-0.289062	0.468262	-0.172518	-0.675179	0.048119	-0.715580
23402		9.659540	1.524441	0.803698	0.000303	0.001000	-0.010685	-0.794678	-0.294922	0.474365	-0.172503	-0.675163	0.048104	-0.715601
23403		9.641020	1.575765	0.797064	-0.002585	0.004797	-0.010112	-0.791992	-0.297607	0.479004	-0.172517	-0.675126	0.048085	-0.715633
23404		9.638180	1.556559	0.753072	0.000017	0.002492	-0.007900	-0.797119	-0.289795	0.484131	-0.172502	-0.675154	0.048050	-0.715612
23405		9.638083	1.538731	0.816001	-0.002272	0.001067	-0.008375	-0.793701	-0.294189	0.480713	-0.172377	-0.675210	0.048002	-0.715593
23406		9.651783	1.530809	0.832989	-0.000244	0.001147	-0.007915	-0.788574	-0.295898	0.480957	-0.172311	-0.675255	0.047961	-0.715569
23407		9.668248	1.516085	0.757877	0.000660	0.003455	-0.010101	-0.792725	-0.296143	0.468750	-0.172297	-0.675301	0.047891	-0.715534
23408		9.657107	1.537863	0.807367	0.003022	0.002597	-0.012143	-0.791748	-0.293945	0.471924	-0.172336	-0.675265	0.047841	-0.715562
23409		9.639511	1.577112	0.821141	0.000996	0.002816	-0.008941	-0.793701	-0.288330	0.482422	-0.172327	-0.675246	0.047820	-0.715584
23410		9.635330	1.552487	0.769094	0.005744	0.004492	-0.009940	-0.789551	-0.306152	0.482178	-0.172164	-0.675287	0.047694	-0.715592
23411		9.656186	1.534929	0.779909	0.000975	-0.000275	-0.008364	-0.794434	-0.298096	0.473877	-0.172219	-0.675365	0.047640	-0.715509
23412		9.641413	1.556915	0.792798	-0.001097	0.003602	-0.008283	-0.792725	-0.293213	0.475830	-0.172243	-0.675335	0.047633	-0.715532
23413		9.656799	1.572319	0.805627	0.001689	0.004631	-0.007198	-0.785889	-0.292725	0.470215	-0.172182	-0.675322	0.047601	-0.715561
23414		9.647907	1.550531	0.788244	0.003199	0.002019	-0.006770	-0.784912	-0.290771	0.474365	-0.172157	-0.675322	0.047595	-0.715567
23415		9.622883	1.553209	0.804192	0.001621	0.000987	-0.006904	-0.798096	-0.294189	0.480713	-0.172108	-0.675359	0.047586	-0.715545
23416		9.637041	1.534866	0.791926	0.000140	0.001061	-0.006471	-0.794434	-0.300293	0.472168	-0.172019	-0.675386	0.047558	-0.715543
23417		9.652507	1.522515	0.787507	0.000796	0.000605	-0.010072	-0.795898	-0.294434	0.470215	-0.172073	-0.675376	0.047534	-0.715541
23418		9.656559	1.531587	0.782405	0.000492	0.003215	-0.009549	-0.796631	-0.300537	0.477539	-0.172076	-0.675327	0.047519	-0.715588
23419		9.635851	1.569418	0.809250	0.001745	-0.000743	-0.009137	-0.795166	-0.294434	0.483643	-0.172078	-0.675357	0.047474	-0.715561
23420		9.635949	1.561166	0.780024	0.001458	0.000748	-0.006353	-0.794678	-0.298340	0.473389	-0.171977	-0.675417	0.047429	-0.715532
23421		9.638485	1.545886	0.779432	-0.001711	0.000100	-0.005221	-0.793945	-0.288818	0.471680	-0.171983	-0.675411	0.047466	-0.715534
23422		9.640551	1.541032	0.808297	-0.005416	0.002090	-0.009218	-0.794922	-0.300781	0.477539	-0.171983	-0.675376	0.047507	-0.715564
23423		9.662144	1.558501	0.794352	-0.003418	0.005009	-0.005958	-0.798584	-0.296875	0.472168	-0.172012	-0.675347	0.047525	-0.715583
23424		9.646081	1.546443	0.783512	-0.005849	0.001921	-0.007283	-0.794922	-0.287109	0.475098	-0.172050	-0.675299	0.047580	-0.715616
23425		9.623505	1.514486	0.811754	-0.006219	0.000886	-0.006466	-0.790527	-0.299316	0.472656	-0.171997	-0.675292	0.047639	-0.715632
23426		9.639338	1.519651	0.794997	0.000167	0.002738	-0.008446	-0.799805	-0.301270	0.469971	-0.172043	-0.675279	0.047634	-0.715633
23427		9.652598	1.587276	0.782514	-0.004176	-0.000449	-0.007406	-0.790283	-0.297607	0.475342	-0.172111	-0.675238	0.047686	-0.715651
23428		9.647657	1.536562	0.784341	-0.004997	-0.000533	-0.006915	-0.791504	-0.292969	0.474365	-0.172157	-0.675261	0.047738	-0.715615
23429		9.644359	1.509423	0.781353	-0.005934	-0.000603	-0.009249	-0.782715	-0.297363	0.473145	-0.172192	-0.675276	0.047781	-0.715591
23430		9.636631	1.549482	0.804240	-0.004906	0.000277	-0.010007	-0.794922	-0.287842	0.474365	-0.172300	-0.675304	0.047821	-0.715535
23431		9.663993	1.579583	0.792109	-0.003666	0.002246	-0.007372	-0.792725	-0.300537	0.474365	-0.172242	-0.675287	0.047850	-0.715563
23432		9.663988	1.598753	0.780414	-0.004405	0.004685	-0.004913	-0.793701	-0.294922	0.481689	-0.172288	-0.675248	0.047905	-0.715585
23433		9.640669	1.522840	0.755959	-0.006067	0.005637	-0.006189	-0.790283	-0.300049	0.476318	-0.172274	-0.675240	0.047934	-0.715594
23434		9.626855	1.532027	0.790295	-0.012873	0.001896	-0.007337	-0.791016	-0.293213	0.473145	-0.172406	-0.675230	0.048045	-0.715564
23435		9.638850	1.528126	0.829101	-0.009685	0.001427	-0.006209	-0.793701	-0.293457	0.474365	-0.172453	-0.675212	0.048149	-0.715563
23436		9.668645	1.477666	0.825201	-0.000366	0.001468	-0.007076	-0.796387	-0.294678	0.476562	-0.172416	-0.675213	0.048156	-0.715571
23437		9.656143	1.530526	0.791750	0.001945	0.004575	-0.008573	-0.793945	-0.292236	0.476074	-0.172366	-0.675196	0.048113	-0.715601
23438		9.646964	1.564878	0.807549	-0.001000	0.003300	-0.009110	-0.794189	-0.296875	0.473877	-0.172337	-0.675190	0.048098	-0.715615
23439		9.641278	1.544503	0.776625	-0.001575	0.001469	-0.008027	-0.792480	-0.294189	0.474121	-0.172348	-0.675184	0.048110	-0.715617
23440		9.620338	1.536014	0.800242	0.004456	0.005680	-0.006102	-0.793213	-0.291992	0.477295	-0.172278	-0.675160	0.048076	-0.715659
23441		9.645509	1.506995	0.818453	0.001019	0.000292	-0.008075	-0.791504	-0.288086	0.470703	-0.172217	-0.675195	0.048055	-0.715643
23442		9.649953	1.533420	0.799971	0.008991	-0.001025	-0.007084	-0.791748	-0.289062	0.473145	-0.172085	-0.675226	0.048000	-0.715649
23443		9.656780	1.553181	0.809758	0.001972	-0.001056	-0.007141	-0.796875	-0.302490	0.478027	-0.172010	-0.675254	0.047998	-0.715640
23444		9.642160	1.546845	0.805717	0.000133	0.001070	-0.006467	-0.786621	-0.288574	0.472656	-0.172014	-0.675267	0.047993	-0.715627
23445		9.618964	1.544730	0.799981	0.000284	-0.001781	-0.006442	-0.793701	-0.295654	0.472656	-0.171964	-0.675310	0.048021	-0.715596
23446		9.632058	1.566486	0.782875	0.000897	-0.002489	-0.006667	-0.795654	-0.299805	0.472412	-0.171944	-0.675338	0.048038	-0.715574
23447		9.641686	1.523818	0.788142	-0.002247	-0.001469	-0.007511	-0.790039	-0.298828	0.473877	-0.171986	-0.675341	0.048074	-0.715559
23448		9.656845	1.521326	0.812516	0.000537	-0.000433	-0.006425	-0.795410	-0.293701	0.486328	-0.172000	-0.675365	0.048093	-0.715531
23449		9.661026	1.529582	0.807091	-0.002718	0.000898	-0.006436	-0.788086	-0.300293	0.471680	-0.171933	-0.675424	0.048090	-0.715492
23450		9.644021	1.529755	0.774945	0.002478	0.001641	-0.007105	-0.793213	-0.292969	0.472656	-0.171965	-0.675427	0.048092	-0.715482
23451		9.652357	1.526998	0.776838	-0.002218	0.000500	-0.005827	-0.783936	-0.294189	0.479248	-0.171947	-0.675421	0.048140	-0.715488
23452		9.649785	1.497541	0.823655	-0.000466	0.000363	-0.007642	-0.792969	-0.301025	0.477295	-0.171945	-0.675483	0.048145	-0.715430
23453		9.660389	1.526286	0.778502	-0.002684	-0.001936	-0.009236	-0.789062	-0.298828	0.472900	-0.172004	-0.675523	0.048161	-0.715376
23454		9.652513	1.566123	0.801335	0.000653	0.002350	-0.007831	-0.791992	-0.297119	0.478760	-0.172038	-0.675519	0.048169	-0.715372
23455		9.631042	1.514211	0.770967	-0.000969	0.000760	-0.008250	-0.796387	-0.288818	0.474854	-0.172044	-0.675549	0.048170	-0.715342
23456		9.657359	1.518916	0.813079	0.002381	0.000538	-0.007672	-0.791504	-0.299316	0.469971	-0.171955	-0.675556	0.048153	-0.715358
23457		9.670036	1.523510	0.809343	0.006573	0.002080	-0.009558	-0.790283	-0.296875	0.477295	-0.171961	-0.675545	0.048102	-0.715370
23458		9.638337	1.544129	0.789573	0.007622	0.001839	-0.008057	-0.788330	-0.281738	0.473877	-0.171904	-0.675580	0.048034	-0.715355
23459		9.626519	1.521669	0.785054	0.000827	0.001175	-0.009781	-0.797363	-0.291992	0.471680	-0.171827	-0.675598	0.048020	-0.715358
23460		9.635809	1.507686	0.807385	-0.004191	-0.000748	-0.011061	-0.790771	-0.293701	0.472656	-0.171858	-0.675583	0.048046	-0.715363
23461		9.653057	1.537339	0.785134	0.000090	-0.001191	-0.011806	-0.788574	-0.296387	0.465820	-0.171889	-0.675605	0.048032	-0.715335
23462		9.673992	1.565970	0.799204	0.000573	-0.000171	-0.009797	-0.792236	-0.296387	0.477051	-0.171951	-0.675588	0.048054	-0.715335
23463		9.645031	1.551901	0.790974	-0.003116	-0.002112	-0.007302	-0.792236	-0.295898	0.470215	-0.171967	-0.675628	0.048097	-0.715291
23464		9.643785	1.520074	0.766562	0.001651	0.001559	-0.006613	-0.792480	-0.289062	0.476318	-0.171959	-0.675608	0.048115	-0.715310
23465		9.647679	1.510909	0.773955	-0.003050	0.000117	-0.008992	-0.781982	-0.291992	0.469971	-0.171938	-0.675625	0.048135	-0.715298
23466		9.645487	1.517542	0.795703	-0.003915	0.002569	-0.009359	-0.789307	-0.294434	0.479004	-0.172008	-0.675614	0.048187	-0.715288
23467		9.647443	1.513243	0.825112	-0.003506	0.004160	-0.009891	-0.795654	-0.285156	0.471436	-0.172042	-0.675616	0.048196	-0.715277
23468		9.656653	1.491307	0.769361	0.004443	0.003987	-0.011156	-0.792480	-0.284424	0.475342	-0.171955	-0.675583	0.048127	-0.715334
23469		9.667376	1.564555	0.778492	0.000747	0.001751	-0.012319	-0.798584	-0.298584	0.471924	-0.171900	-0.675592	0.048078	-0.715342
23470		9.627592	1.542349	0.803427	-0.002512	0.003074	-0.012330	-0.795166	-0.289062	0.467529	-0.171975	-0.675545	0.048075	-0.715369
23471		9.640500	1.519658	0.783690	-0.000344	0.001731	-0.010445	-0.800781	-0.284912	0.474609	-0.171966	-0.675504	0.048076	-0.715410
23472		9.655788	1.553714	0.783706	-0.000347	0.004825	-0.011018	-0.793701	-0.294434	0.472168	-0.171890	-0.675456	0.048032	-0.715476
23473		9.644694	1.547142	0.816823	0.005788	0.002560	-0.008778	-0.795410	-0.292480	0.476074	-0.171845	-0.675447	0.047985	-0.715498
23474		9.656042	1.546338	0.805322	0.004328	0.001209	-0.009747	-0.785156	-0.281982	0.477051	-0.171786	-0.675463	0.047929	-0.715502
23475		9.631108	1.503823	0.817283	0.006514	0.001545	-0.009835	-0.789551	-0.299072	0.475098	-0.171657	-0.675514	0.047842	-0.715490
23476		9.635069	1.513244	0.811936	0.005461	0.001784	-0.011335	-0.791260	-0.290771	0.476562	-0.171677	-0.675536	0.047780	-0.715468
23477		9.634525	1.579430	0.802999	0.006375	-0.000113	-0.010684	-0.792480	-0.294678	0.472168	-0.171608	-0.675581	0.047702	-0.715448
23478		9.636255	1.531788	0.777765	0.001935	0.000078	-0.009391	-0.788818	-0.285645	0.478271	-0.171609	-0.675587	0.047693	-0.715442
23479		9.664161	1.514893	0.811144	0.000724	0.000075	-0.010342	-0.794434	-0.291992	0.477295	-0.171549	-0.675633	0.047656	-0.715416
23480		9.617637	1.555229	0.803697	0.002843	0.001275	-0.009314	-0.795166	-0.298096	0.474121	-0.171497	-0.675650	0.047615	-0.715415
23481		9.632592	1.527642	0.761977	0.001684	-0.001269	-0.009408	-0.787109	-0.296387	0.469727	-0.171510	-0.675669	0.047608	-0.715394
23482		9.631807	1.557729	0.778208	-0.003965	-0.001084	-0.009066	-0.779785	-0.290771	0.469238	-0.171596	-0.675674	0.047676	-0.715364
23483		9.653453	1.512471	0.772099	-0.001780	-0.000747	-0.009154	-0.786377	-0.293213	0.477539	-0.171645	-0.675699	0.047722	-0.715326
23484		9.668628	1.528538	0.784056	-0.000556	0.000935	-0.010176	-0.787354	-0.298340	0.474609	-0.171662	-0.675733	0.047715	-0.715290
23485		9.649203	1.561638	0.789889	0.001150	0.003637	-0.009191	-0.791016	-0.289307	0.471680	-0.171704	-0.675729	0.047714	-0.715285
23486		9.637395	1.521243	0.798708	-0.001856	0.003209	-0.008612	-0.792236	-0.295898	0.478271	-0.171696	-0.675699	0.047734	-0.715313
23487		9.635125	1.527939	0.820703	0.001058	0.002532	-0.009757	-0.797119	-0.294189	0.475830	-0.171697	-0.675711	0.047710	-0.715304
23488		9.635442	1.537888	0.779284	0.002884	0.001832	-0.009029	-0.796143	-0.296875	0.469238	-0.171656	-0.675707	0.047677	-0.715319
23489		9.648093	1.542505	0.775787	0.004139	0.002391	-0.007795	-0.790771	-0.299561	0.474854	-0.171640	-0.675672	0.047669	-0.715356
23490		9.645835	1.548962	0.797996	0.004219	0.006590	-0.007803	-0.795166	-0.291016	0.467773	-0.171644	-0.675640	0.047646	-0.715387
23491		9.641096	1.543994	0.804454	0.003869	0.002458	-0.006413	-0.794434	-0.302734	0.476318	-0.171582	-0.675600	0.047645	-0.715440
23492		9.631280	1.498779	0.791805	0.001695	0.003796	-0.008298	-0.792480	-0.288330	0.472900	-0.171618	-0.675585	0.047646	-0.715445
23493		9.642341	1.561256	0.771536	-0.002285	-0.000354	-0.009762	-0.787842	-0.289307	0.476074	-0.171608	-0.675592	0.047660	-0.715440
23494		9.668989	1.520778	0.809781	-0.004079	-0.000778	-0.008233	-0.794922	-0.304932	0.475830	-0.171610	-0.675624	0.047702	-0.715407
23495		9.666172	1.511524	0.794172	0.002063	0.001744	-0.008538	-0.793701	-0.299805	0.475342	-0.171660	-0.675624	0.047709	-0.715394
23496		9.632525	1.554132	0.783114	0.003194	0.002321	-0.010126	-0.790039	-0.288330	0.478516	-0.171683	-0.675624	0.047684	-0.715390
23497		9.609193	1.552587	0.777975	-0.001794	0.002345	-0.009727	-0.792725	-0.293701	0.471680	-0.171660	-0.675639	0.047677	-0.715382
23498		9.653349	1.557133	0.781888	-0.003565	0.000503	-0.009597	-0.793945	-0.293213	0.468750	-0.171702	-0.675628	0.047717	-0.715380
23499		9.667527	1.486358	0.808241	-0.007905	0.003467	-0.009713	-0.791748	-0.302246	0.480713	-0.171785	-0.675564	0.047794	-0.715415
23500		9.652325	1.526134	0.809073	0.009264	0.005713	-0.009313	-0.793457	-0.299561	0.475342	-0.171757	-0.675576	0.047709	-0.715416
23501		9.648959	1.580641	0.785298	0.010429	0.005167	-0.008644	-0.788330	-0.292725	0.469482	-0.171704	-0.675567	0.047626	-0.715443
23502		9.647902	1.549246	0.761900	0.001070	0.004504	-0.008073	-0.792236	-0.302490	0.472412	-0.171707	-0.675531	0.047638	-0.715475
23503		9.635661	1.536428	0.787496	0.003187	0.005709	-0.007044	-0.794678	-0.291992	0.472900	-0.171736	-0.675491	0.047649	-0.715506
23504		9.646478	1.562801	0.793513	0.003623	0.006178	-0.005320	-0.790527	-0.295166	0.478027	-0.171660	-0.675445	0.047639	-0.715568
23505		9.656049	1.583576	0.791741	0.003386	0.006506	-0.007310	-0.796143	-0.292236	0.472900	-0.171627	-0.675429	0.047617	-0.715592
23506		9.653794	1.528247	0.773574	0.001393	0.005283	-0.005516	-0.788086	-0.297607	0.474121	-0.171570	-0.675383	0.047626	-0.715648
23507		9.625481	1.511256	0.816362	-0.000880	0.003833	-0.005996	-0.790771	-0.292725	0.475342	-0.171597	-0.675371	0.047678	-0.715650
23508		9.658626	1.508342	0.802813	0.003095	-0.000459	-0.008715	-0.785400	-0.292480	0.474365	-0.171565	-0.675407	0.047661	-0.715625
23509		9.640453	1.564425	0.802737	0.006750	-0.001851	-0.007257	-0.789307	-0.292969	0.468506	-0.171506	-0.675470	0.047638	-0.715581
23510		9.651936	1.545394	0.803301	0.001345	-0.000333	-0.006904	-0.794189	-0.293213	0.477783	-0.171497	-0.675472	0.047670	-0.715579
23511		9.652250	1.501574	0.799529	0.000996	0.000304	-0.008062	-0.790527	-0.299316	0.471436	-0.171467	-0.675497	0.047669	-0.715563
23512		9.638280	1.546816	0.807216	-0.002087	0.000439	-0.010026	-0.779785	-0.299072	0.468994	-0.171552	-0.675496	0.047714	-0.715541
23513		9.641065	1.550156	0.793794	-0.001277	-0.001146	-0.008542	-0.794678	-0.282715	0.476318	-0.171651	-0.675524	0.047788	-0.715485
23514		9.645061	1.541215	0.800826	0.000951	-0.000248	-0.008345	-0.793701	-0.295166	0.477783	-0.171548	-0.675548	0.047760	-0.715490
23515		9.641664	1.559694	0.801487	-0.004192	-0.000477	-0.007400	-0.790771	-0.291504	0.466797	-0.171571	-0.675568	0.047819	-0.715461
23516		9.634677	1.543062	0.791098	-0.006383	-0.002499	-0.005341	-0.796387	-0.293213	0.468262	-0.171601	-0.675561	0.047935	-0.715453
23517		9.641987	1.569911	0.759611	-0.009868	0.001103	-0.005667	-0.783691	-0.297852	0.469971	-0.171657	-0.675507	0.048066	-0.715482
23518		9.638549	1.534325	0.799332	-0.014613	0.002467	-0.005253	-0.787598	-0.289551	0.470947	-0.171818	-0.675468	0.048269	-0.715466
23519		9.651947	1.492348	0.792994	-0.007156	0.004703	-0.005434	-0.794678	-0.295654	0.468750	-0.171842	-0.675421	0.048365	-0.715498
23520		9.656520	1.533813	0.813024	-0.002524	0.003650	-0.005015	-0.784180	-0.293213	0.466797	-0.171852	-0.675368	0.048438	-0.715541
23521		9.664445	1.515072	0.778487	-0.001243	0.002796	-0.005178	-0.787109	-0.290527	0.485352	-0.171869	-0.675342	0.048513	-0.715556
23522		9.640064	1.489050	0.778300	0.001210	0.003076	-0.006645	-0.787109	-0.301514	0.471924	-0.171809	-0.675392	0.048506	-0.715523
23523		9.638305	1.546601	0.811864	-0.000750	0.002112	-0.008223	-0.793457	-0.294922	0.475830	-0.171892	-0.675389	0.048565	-0.715502
23524		9.648518	1.539875	0.793230	-0.001547	0.005666	-0.008024	-0.792480	-0.292725	0.476807	-0.171905	-0.675355	0.048587	-0.715530
23525		9.656847	1.555029	0.783435	-0.004554	0.003547	-0.005478	-0.795654	-0.289062	0.471680	-0.171904	-0.675339	0.048655	-0.715541
23526		9.655370	1.514960	0.801842	-0.010646	0.001561	-0.004896	-0.792236	-0.303223	0.467285	-0.171922	-0.675300	0.048778	-0.715565
23527		9.624791	1.539580	0.790616	-0.009431	0.003249	-0.005915	-0.788574	-0.294434	0.474121	-0.172063	-0.675237	0.048938	-0.715580
23528		9.623299	1.499633	0.809053	-0.005460	0.002349	-0.005555	-0.791260	-0.301758	0.474121	-0.172098	-0.675229	0.049032	-0.715573
23529		9.671902	1.510310	0.807830	-0.006714	0.001787	-0.006790	-0.798096	-0.296387	0.475586	-0.172200	-0.675217	0.049148	-0.715552
23530		9.667982	1.477354	0.797703	-0.001130	0.004170	-0.007979	-0.792969	-0.300293	0.476562	-0.172205	-0.675187	0.049168	-0.715577
23531		9.666811	1.489445	0.828045	-0.004328	0.004612	-0.009111	-0.783203	-0.289062	0.470703	-0.172288	-0.675163	0.049227	-0.715575
23532		9.627775	1.552880	0.839595	-0.005867	0.002147	-0.010648	-0.791260	-0.299072	0.468018	-0.172353	-0.675159	0.049279	-0.715560
23533		9.629332	1.550666	0.818821	0.000529	0.001266	-0.008384	-0.787842	-0.294434	0.469971	-0.172396	-0.675145	0.049317	-0.715560
23534		9.638467	1.538351	0.791348	-0.000728	-0.000976	-0.007649	-0.795410	-0.296387	0.478271	-0.172415	-0.675164	0.049366	-0.715534
23535		9.673294	1.556822	0.822329	-0.002984	-0.000463	-0.006448	-0.788818	-0.293457	0.474365	-0.172420	-0.675189	0.049426	-0.715506
23536		9.643471	1.536226	0.806500	-0.002588	0.001132	-0.006978	-0.788330	-0.297852	0.468018	-0.172432	-0.675200	0.049482	-0.715488
23537		9.661365	1.501501	0.793559	0.000454	0.000448	-0.005298	-0.792725	-0.300781	0.476318	-0.172446	-0.675198	0.049549	-0.715483
23538		9.636368	1.520807	0.796099	-0.000380	-0.003295	-0.004522	-0.792725	-0.302979	0.468994	-0.172454	-0.675249	0.049632	-0.715426
23539		9.647283	1.529012	0.812900	-0.000845	-0.002348	-0.004847	-0.785889	-0.295166	0.482910	-0.172496	-0.675262	0.049730	-0.715397
23540		9.673916	1.490029	0.801226	0.000764	0.000937	-0.006394	-0.787842	-0.291260	0.469482	-0.172485	-0.675321	0.049767	-0.715342
23541		9.655104	1.512173	0.777286	-0.002253	-0.001474	-0.007503	-0.789551	-0.296143	0.471680	-0.172492	-0.675338	0.049821	-0.715321
23542		9.671390	1.515754	0.809727	0.001694	0.000725	-0.007714	-0.794434	-0.291504	0.469238	-0.172496	-0.675348	0.049845	-0.715308
23543		9.650568	1.542426	0.807272	0.006500	0.001891	-0.006160	-0.796631	-0.291016	0.471924	-0.172402	-0.675337	0.049813	-0.715343
23544		9.642442	1.520273	0.789439	0.010135	0.003601	-0.005275	-0.789551	-0.292969	0.463135	-0.172259	-0.675324	0.049746	-0.715395
23545		9.636653	1.527081	0.774660	0.007006	0.001497	-0.005552	-0.786377	-0.289062	0.468506	-0.172192	-0.675305	0.049737	-0.715430
23546		9.643956	1.501170	0.780878	-0.000308	-0.002477	-0.007606	-0.791016	-0.300781	0.466797	-0.172177	-0.675335	0.049773	-0.715403
23547		9.654671	1.527957	0.785310	-0.001239	-0.000583	-0.008256	-0.789795	-0.299561	0.469971	-0.172251	-0.675328	0.049845	-0.715386
23548		9.639438	1.531476	0.810287	-0.004551	-0.001519	-0.006586	-0.799561	-0.288818	0.475098	-0.172328	-0.675336	0.049957	-0.715352
23549		9.646325	1.507611	0.766929	0.001536	0.000480	-0.007165	-0.793457	-0.299316	0.478027	-0.172245	-0.675340	0.049941	-0.715369
23550		9.650345	1.516180	0.761677	0.004664	0.002586	-0.006888	-0.788574	-0.292725	0.477295	-0.172226	-0.675355	0.049945	-0.715360
23551		9.656692	1.518347	0.785477	-0.000947	0.004968	-0.008242	-0.792969	-0.290771	0.468994	-0.172236	-0.675345	0.049967	-0.715365
23552		9.634638	1.504113	0.801602	-0.002822	0.005107	-0.009253	-0.788574	-0.292725	0.473145	-0.172254	-0.675291	0.049989	-0.715411
23553		9.654717	1.499182	0.792748	0.004041	0.004970	-0.008633	-0.796875	-0.294678	0.476562	-0.172230	-0.675277	0.049967	-0.715431
23554		9.649870	1.512442	0.786980	0.001276	0.007554	-0.010012	-0.790771	-0.297119	0.474854	-0.172230	-0.675230	0.049942	-0.715477
23555		9.652497	1.498468	0.788463	-0.004182	0.010179	-0.011915	-0.789062	-0.292236	0.473877	-0.172331	-0.675156	0.049966	-0.715520
23556		9.652109	1.534753	0.815242	-0.006647	0.007924	-0.012133	-0.791260	-0.292725	0.469482	-0.172424	-0.675099	0.050000	-0.715550
23557		9.641687	1.535873	0.807627	-0.005829	0.006340	-0.010650	-0.794678	-0.291748	0.478027	-0.172498	-0.675035	0.050044	-0.715589
23558		9.638963	1.509240	0.805861	-0.002950	0.003449	-0.010103	-0.793457	-0.293701	0.472412	-0.172512	-0.675030	0.050055	-0.715590
23559		9.653804	1.543321	0.805263	0.002106	-0.002736	-0.009351	-0.785645	-0.288086	0.468018	-0.172497	-0.675071	0.050054	-0.715555
23560		9.666421	1.479216	0.802151	-0.005765	0.000149	-0.009508	-0.789551	-0.294678	0.481445	-0.172540	-0.675070	0.050113	-0.715541
23561		9.671566	1.476377	0.817332	-0.001212	-0.000312	-0.011622	-0.787109	-0.285156	0.475098	-0.172580	-0.675125	0.050120	-0.715479
23562		9.626666	1.527717	0.825846	-0.000389	0.003434	-0.012396	-0.794678	-0.289062	0.471680	-0.172570	-0.675131	0.050079	-0.715479
23563		9.621663	1.559253	0.806795	0.004218	0.003813	-0.010574	-0.796387	-0.295898	0.475586	-0.172516	-0.675113	0.050016	-0.715513
23564		9.650208	1.534834	0.761916	-0.000695	0.001261	-0.009331	-0.791260	-0.301514	0.477295	-0.172530	-0.675117	0.050032	-0.715505
23565		9.655329	1.531857	0.777537	0.001215	0.003361	-0.010003	-0.792236	-0.291992	0.475342	-0.172584	-0.675124	0.050048	-0.715485
23566		9.640185	1.551368	0.840220	0.003095	0.001544	-0.007021	-0.795166	-0.298340	0.474609	-0.172529	-0.675140	0.050041	-0.715483
23567		9.648222	1.551023	0.792598	0.001850	0.002945	-0.006575	-0.793213	-0.302734	0.468018	-0.172519	-0.675131	0.050066	-0.715492
23568		9.636116	1.486713	0.805811	-0.001473	0.001716	-0.008559	-0.795410	-0.297363	0.467285	-0.172598	-0.675107	0.050132	-0.715491
23569		9.643576	1.494773	0.836863	0.001760	-0.000127	-0.008823	-0.795654	-0.298584	0.465820	-0.172608	-0.675101	0.050148	-0.715493
23570		9.637531	1.520329	0.809176	-0.000317	0.000892	-0.011540	-0.796631	-0.290771	0.472656	-0.172671	-0.675076	0.050163	-0.715500
23571		9.662973	1.546052	0.789195	0.000005	0.001667	-0.008986	-0.792480	-0.303223	0.473389	-0.172643	-0.675068	0.050157	-0.715515
23572		9.675794	1.515578	0.811273	-0.006593	0.001727	-0.010989	-0.788574	-0.294434	0.474365	-0.172784	-0.675056	0.050248	-0.715486
23573		9.651387	1.508386	0.798071	-0.003715	0.000524	-0.012409	-0.791016	-0.293213	0.469482	-0.172861	-0.675074	0.050276	-0.715449
23574		9.653086	1.540152	0.801039	-0.000433	-0.002447	-0.010421	-0.788574	-0.295410	0.466064	-0.172880	-0.675102	0.050291	-0.715416
23575		9.644141	1.529143	0.811457	-0.007930	-0.003594	-0.012503	-0.788574	-0.298828	0.470703	-0.173006	-0.675118	0.050374	-0.715365
23576		9.638421	1.468285	0.796779	-0.002861	-0.002471	-0.012325	-0.790771	-0.291260	0.475098	-0.173104	-0.675150	0.050420	-0.715307
23577		9.648436	1.532038	0.775974	0.001496	-0.000071	-0.014459	-0.792969	-0.303711	0.469482	-0.173123	-0.675184	0.050366	-0.715275
23578		9.650049	1.597546	0.803796	-0.001021	0.002457	-0.010200	-0.794434	-0.294678	0.468994	-0.173211	-0.675161	0.050415	-0.715272
23579		9.629221	1.521830	0.777873	-0.001553	-0.001070	-0.007156	-0.793213	-0.293701	0.471191	-0.173208	-0.675162	0.050462	-0.715268
23580		9.648756	1.509278	0.809059	-0.000047	-0.004495	-0.010662	-0.788574	-0.289551	0.471191	-0.173216	-0.675211	0.050471	-0.715220
23581		9.654789	1.547592	0.805687	-0.001641	-0.004141	-0.009404	-0.791260	-0.298584	0.473389	-0.173210	-0.675261	0.050494	-0.715173
23582		9.647873	1.549218	0.781841	0.001529	-0.003153	-0.006873	-0.793701	-0.293457	0.476562	-0.173207	-0.675308	0.050540	-0.715125
23583		9.650061	1.510856	0.785310	-0.004595	-0.002082	-0.006868	-0.793945	-0.304199	0.467529	-0.173212	-0.675339	0.050609	-0.715090
23584		9.657741	1.500873	0.828944	0.000033	0.002226	-0.008699	-0.792480	-0.292725	0.477539	-0.173280	-0.675309	0.050664	-0.715098
23585		9.636240	1.529891	0.776712	0.000343	-0.000930	-0.009508	-0.788574	-0.298096	0.469727	-0.173264	-0.675347	0.050663	-0.715065
23586		9.654412	1.529784	0.787851	0.000688	0.000115	-0.010320	-0.799805	-0.299072	0.480957	-0.173309	-0.675358	0.050686	-0.715043
23587		9.676091	1.495528	0.811074	0.014335	0.002441	-0.009928	-0.793213	-0.293701	0.476562	-0.173202	-0.675393	0.050560	-0.715045
23588		9.639439	1.526856	0.783973	0.015647	0.003834	-0.011774	-0.798828	-0.299072	0.473877	-0.173087	-0.675418	0.050397	-0.715061
23589		9.625922	1.527179	0.788352	0.008156	0.004640	-0.012174	-0.790283	-0.299561	0.475586	-0.173065	-0.675398	0.050311	-0.715090
23590		9.640765	1.526655	0.813545	0.003632	0.001704	-0.013140	-0.801758	-0.301025	0.469482	-0.173111	-0.675419	0.050279	-0.715062
23591		9.667552	1.490016	0.802301	-0.000507	0.000367	-0.014636	-0.798584	-0.292725	0.471436	-0.173191	-0.675399	0.050265	-0.715062
23592		9.657962	1.515712	0.788483	-0.002831	0.003677	-0.017657	-0.790771	-0.283447	0.480225	-0.173270	-0.675361	0.050209	-0.715083
23593		9.637498	1.550146	0.794596	0.002553	0.003621	-0.016606	-0.791016	-0.292725	0.469727	-0.173242	-0.675380	0.050081	-0.715081
23594		9.624602	1.607787	0.819065	0.003543	0.006217	-0.012312	-0.794678	-0.296387	0.465820	-0.173241	-0.675338	0.050022	-0.715125
23595		9.628803	1.532582	0.778612	0.001223	0.003924	-0.009713	-0.796875	-0.297119	0.467773	-0.173254	-0.675290	0.050022	-0.715167
23596		9.657630	1.524501	0.771118	0.011806	0.004971	-0.012678	-0.789307	-0.298828	0.473145	-0.173202	-0.675261	0.049899	-0.715216
23597		9.643709	1.576111	0.787185	0.002849	0.002161	-0.012367	-0.795654	-0.294189	0.470459	-0.173245	-0.675269	0.049879	-0.715199
23598		9.651122	1.551428	0.794104	-0.000414	0.001755	-0.010419	-0.792969	-0.288574	0.473633	-0.173255	-0.675252	0.049877	-0.715213
23599		9.642223	1.540055	0.805600	0.007931	0.003584	-0.008539	-0.791016	-0.291504	0.472900	-0.173144	-0.675252	0.049790	-0.715246
23600		9.650277	1.556242	0.794953	0.009445	0.002128	-0.010361	-0.791992	-0.295410	0.469482	-0.173061	-0.675270	0.049694	-0.715256
23601		9.636814	1.540132	0.762049	0.006564	0.003320	-0.008943	-0.792725	-0.295410	0.473145	-0.173020	-0.675257	0.049653	-0.715281
23602		9.656221	1.528195	0.794692	0.000970	0.004253	-0.011699	-0.799805	-0.290527	0.465332	-0.173044	-0.675236	0.049631	-0.715297
23603		9.663371	1.537356	0.826469	0.003377	0.004006	-0.013442	-0.783447	-0.300293	0.468018	-0.173026	-0.675184	0.049552	-0.715355
23604		9.638456	1.565768	0.787897	0.003867	0.001380	-0.011147	-0.797363	-0.293701	0.477295	-0.173080	-0.675196	0.049558	-0.715331
23605		9.632451	1.589562	0.810000	0.003164	0.000972	-0.011491	-0.793945	-0.294922	0.474121	-0.173054	-0.675214	0.049505	-0.715323
23606		9.657404	1.540925	0.783134	0.002975	0.002139	-0.009547	-0.792480	-0.297119	0.474609	-0.173033	-0.675216	0.049482	-0.715328
23607		9.635318	1.560220	0.822603	-0.002790	0.000585	-0.010072	-0.785156	-0.296875	0.469727	-0.173082	-0.675224	0.049521	-0.715306
23608		9.650500	1.525724	0.823473	0.002954	0.003823	-0.011515	-0.792969	-0.295166	0.471191	-0.173119	-0.675214	0.049505	-0.715308
23609		9.653642	1.570777	0.793404	0.002025	0.004027	-0.010198	-0.786377	-0.293457	0.469238	-0.173120	-0.675190	0.049487	-0.715332
23610		9.629650	1.545372	0.793125	-0.002450	0.001630	-0.010883	-0.790771	-0.292969	0.470703	-0.173170	-0.675184	0.049513	-0.715323
23611		9.643252	1.556476	0.797264	-0.000250	-0.001650	-0.010675	-0.794922	-0.299316	0.469238	-0.173182	-0.675208	0.049517	-0.715297
23612		9.656903	1.567343	0.801214	0.004659	0.001219	-0.008267	-0.792480	-0.294434	0.476562	-0.173167	-0.675204	0.049515	-0.715305
23613		9.649212	1.545266	0.783373	-0.001218	0.001933	-0.006284	-0.789307	-0.295166	0.475098	-0.173148	-0.675207	0.049554	-0.715304
23614		9.638398	1.521846	0.778750	-0.004288	-0.001612	-0.007960	-0.794922	-0.287109	0.476562	-0.173182	-0.675238	0.049623	-0.715262
23615		9.643626	1.518870	0.793847	-0.001164	0.000791	-0.011043	-0.794678	-0.296143	0.472168	-0.173151	-0.675250	0.049588	-0.715260
23616		9.674042	1.573219	0.813357	0.001640	0.002431	-0.009667	-0.786377	-0.289795	0.474854	-0.173151	-0.675238	0.049582	-0.715272
23617		9.643171	1.580579	0.814274	0.002190	0.002594	-0.008776	-0.788818	-0.301270	0.479492	-0.173111	-0.675251	0.049557	-0.715271
23618		9.651985	1.529076	0.754971	-0.000081	0.000847	-0.005896	-0.790771	-0.299561	0.470459	-0.173126	-0.675281	0.049621	-0.715235
23619		9.616593	1.488096	0.778674	-0.001129	0.001344	-0.010759	-0.791504	-0.297119	0.471436	-0.173191	-0.675275	0.049656	-0.715222
23620		9.655353	1.556508	0.787033	0.000425	0.000446	-0.012297	-0.799316	-0.294189	0.468018	-0.173238	-0.675284	0.049652	-0.715203
23621		9.655184	1.541459	0.800619	0.002501	0.007292	-0.009876	-0.791260	-0.293701	0.469971	-0.173217	-0.675210	0.049616	-0.715280
23622		9.659599	1.499729	0.784767	0.004456	0.004345	-0.011653	-0.792480	-0.295654	0.472900	-0.173207	-0.675188	0.049561	-0.715307
23623		9.649161	1.591428	0.819786	0.002903	0.003278	-0.011793	-0.783447	-0.296387	0.473633	-0.173215	-0.675180	0.049524	-0.715315
23624		9.620668	1.577136	0.812080	0.001162	0.001410	-0.011669	-0.791992	-0.296875	0.473633	-0.173260	-0.675204	0.049522	-0.715282
23625		9.628680	1.519138	0.794558	0.004818	0.001745	-0.012174	-0.789307	-0.303711	0.472656	-0.173262	-0.675217	0.049472	-0.715273
23626		9.662425	1.557475	0.813190	0.003152	0.000983	-0.011484	-0.792480	-0.294922	0.471191	-0.173321	-0.675234	0.049479	-0.715241
23627		9.663999	1.571553	0.829400	0.004149	0.003854	-0.010557	-0.792236	-0.297119	0.469482	-0.173305	-0.675217	0.049438	-0.715264
23628		9.640334	1.514430	0.755054	0.010233	0.004236	-0.009156	-0.785400	-0.294922	0.482422	-0.173242	-0.675205	0.049365	-0.715297
23629		9.645079	1.545306	0.794132	0.008340	-0.004049	-0.010153	-0.792969	-0.299561	0.469238	-0.173183	-0.675315	0.049303	-0.715211
23630		9.622179	1.600280	0.806594	0.004319	-0.003751	-0.010804	-0.795654	-0.295654	0.472656	-0.173195	-0.675359	0.049298	-0.715167
23631		9.647844	1.592718	0.761365	0.000218	-0.000627	-0.008666	-0.789062	-0.289307	0.475098	-0.173189	-0.675370	0.049315	-0.715157
23632		9.662679	1.534571	0.766970	-0.003720	0.003013	-0.010438	-0.790771	-0.299316	0.471436	-0.173206	-0.675360	0.049322	-0.715161
23633		9.644111	1.594155	0.825499	-0.003580	0.001024	-0.009300	-0.795410	-0.296387	0.476318	-0.173274	-0.675354	0.049389	-0.715146
23634		9.629880	1.571791	0.784903	-0.002143	0.002401	-0.008329	-0.795898	-0.297852	0.466309	-0.173286	-0.675344	0.049421	-0.715150
23635		9.637897	1.587308	0.774769	-0.000120	0.004496	-0.006186	-0.792969	-0.289551	0.463379	-0.173285	-0.675288	0.049468	-0.715201
23636		9.645484	1.520347	0.799963	-0.006391	0.003310	-0.007322	-0.789307	-0.294678	0.480957	-0.173305	-0.675226	0.049536	-0.715249
23637		9.661165	1.541916	0.820427	0.004933	0.001458	-0.005993	-0.782959	-0.297363	0.472656	-0.173232	-0.675265	0.049520	-0.715231
23638		9.661004	1.527821	0.783775	0.007633	0.003683	-0.007149	-0.793945	-0.294922	0.475830	-0.173189	-0.675276	0.049498	-0.715233
23639		9.647249	1.544633	0.775830	-0.003579	0.005226	-0.009308	-0.791748	-0.294189	0.473877	-0.173221	-0.675240	0.049526	-0.715257
23640		9.652388	1.541646	0.792235	-0.005130	0.004155	-0.009449	-0.790283	-0.303711	0.472656	-0.173268	-0.675210	0.049572	-0.715271
23641		9.630387	1.586028	0.778087	-0.004095	0.005615	-0.009916	-0.793945	-0.291260	0.478271	-0.173375	-0.675167	0.049646	-0.715280
23642		9.651059	1.563943	0.781816	-0.002768	0.001131	-0.009785	-0.794922	-0.298584	0.469482	-0.173374	-0.675179	0.049651	-0.715269
23643		9.621575	1.559017	0.803329	-0.004025	0.002520	-0.009343	-0.789551	-0.302979	0.476562	-0.173435	-0.675147	0.049711	-0.715280
23644		9.636679	1.542203	0.791652	-0.004498	0.001496	-0.011346	-0.785400	-0.293457	0.477539	-0.173545	-0.675155	0.049776	-0.715241
23645		9.648549	1.581223	0.812906	-0.002364	0.003287	-0.010030	-0.792969	-0.291992	0.478027	-0.173574	-0.675161	0.049791	-0.715227
23646		9.641963	1.565169	0.803401	-0.003513	0.002132	-0.008734	-0.793701	-0.294189	0.470459	-0.173576	-0.675163	0.049813	-0.715224
23647		9.645790	1.574047	0.798211	-0.004104	-0.000824	-0.008223	-0.794678	-0.292969	0.476074	-0.173598	-0.675165	0.049870	-0.715212
23648		9.636592	1.538595	0.814110	0.001537	0.001065	-0.006863	-0.797852	-0.293701	0.475342	-0.173545	-0.675177	0.049869	-0.715214
23649		9.626253	1.540869	0.754973	-0.000629	0.000958	-0.010145	-0.791992	-0.296387	0.478760	-0.173539	-0.675180	0.049861	-0.715213
23650		9.627636	1.570296	0.807920	-0.003142	-0.000469	-0.009255	-0.799805	-0.294922	0.476318	-0.173568	-0.675209	0.049898	-0.715176
23651		9.656256	1.538555	0.804400	-0.005391	-0.001955	-0.009740	-0.790527	-0.297852	0.466553	-0.173599	-0.675227	0.049944	-0.715149
23652		9.646096	1.539274	0.794812	0.000331	0.001315	-0.011176	-0.785400	-0.288574	0.474609	-0.173645	-0.675215	0.049957	-0.715148
23653		9.663732	1.557465	0.793875	0.001765	0.002694	-0.010205	-0.791260	-0.292725	0.469482	-0.173613	-0.675226	0.049916	-0.715148
23654		9.643000	1.548831	0.817040	0.001729	0.002141	-0.010487	-0.789062	-0.299805	0.479492	-0.173606	-0.675217	0.049894	-0.715160
23655		9.623590	1.571087	0.793305	0.002610	0.001118	-0.008723	-0.791992	-0.293457	0.474609	-0.173605	-0.675251	0.049896	-0.715128
23656		9.637380	1.566140	0.760642	0.004158	0.002192	-0.008581	-0.790039	-0.293457	0.475586	-0.173555	-0.675259	0.049862	-0.715134
23657		9.642800	1.561280	0.825950	0.001613	0.002447	-0.009658	-0.787598	-0.293701	0.471924	-0.173540	-0.675267	0.049841	-0.715133
23658		9.645579	1.564717	0.813107	0.001350	0.002505	-0.008281	-0.793213	-0.300781	0.478760	-0.173525	-0.675265	0.049844	-0.715137
23659		9.625169	1.539730	0.799601	0.006692	0.006142	-0.007511	-0.790283	-0.298096	0.476318	-0.173481	-0.675253	0.049809	-0.715162
23660		9.624313	1.559286	0.787967	0.000640	0.004056	-0.006949	-0.788086	-0.299316	0.472900	-0.173476	-0.675243	0.049834	-0.715171
23661		9.652219	1.560903	0.809783	-0.001860	0.002898	-0.009420	-0.790283	-0.293457	0.466309	-0.173530	-0.675234	0.049876	-0.715163
23662		9.648877	1.546233	0.786803	0.001760	0.002696	-0.010203	-0.788818	-0.293701	0.478760	-0.173531	-0.675213	0.049865	-0.715184
23663		9.642621	1.569358	0.808922	0.001428	-0.000591	-0.007708	-0.786865	-0.290527	0.473633	-0.173498	-0.675257	0.049866	-0.715150
23664		9.641815	1.548025	0.813640	0.001873	0.000153	-0.009348	-0.792236	-0.298828	0.479736	-0.173468	-0.675285	0.049846	-0.715133
23665		9.641429	1.591445	0.796082	0.002572	0.000567	-0.009004	-0.792236	-0.296387	0.472412	-0.173458	-0.675318	0.049839	-0.715104
23666		9.620167	1.560778	0.773791	0.001461	-0.000038	-0.007425	-0.793945	-0.300781	0.480957	-0.173441	-0.675332	0.049859	-0.715093
23667		9.646655	1.533436	0.792296	-0.005004	0.004395	-0.009993	-0.788818	-0.297607	0.478027	-0.173513	-0.675316	0.049907	-0.715088
23668		9.656412	1.560995	0.797986	-0.002598	0.001930	-0.010045	-0.795166	-0.294189	0.479248	-0.173559	-0.675327	0.049936	-0.715064
23669		9.658866	1.580337	0.822164	0.001458	0.002202	-0.009108	-0.788818	-0.288574	0.468262	-0.173530	-0.675337	0.049914	-0.715063
23670		9.645336	1.581471	0.776665	-0.002748	0.001682	-0.009499	-0.789307	-0.298096	0.470459	-0.173537	-0.675322	0.049931	-0.715075
23671		9.639069	1.563495	0.816591	-0.002782	0.001129	-0.009781	-0.797119	-0.295898	0.473145	-0.173593	-0.675318	0.049979	-0.715062
23672		9.638172	1.583270	0.804464	-0.002943	0.002846	-0.007558	-0.796143	-0.299316	0.467773	-0.173603	-0.675291	0.050023	-0.715082
23673		9.637692	1.545993	0.773103	-0.004011	0.003067	-0.009057	-0.787842	-0.299805	0.475586	-0.173664	-0.675248	0.050087	-0.715103
23674		9.657732	1.557281	0.801144	0.000080	0.003894	-0.007837	-0.792725	-0.293945	0.474609	-0.173683	-0.675241	0.050117	-0.715103
23675		9.638108	1.553458	0.832046	0.003340	-0.000145	-0.006409	-0.784912	-0.301270	0.475830	-0.173622	-0.675266	0.050114	-0.715095
23676		9.642304	1.546498	0.789347	-0.001154	-0.000890	-0.009066	-0.789551	-0.291504	0.471191	-0.173672	-0.675305	0.050163	-0.715042
23677		9.656761	1.563159	0.801409	-0.001455	0.000852	-0.009656	-0.792725	-0.297607	0.474121	-0.173678	-0.675308	0.050173	-0.715037
23678		9.634627	1.566119	0.804091	-0.000440	0.004282	-0.008445	-0.788330	-0.303955	0.472656	-0.173690	-0.675284	0.050192	-0.715055
23679		9.633270	1.562501	0.797175	-0.004015	0.003066	-0.009056	-0.793457	-0.297852	0.479248	-0.173780	-0.675267	0.050271	-0.715044
23680		9.631507	1.535627	0.794913	-0.000395	0.002872	-0.009839	-0.794434	-0.298828	0.474609	-0.173796	-0.675271	0.050272	-0.715036
23681		9.650131	1.518200	0.819980	0.000700	0.005444	-0.009739	-0.791504	-0.300781	0.475098	-0.173813	-0.675239	0.050269	-0.715062
23682		9.658775	1.540506	0.818206	-0.001471	0.005332	-0.013020	-0.790527	-0.296143	0.477295	-0.173891	-0.675212	0.050267	-0.715069
23683		9.643438	1.529098	0.806901	0.000397	0.000466	-0.012281	-0.794678	-0.295166	0.472168	-0.173918	-0.675240	0.050244	-0.715038
23684		9.646623	1.555122	0.838552	0.007999	0.001685	-0.014371	-0.792236	-0.295898	0.476807	-0.173895	-0.675254	0.050135	-0.715038
23685		9.627857	1.545085	0.790612	0.006545	0.004506	-0.015349	-0.795410	-0.301514	0.471191	-0.173896	-0.675256	0.050021	-0.715043
23686		9.623970	1.547624	0.804980	-0.003162	0.004278	-0.015975	-0.783691	-0.296143	0.473145	-0.174016	-0.675220	0.050016	-0.715049
23687		9.657928	1.553941	0.799970	0.002205	0.001766	-0.016870	-0.793213	-0.293213	0.474121	-0.174083	-0.675242	0.049947	-0.715017
23688		9.627391	1.609306	0.790913	-0.001597	0.001154	-0.015825	-0.803955	-0.291748	0.471924	-0.174141	-0.675248	0.049901	-0.715000
23689		9.617976	1.616716	0.789244	-0.001588	-0.001085	-0.014142	-0.787109	-0.304199	0.472168	-0.174161	-0.675250	0.049864	-0.714996
23690		9.634122	1.606535	0.785226	-0.001845	0.003728	-0.012490	-0.788086	-0.293945	0.473877	-0.174260	-0.675235	0.049890	-0.714984
23691		9.623549	1.583856	0.781675	-0.002789	0.005885	-0.009502	-0.785156	-0.300537	0.479492	-0.174284	-0.675199	0.049903	-0.715011
23692		9.633733	1.593455	0.800525	0.001605	0.004980	-0.007690	-0.791992	-0.295898	0.477295	-0.174283	-0.675201	0.049910	-0.715009
23693		9.659492	1.560469	0.811337	0.001148	0.001716	-0.008010	-0.795898	-0.294922	0.468018	-0.174257	-0.675214	0.049907	-0.715004
23694		9.650311	1.566345	0.810006	0.007008	0.003028	-0.008301	-0.790527	-0.301758	0.472900	-0.174188	-0.675197	0.049857	-0.715040
23695		9.631350	1.570618	0.799219	0.003943	0.003657	-0.009988	-0.789795	-0.301758	0.472656	-0.174197	-0.675190	0.049838	-0.715046
23696		9.631807	1.578522	0.808100	0.002447	0.005646	-0.007891	-0.797363	-0.301514	0.471924	-0.174201	-0.675162	0.049848	-0.715071
23697		9.639254	1.571194	0.803323	0.008599	0.007459	-0.009273	-0.784424	-0.295166	0.477295	-0.174157	-0.675118	0.049781	-0.715128
23698		9.637881	1.567718	0.796822	0.000417	0.005503	-0.008361	-0.798584	-0.306885	0.474854	-0.174151	-0.675108	0.049777	-0.715139
23699		9.640156	1.586805	0.821432	0.008400	0.003864	-0.007608	-0.790283	-0.303955	0.471436	-0.174112	-0.675101	0.049748	-0.715157
23700		9.641844	1.561028	0.805172	0.007914	0.000046	-0.008209	-0.792969	-0.292725	0.472656	-0.174082	-0.675131	0.049727	-0.715136
23701		9.640610	1.557479	0.797226	0.002591	0.001137	-0.008712	-0.789062	-0.291992	0.475830	-0.174042	-0.675140	0.049704	-0.715140
23702		9.636479	1.574190	0.848072	0.000140	0.003039	-0.008944	-0.791504	-0.292725	0.473633	-0.174023	-0.675140	0.049692	-0.715145
23703		9.621533	1.587172	0.782197	-0.006090	0.002356	-0.009810	-0.790527	-0.290283	0.469971	-0.174067	-0.675124	0.049734	-0.715147
23704		9.617640	1.564748	0.801143	-0.001921	0.002342	-0.009697	-0.790771	-0.298340	0.481689	-0.174069	-0.675109	0.049738	-0.715161
23705		9.631028	1.575931	0.805679	-0.001498	0.000296	-0.009934	-0.793457	-0.302734	0.469482	-0.174091	-0.675144	0.049748	-0.715121
23706		9.631561	1.583745	0.813601	0.003627	0.000370	-0.007493	-0.799805	-0.300049	0.473145	-0.174083	-0.675151	0.049767	-0.715115
23707		9.650643	1.591232	0.782558	0.000677	-0.004342	-0.006926	-0.791016	-0.301025	0.470947	-0.174065	-0.675194	0.049809	-0.715076
23708		9.646746	1.544779	0.805033	-0.008608	-0.001886	-0.007523	-0.789551	-0.292725	0.482422	-0.174153	-0.675202	0.049936	-0.715038
23709		9.616131	1.574256	0.800625	-0.004653	0.001503	-0.007154	-0.792480	-0.299561	0.475098	-0.174151	-0.675220	0.049975	-0.715019
23710		9.626961	1.567801	0.781543	-0.000368	0.001188	-0.007869	-0.794189	-0.287109	0.476807	-0.174158	-0.675228	0.050005	-0.715008
23711		9.633999	1.575975	0.812896	-0.002333	0.002148	-0.007775	-0.792969	-0.293945	0.479980	-0.174117	-0.675224	0.050004	-0.715021
23712		9.657561	1.547622	0.844790	-0.002104	0.001541	-0.009431	-0.797119	-0.294189	0.474609	-0.174118	-0.675237	0.050007	-0.715008
23713		9.660288	1.553030	0.782164	0.002129	0.002637	-0.008753	-0.790283	-0.294189	0.469727	-0.174082	-0.675229	0.049984	-0.715026
23714		9.628035	1.593273	0.807346	-0.000273	0.003125	-0.010379	-0.785889	-0.302002	0.484619	-0.174098	-0.675210	0.049981	-0.715041
23715		9.637107	1.573878	0.822753	0.001441	0.004737	-0.007141	-0.787354	-0.292480	0.474121	-0.174090	-0.675224	0.049985	-0.715029
23716		9.622307	1.584467	0.806615	0.005226	0.002568	-0.006782	-0.790527	-0.295410	0.471436	-0.174016	-0.675236	0.049951	-0.715039
23717		9.632959	1.554721	0.792197	0.003104	0.000761	-0.008100	-0.794678	-0.286865	0.468994	-0.173984	-0.675248	0.049942	-0.715035
23718		9.661946	1.585845	0.816056	0.001211	-0.001931	-0.007716	-0.785400	-0.295166	0.477051	-0.173923	-0.675267	0.049935	-0.715033
23719		9.632669	1.579952	0.836422	0.004631	-0.000946	-0.006555	-0.797852	-0.301758	0.473145	-0.173860	-0.675319	0.049920	-0.715000
23720		9.632363	1.583282	0.786686	-0.004397	0.001168	-0.005171	-0.792480	-0.297363	0.472900	-0.173886	-0.675302	0.050018	-0.715003
23721		9.624784	1.576481	0.806243	-0.000768	0.003786	-0.007348	-0.788818	-0.296631	0.471924	-0.173888	-0.675279	0.050047	-0.715022
23722		9.635642	1.569844	0.787577	-0.000540	0.002902	-0.005647	-0.795898	-0.295166	0.472656	-0.173875	-0.675266	0.050092	-0.715034
23723		9.653765	1.545851	0.804186	0.003101	0.000486	-0.004742	-0.796387	-0.300537	0.472412	-0.173806	-0.675274	0.050108	-0.715043
23724		9.641497	1.549856	0.815564	-0.001629	-0.002193	-0.007704	-0.798340	-0.297363	0.470459	-0.173827	-0.675296	0.050166	-0.715013
23725		9.622178	1.594462	0.786494	0.002757	0.001675	-0.005615	-0.792725	-0.301758	0.474365	-0.173781	-0.675283	0.050186	-0.715035
23726		9.648961	1.543377	0.809834	0.007861	0.003997	-0.004854	-0.795654	-0.298340	0.473389	-0.173707	-0.675279	0.050171	-0.715058
23727		9.641662	1.583564	0.819881	0.009315	0.006218	-0.006956	-0.793213	-0.295898	0.476074	-0.173624	-0.675252	0.050111	-0.715107
23728		9.631260	1.536815	0.820800	0.012030	0.004269	-0.008095	-0.795166	-0.302490	0.474609	-0.173516	-0.675260	0.050009	-0.715133
23729		9.632512	1.552469	0.787109	0.006345	0.001223	-0.010028	-0.796387	-0.296143	0.470947	-0.173501	-0.675278	0.049972	-0.715122
23730		9.642613	1.562734	0.804856	0.003162	0.002145	-0.010890	-0.794678	-0.295410	0.470459	-0.173498	-0.675270	0.049941	-0.715133
23731		9.655052	1.568413	0.801918	0.001171	0.005067	-0.009124	-0.793701	-0.298828	0.470459	-0.173497	-0.675231	0.049936	-0.715170
