// Start Time: Unknown
// Update Rate: 40.0Hz
// Filter Profile: human (46.1)
// Firmware Version: 4.6.0
PacketCounter	SampleTimeFine	Acc_X	Acc_Y	Acc_Z	Gyr_X	Gyr_Y	Gyr_Z	Mag_X	Mag_Y	Mag_Z	Quat_q0	Quat_q1	Quat_q2	Quat_q3
23208		9.699452	0.783048	-1.082172	-0.003636	-0.000670	0.000363	-0.770264	-0.220703	0.523682	-0.148680	-0.737416	0.107139	-0.650102
23209		9.727758	0.791825	-1.091250	0.004352	-0.002895	-0.001721	-0.762695	-0.217529	0.532227	-0.148650	-0.737450	0.107093	-0.650078
23210		9.711818	0.822359	-1.069860	0.010364	-0.000710	-0.005939	-0.764893	-0.215332	0.529785	-0.148521	-0.737506	0.106972	-0.650064
23211		9.693870	0.858124	-1.060678	0.006551	0.001310	-0.003280	-0.765625	-0.214844	0.528809	-0.148403	-0.737527	0.106904	-0.650079
23212		9.703407	0.858945	-1.062409	0.002586	-0.001611	-0.005400	-0.760742	-0.222656	0.528076	-0.148341	-0.737566	0.106849	-0.650058
23213		9.700321	0.822098	-1.077626	0.003907	-0.000322	-0.009319	-0.758545	-0.218750	0.528564	-0.148407	-0.737584	0.106718	-0.650044
23214		9.723522	0.813720	-1.055372	0.002601	0.001472	-0.007523	-0.761230	-0.216553	0.530762	-0.148428	-0.737591	0.106617	-0.650048
23215		9.707097	0.839054	-1.095865	-0.000296	-0.002685	-0.001735	-0.758789	-0.220947	0.528564	-0.148392	-0.737621	0.106605	-0.650023
23216		9.695398	0.828406	-1.046145	0.006035	0.000213	-0.002407	-0.760986	-0.213135	0.525391	-0.148371	-0.737633	0.106512	-0.650030
23217		9.715517	0.842390	-1.044321	0.000859	0.000779	-0.009393	-0.761475	-0.213623	0.523926	-0.148389	-0.737640	0.106406	-0.650035
23218		9.691385	0.863837	-1.070658	0.001716	-0.002984	-0.008818	-0.765869	-0.219727	0.528809	-0.148408	-0.737674	0.106294	-0.650011
23219		9.711139	0.825762	-1.067563	-0.001002	0.000365	-0.006411	-0.762451	-0.213379	0.529297	-0.148490	-0.737690	0.106197	-0.649989
23220		9.710063	0.814763	-1.072216	0.002532	0.002345	-0.009017	-0.760498	-0.215332	0.533447	-0.148501	-0.737699	0.106053	-0.650001
23221		9.713507	0.815141	-1.050514	0.001205	-0.000486	-0.004037	-0.759033	-0.216553	0.528809	-0.148488	-0.737742	0.105961	-0.649970
23222		9.700451	0.869421	-1.072798	0.004853	-0.004870	-0.000466	-0.764404	-0.217773	0.522705	-0.148438	-0.737788	0.105878	-0.649943
23223		9.715024	0.872550	-1.044738	-0.001882	-0.000495	-0.003798	-0.769775	-0.209961	0.524658	-0.148523	-0.737750	0.105805	-0.649978
23224		9.703824	0.869998	-1.051526	-0.013165	0.002778	-0.004903	-0.758057	-0.224121	0.528564	-0.148645	-0.737667	0.105807	-0.650044
23225		9.697518	0.803102	-1.084804	-0.011185	-0.001627	-0.002768	-0.760010	-0.213867	0.518555	-0.148864	-0.737672	0.105791	-0.649991
23226		9.703806	0.744036	-1.102460	0.000996	0.000586	-0.007460	-0.757080	-0.223145	0.531006	-0.148926	-0.737622	0.105649	-0.650057
23227		9.712816	0.754236	-1.107611	0.008587	0.002645	-0.004643	-0.765625	-0.216309	0.530762	-0.148943	-0.737655	0.105473	-0.650043
23228		9.700641	0.835452	-1.066356	0.012764	-0.005696	0.001987	-0.762939	-0.222412	0.524170	-0.148777	-0.737730	0.105356	-0.650016
23229		9.714926	0.899043	-1.044230	0.003588	-0.001971	0.001013	-0.758545	-0.216553	0.525635	-0.148800	-0.737727	0.105294	-0.650023
23230		9.706354	0.882035	-1.034704	-0.003499	0.003671	-0.007671	-0.764648	-0.225098	0.527832	-0.148900	-0.737692	0.105190	-0.650058
23231		9.674215	0.823567	-1.044830	-0.004265	0.004587	-0.004940	-0.763672	-0.224121	0.530029	-0.149088	-0.737642	0.105106	-0.650085
23232		9.699145	0.803586	-1.071848	0.004359	-0.001345	-0.002779	-0.755859	-0.217529	0.532227	-0.149148	-0.737666	0.104988	-0.650063
23233		9.721367	0.811545	-1.057509	0.007740	0.001351	-0.001283	-0.760742	-0.216309	0.518555	-0.149068	-0.737707	0.104860	-0.650055
23234		9.722138	0.854954	-1.055356	0.002682	-0.000855	0.001815	-0.768066	-0.218750	0.521484	-0.149032	-0.737645	0.104803	-0.650142
23235		9.695067	0.880991	-1.041018	0.002252	-0.001799	-0.002908	-0.761719	-0.223389	0.533691	-0.149070	-0.737594	0.104708	-0.650208
23236		9.670905	0.848507	-1.064912	-0.001031	0.005939	-0.004312	-0.763916	-0.218506	0.522461	-0.149183	-0.737580	0.104614	-0.650212
23237		9.697513	0.801964	-1.080187	-0.000030	-0.001618	-0.005714	-0.762451	-0.208252	0.532471	-0.149252	-0.737548	0.104506	-0.650250
23238		9.728910	0.788736	-1.068782	0.002798	-0.001131	-0.003032	-0.764160	-0.224365	0.527588	-0.149081	-0.737588	0.104392	-0.650262
23239		9.729400	0.780424	-1.065108	0.002365	-0.000020	-0.002789	-0.765137	-0.220215	0.528320	-0.149172	-0.737580	0.104309	-0.650264
23240		9.711753	0.837927	-1.054564	-0.001804	0.001717	-0.004425	-0.754883	-0.214600	0.523193	-0.149243	-0.737551	0.104246	-0.650291
23241		9.699053	0.831152	-1.070563	0.003271	-0.001134	-0.003590	-0.761963	-0.214111	0.521973	-0.149183	-0.737563	0.104143	-0.650307
23242		9.697479	0.827957	-1.079556	-0.000722	-0.000032	-0.002551	-0.758301	-0.213135	0.530029	-0.149151	-0.737513	0.104087	-0.650380
23243		9.710420	0.775181	-1.057985	0.002115	-0.000056	-0.005897	-0.760498	-0.208984	0.531738	-0.149062	-0.737562	0.103963	-0.650365
23244		9.708615	0.803410	-1.069515	0.006294	0.001292	-0.006383	-0.762939	-0.216553	0.526123	-0.148850	-0.737609	0.103795	-0.650387
23245		9.711315	0.843054	-1.054510	0.009049	0.001110	-0.004134	-0.764160	-0.218994	0.525146	-0.148765	-0.737597	0.103657	-0.650442
23246		9.727841	0.857968	-1.074423	0.005634	-0.001152	-0.006376	-0.766846	-0.211670	0.524170	-0.148778	-0.737584	0.103539	-0.650472
23247		9.704451	0.853445	-1.035230	-0.002855	0.003030	-0.005552	-0.766846	-0.217529	0.520996	-0.148735	-0.737495	0.103486	-0.650591
23248		9.689967	0.821140	-1.060524	-0.005838	0.001710	-0.003073	-0.759521	-0.223877	0.529541	-0.148834	-0.737378	0.103503	-0.650699
23249		9.695981	0.823344	-1.083365	-0.000972	-0.000067	-0.005658	-0.754150	-0.217285	0.521484	-0.148972	-0.737421	0.103427	-0.650631
23250		9.701127	0.796959	-1.050181	0.000991	0.000590	-0.007455	-0.762939	-0.222168	0.533691	-0.149029	-0.737422	0.103323	-0.650633
23251		9.701017	0.798656	-1.049914	0.000084	0.001704	-0.006654	-0.763916	-0.221191	0.521729	-0.149093	-0.737473	0.103220	-0.650577
23252		9.709142	0.848499	-1.062120	0.005231	-0.002015	-0.004322	-0.758789	-0.220215	0.531250	-0.149147	-0.737428	0.103147	-0.650627
23253		9.720698	0.844743	-1.051260	0.000990	0.000591	-0.007453	-0.749268	-0.224609	0.522217	-0.149184	-0.737497	0.103031	-0.650559
23254		9.706901	0.840887	-1.013466	-0.005322	0.002304	-0.009968	-0.758057	-0.217529	0.524414	-0.149476	-0.737512	0.102961	-0.650486
23255		9.695788	0.824690	-1.078556	-0.008777	0.000985	-0.006932	-0.757080	-0.217773	0.515381	-0.149573	-0.737487	0.102943	-0.650494
23256		9.689617	0.758693	-1.112127	-0.000898	-0.001443	-0.010185	-0.769287	-0.222900	0.526611	-0.149688	-0.737407	0.102864	-0.650572
23257		9.712865	0.750537	-1.089919	0.003168	0.001724	-0.006888	-0.765869	-0.213135	0.526367	-0.149757	-0.737340	0.102779	-0.650644
23258		9.729246	0.832482	-1.053358	0.005299	-0.004425	-0.001766	-0.763916	-0.218262	0.524170	-0.149517	-0.737354	0.102710	-0.650695
23259		9.711954	0.880410	-1.040113	0.002323	-0.002664	-0.001411	-0.769287	-0.224609	0.523682	-0.149457	-0.737332	0.102686	-0.650737
23260		9.710087	0.855564	-1.049989	-0.003914	0.002803	-0.005614	-0.765625	-0.233398	0.520996	-0.149653	-0.737207	0.102690	-0.650834
23261		9.676063	0.854915	-1.074720	-0.002675	0.003434	-0.009957	-0.761963	-0.216797	0.526123	-0.150116	-0.737077	0.102671	-0.650877
23262		9.683168	0.840218	-1.089831	-0.001701	-0.001636	-0.007142	-0.767578	-0.222412	0.525635	-0.150066	-0.737097	0.102598	-0.650877
23263		9.727166	0.835053	-1.062573	0.006827	-0.002652	-0.003318	-0.760742	-0.218018	0.523682	-0.150042	-0.737081	0.102522	-0.650914
23264		9.731538	0.847326	-1.036332	0.005085	0.001786	-0.002346	-0.759766	-0.221680	0.529541	-0.149945	-0.737061	0.102443	-0.650972
23265		9.709542	0.862508	-1.049355	-0.006167	0.001003	-0.006609	-0.765625	-0.218018	0.524658	-0.150044	-0.737107	0.102412	-0.650901
23266		9.681882	0.832045	-1.094742	0.000007	0.002583	-0.008142	-0.768555	-0.226562	0.519775	-0.150021	-0.737048	0.102323	-0.650987
23267		9.702232	0.815471	-1.090112	0.015578	-0.000611	-0.005276	-0.761963	-0.210693	0.526123	-0.150078	-0.736952	0.102186	-0.651104
23268		9.715914	0.806110	-1.066696	0.009513	-0.000413	-0.003623	-0.767090	-0.220703	0.524658	-0.149721	-0.736993	0.102032	-0.651164
23269		9.706777	0.850343	-1.063092	-0.001197	-0.000029	-0.001991	-0.762451	-0.217041	0.525391	-0.149727	-0.736937	0.102030	-0.651227
23270		9.707598	0.863729	-1.058251	0.005955	-0.000430	-0.002830	-0.757568	-0.217041	0.520020	-0.149580	-0.736951	0.101941	-0.651258
23271		9.683839	0.852473	-1.081718	0.001925	-0.000445	-0.001480	-0.765381	-0.218994	0.524170	-0.149521	-0.736930	0.101914	-0.651300
23272		9.698800	0.825026	-1.050000	-0.003229	0.001725	-0.002751	-0.757812	-0.218750	0.523682	-0.149522	-0.736869	0.101913	-0.651369
23273		9.717477	0.834417	-1.056573	-0.000507	0.001982	-0.001251	-0.761475	-0.215576	0.523193	-0.149500	-0.736870	0.101891	-0.651376
23274		9.704009	0.814188	-1.077286	0.001381	0.000430	-0.002417	-0.761230	-0.221924	0.532715	-0.149377	-0.736854	0.101845	-0.651429
23275		9.726522	0.791296	-1.060261	0.003593	-0.001961	0.001015	-0.755127	-0.214844	0.527832	-0.149288	-0.736978	0.101787	-0.651318
23276		9.720367	0.790248	-1.037831	0.008967	-0.002622	-0.002436	-0.762939	-0.219971	0.524902	-0.149051	-0.737113	0.101655	-0.651241
23277		9.707041	0.844548	-1.059780	0.005446	0.001554	-0.004080	-0.757080	-0.220459	0.527344	-0.149019	-0.737095	0.101577	-0.651281
23278		9.690504	0.869326	-1.100151	0.006426	-0.000429	-0.003385	-0.764404	-0.220703	0.522461	-0.148973	-0.737175	0.101475	-0.651216
23279		9.670848	0.848408	-1.098428	0.001091	-0.002254	-0.004145	-0.762695	-0.225098	0.528564	-0.149017	-0.737135	0.101456	-0.651255
23280		9.710009	0.824485	-1.040018	-0.001558	-0.000298	-0.006274	-0.764648	-0.215820	0.528076	-0.149162	-0.737168	0.101404	-0.651192
23281		9.736483	0.808539	-1.058593	0.001416	-0.000006	-0.001670	-0.760498	-0.217041	0.526611	-0.148998	-0.737182	0.101364	-0.651220
23282		9.693722	0.818895	-1.078023	0.007550	-0.002612	-0.000764	-0.758301	-0.222412	0.532227	-0.148827	-0.737241	0.101291	-0.651204
23283		9.707379	0.861478	-1.056457	0.001452	-0.000442	-0.000923	-0.754395	-0.222656	0.530518	-0.148807	-0.737357	0.101231	-0.651087
23284		9.709079	0.887739	-1.046492	-0.003302	0.001051	-0.003184	-0.757080	-0.216064	0.527100	-0.148885	-0.737460	0.101190	-0.650958
23285		9.711648	0.837861	-1.089240	-0.008347	-0.001177	-0.000093	-0.768799	-0.217041	0.521729	-0.148845	-0.737503	0.101248	-0.650910
23286		9.683367	0.777128	-1.078997	-0.013282	-0.002131	-0.002901	-0.758301	-0.223145	0.526855	-0.148917	-0.737381	0.101374	-0.651011
23287		9.714947	0.712026	-1.065383	-0.007258	0.001203	-0.007419	-0.753662	-0.216797	0.530762	-0.149094	-0.737402	0.101353	-0.650951
23288		9.708249	0.759394	-1.106027	0.010454	0.001137	-0.005795	-0.764893	-0.214600	0.525391	-0.148910	-0.737543	0.101179	-0.650860
23289		9.734483	0.809776	-1.068294	0.005808	-0.002806	0.003386	-0.761475	-0.221924	0.522217	-0.148666	-0.737534	0.101193	-0.650924
23290		9.717543	0.825602	-1.052232	-0.007585	-0.004669	0.005324	-0.763428	-0.223145	0.526855	-0.148746	-0.737497	0.101344	-0.650924
23291		9.707322	0.834219	-1.054575	-0.002505	0.003297	-0.001264	-0.769043	-0.215332	0.527832	-0.148819	-0.737456	0.101353	-0.650953
23292		9.670996	0.815860	-1.093420	0.006062	0.000851	-0.008728	-0.761475	-0.216309	0.524658	-0.148665	-0.737433	0.101236	-0.651032
23293		9.701215	0.821870	-1.089158	0.004428	0.001932	-0.010475	-0.769287	-0.213379	0.527100	-0.148616	-0.737422	0.101119	-0.651074
23294		9.721818	0.827311	-1.083568	0.009437	-0.001071	-0.004051	-0.763428	-0.213379	0.528320	-0.148356	-0.737407	0.101027	-0.651164
23295		9.714838	0.813762	-1.065545	0.000544	0.000669	-0.000125	-0.761719	-0.215820	0.524658	-0.148158	-0.737419	0.101021	-0.651197
23296		9.694928	0.823127	-1.066191	-0.008492	-0.000978	-0.002017	-0.768066	-0.220215	0.532471	-0.148160	-0.737396	0.101095	-0.651211
23297		9.682488	0.837842	-1.081524	0.002179	-0.002455	-0.003331	-0.754150	-0.214844	0.517334	-0.148072	-0.737452	0.101024	-0.651178
23298		9.705840	0.828934	-1.059264	0.002211	0.003283	-0.006828	-0.761963	-0.215088	0.522461	-0.148096	-0.737389	0.100999	-0.651248
23299		9.725135	0.778565	-1.060100	-0.001381	0.001653	-0.011737	-0.763672	-0.213623	0.525879	-0.148121	-0.737344	0.100935	-0.651303
23300		9.702961	0.795235	-1.073298	0.004317	0.000160	-0.010589	-0.765381	-0.222412	0.523926	-0.148006	-0.737351	0.100816	-0.651340
23301		9.694653	0.801110	-1.062735	0.006819	0.001997	-0.006491	-0.759521	-0.220703	0.526123	-0.148048	-0.737302	0.100727	-0.651400
23302		9.713566	0.781053	-1.066891	0.002829	-0.000506	-0.009351	-0.768799	-0.214355	0.523438	-0.148098	-0.737342	0.100621	-0.651360
23303		9.712948	0.814304	-1.069732	-0.001419	0.000548	-0.011419	-0.758789	-0.218262	0.522949	-0.148071	-0.737269	0.100569	-0.651456
23304		9.708525	0.827060	-1.095162	0.004714	-0.000506	-0.011573	-0.759521	-0.216797	0.525879	-0.148098	-0.737286	0.100450	-0.651449
23305		9.703686	0.832501	-1.063320	0.007941	0.000864	-0.010943	-0.766602	-0.216553	0.526855	-0.148026	-0.737326	0.100288	-0.651445
23306		9.717532	0.846596	-1.038273	0.000900	0.001482	-0.008930	-0.766602	-0.222900	0.519775	-0.147972	-0.737304	0.100206	-0.651495
23307		9.710093	0.828671	-1.082135	-0.003015	0.000145	-0.005346	-0.759033	-0.219971	0.524414	-0.148133	-0.737197	0.100245	-0.651573
23308		9.704294	0.872795	-1.056602	-0.004580	0.001894	-0.006661	-0.756348	-0.223633	0.531494	-0.148222	-0.737188	0.100231	-0.651566
23309		9.672228	0.844777	-1.069682	-0.006979	0.003878	-0.005688	-0.764648	-0.220703	0.533203	-0.148338	-0.737255	0.100188	-0.651471
23310		9.693981	0.848236	-1.116802	-0.002364	0.001050	-0.004292	-0.768555	-0.220703	0.523682	-0.148293	-0.737311	0.100128	-0.651426
23311		9.718800	0.843733	-1.085485	0.002460	0.001282	-0.008672	-0.760254	-0.220947	0.521484	-0.148323	-0.737246	0.100059	-0.651504
23312		9.727204	0.847766	-1.033356	-0.004871	0.000760	-0.009445	-0.769043	-0.211914	0.521729	-0.148469	-0.737208	0.100045	-0.651516
23313		9.705115	0.863474	-1.046016	-0.000632	0.004840	-0.004546	-0.770996	-0.215820	0.523682	-0.148330	-0.737086	0.100046	-0.651685
23314		9.707488	0.844702	-1.090876	-0.004760	0.001487	-0.002258	-0.761230	-0.209717	0.524414	-0.148265	-0.736992	0.100094	-0.651799
23315		9.711041	0.844312	-1.068820	-0.009877	0.001663	-0.001723	-0.761963	-0.217285	0.523926	-0.148137	-0.736967	0.100167	-0.651845
23316		9.691572	0.823372	-1.066323	-0.008568	-0.000113	-0.003507	-0.751221	-0.218262	0.523193	-0.148167	-0.736948	0.100220	-0.651851
23317		9.692819	0.806709	-1.058035	-0.003860	0.003473	-0.005172	-0.764404	-0.217285	0.524658	-0.148220	-0.736976	0.100200	-0.651811
23318		9.685561	0.788195	-1.101292	0.003980	0.003560	-0.004209	-0.762695	-0.219971	0.530762	-0.148128	-0.736944	0.100136	-0.651878
23319		9.734053	0.832147	-1.106903	0.009802	-0.000787	0.000232	-0.773438	-0.216553	0.515381	-0.147936	-0.737029	0.100023	-0.651843
23320		9.736054	0.862923	-1.035015	-0.001229	-0.000644	0.004334	-0.763184	-0.225342	0.527832	-0.147888	-0.736851	0.100180	-0.652030
23321		9.719587	0.848648	-1.014945	-0.000481	0.003091	-0.001563	-0.764893	-0.217773	0.523926	-0.147951	-0.736853	0.100150	-0.652019
23322		9.670313	0.830591	-1.073136	-0.000453	0.005745	-0.002935	-0.763184	-0.218018	0.527100	-0.147916	-0.736786	0.100134	-0.652105
23323		9.686712	0.823559	-1.093106	0.001301	0.001315	-0.003902	-0.762939	-0.218506	0.527344	-0.147845	-0.736806	0.100076	-0.652107
23324		9.714483	0.826035	-1.044225	0.006565	0.000936	-0.002513	-0.761963	-0.217285	0.523438	-0.147722	-0.736841	0.099987	-0.652109
23325		9.724928	0.838903	-1.040803	0.009434	0.000993	0.000908	-0.761963	-0.224609	0.523682	-0.147566	-0.736841	0.099936	-0.652152
23326		9.705058	0.847643	-1.041207	0.001117	0.002450	-0.000562	-0.767578	-0.220947	0.534424	-0.147637	-0.736816	0.099931	-0.652165
23327		9.702866	0.831017	-1.054294	-0.006613	0.002593	-0.000351	-0.754883	-0.208496	0.518311	-0.147595	-0.736851	0.099923	-0.652137
23328		9.692274	0.796610	-1.058515	0.003415	-0.001310	-0.001652	-0.759033	-0.217285	0.525146	-0.147427	-0.736858	0.099937	-0.652164
23329		9.699655	0.779849	-1.073910	0.008886	0.001869	-0.000026	-0.760498	-0.218018	0.529785	-0.147284	-0.736887	0.099863	-0.652175
23330		9.721851	0.787427	-1.059385	0.006787	-0.000143	0.000901	-0.764160	-0.219727	0.532471	-0.147120	-0.736963	0.099788	-0.652138
23331		9.735333	0.829483	-1.037760	0.008824	-0.001891	0.001662	-0.760010	-0.208984	0.528809	-0.146929	-0.737058	0.099691	-0.652089
23332		9.702834	0.830560	-1.054952	0.007945	-0.000169	-0.003863	-0.759766	-0.218018	0.520020	-0.146665	-0.737132	0.099586	-0.652080
23333		9.693740	0.822813	-1.049509	0.006160	0.001114	-0.007532	-0.758545	-0.221191	0.527100	-0.146691	-0.737109	0.099513	-0.652112
23334		9.707897	0.821406	-1.083056	0.005694	-0.000431	-0.005916	-0.760010	-0.218994	0.524170	-0.146689	-0.737171	0.099400	-0.652059
23335		9.712744	0.825444	-1.053110	0.006751	-0.001742	-0.004790	-0.762451	-0.219482	0.523438	-0.146656	-0.737207	0.099320	-0.652038
23336		9.698338	0.829506	-1.019787	0.000610	0.000847	-0.005700	-0.765869	-0.219238	0.527100	-0.146701	-0.737188	0.099285	-0.652054
23337		9.723490	0.809703	-1.047063	-0.001740	-0.000701	-0.001864	-0.762695	-0.217285	0.525879	-0.146688	-0.737189	0.099286	-0.652056
23338		9.708254	0.838501	-1.078808	-0.000003	-0.000494	-0.006006	-0.764404	-0.222900	0.520996	-0.146680	-0.737204	0.099242	-0.652048
23339		9.711555	0.817246	-1.058049	-0.000958	0.002596	-0.007016	-0.764160	-0.215332	0.525635	-0.146820	-0.737136	0.099218	-0.652097
23340		9.698935	0.811025	-1.073699	0.000500	0.000616	-0.006875	-0.760010	-0.222656	0.528564	-0.146780	-0.737135	0.099166	-0.652115
23341		9.699443	0.803645	-1.069989	0.006603	-0.001533	-0.006710	-0.762695	-0.214844	0.520752	-0.146779	-0.737211	0.099037	-0.652049
23342		9.694686	0.807400	-1.038373	0.002974	-0.000199	-0.001408	-0.761963	-0.216553	0.526611	-0.146708	-0.737176	0.099049	-0.652102
23343		9.718676	0.826589	-1.072781	-0.004307	-0.002718	-0.000382	-0.766846	-0.218262	0.529785	-0.146674	-0.737205	0.099093	-0.652070
23344		9.722229	0.848558	-1.050318	-0.002191	0.001459	-0.008688	-0.765137	-0.212646	0.526611	-0.146683	-0.737215	0.099019	-0.652069
23345		9.690925	0.811832	-1.059299	0.000257	0.006828	-0.007460	-0.759521	-0.217773	0.527588	-0.146611	-0.737166	0.098954	-0.652150
23346		9.676030	0.766809	-1.089439	0.002067	-0.001130	-0.005557	-0.768555	-0.224609	0.532471	-0.146577	-0.737222	0.098885	-0.652105
23347		9.712578	0.779262	-1.047068	-0.002451	-0.005860	-0.007232	-0.766113	-0.218018	0.526367	-0.146632	-0.737303	0.098811	-0.652012
23348		9.737786	0.804696	-1.072862	0.000524	0.001237	-0.013190	-0.762939	-0.216553	0.527832	-0.146677	-0.737296	0.098698	-0.652026
23349		9.726670	0.847204	-1.078024	0.007316	-0.000440	-0.011227	-0.758545	-0.220215	0.529053	-0.146614	-0.737344	0.098543	-0.652010
23350		9.700259	0.813198	-1.057984	0.000073	-0.001366	-0.004512	-0.757812	-0.221680	0.520752	-0.146613	-0.737410	0.098492	-0.651944
23351		9.704970	0.773680	-1.029612	-0.004440	0.001686	-0.004735	-0.750977	-0.208008	0.519531	-0.146747	-0.737373	0.098519	-0.651951
23352		9.667657	0.816345	-1.074406	0.001264	0.000211	-0.003584	-0.757324	-0.212646	0.527100	-0.146649	-0.737386	0.098543	-0.651955
23353		9.728292	0.824804	-1.066495	0.003562	-0.001508	0.000273	-0.770264	-0.212158	0.530029	-0.146489	-0.737442	0.098535	-0.651928
23354		9.708341	0.855623	-1.066905	0.014554	-0.002729	-0.003500	-0.767578	-0.219971	0.527588	-0.146205	-0.737490	0.098399	-0.651959
23355		9.690393	0.860634	-1.055023	0.004180	0.003547	-0.007855	-0.760010	-0.220459	0.525391	-0.146196	-0.737464	0.098292	-0.652006
23356		9.700417	0.810125	-1.054337	-0.005379	-0.000356	-0.008568	-0.762695	-0.215576	0.527344	-0.146317	-0.737474	0.098271	-0.651971
23357		9.716510	0.760155	-1.077519	-0.001440	-0.003150	-0.002964	-0.767822	-0.218750	0.522217	-0.146262	-0.737510	0.098275	-0.651942
23358		9.716517	0.804559	-1.076187	0.006787	-0.002162	-0.004038	-0.764160	-0.215332	0.525635	-0.146216	-0.737485	0.098231	-0.651987
23359		9.709712	0.835247	-1.056177	0.001183	0.001088	-0.005073	-0.763916	-0.223389	0.528076	-0.146169	-0.737472	0.098200	-0.652017
23360		9.701369	0.840549	-1.045968	-0.002210	-0.002740	-0.006249	-0.762939	-0.224609	0.516846	-0.146246	-0.737506	0.098161	-0.651967
23361		9.707196	0.799437	-1.071150	-0.002920	0.001922	-0.005222	-0.759277	-0.218750	0.532471	-0.146431	-0.737412	0.098196	-0.652027
23362		9.693910	0.801688	-1.091044	-0.003081	-0.002073	-0.004709	-0.767822	-0.222900	0.528320	-0.146418	-0.737496	0.098163	-0.651939
23363		9.699498	0.818733	-1.056137	0.004165	-0.000649	-0.005420	-0.761719	-0.223633	0.526367	-0.146410	-0.737506	0.098081	-0.651942
23364		9.707603	0.838002	-1.065883	0.008118	-0.001274	-0.007189	-0.768311	-0.217041	0.534668	-0.146416	-0.737544	0.097960	-0.651916
23365		9.719239	0.856533	-1.054027	0.003504	-0.000006	-0.007529	-0.758789	-0.217285	0.526367	-0.146314	-0.737597	0.097844	-0.651897
23366		9.714019	0.833833	-1.085461	-0.003932	-0.000787	-0.009482	-0.752686	-0.217529	0.524658	-0.146378	-0.737624	0.097812	-0.651856
23367		9.687654	0.800886	-1.064942	-0.003663	0.001409	-0.013758	-0.767090	-0.221680	0.518799	-0.146505	-0.737654	0.097743	-0.651804
23368		9.707423	0.795037	-1.063798	0.005912	0.002230	-0.010926	-0.763184	-0.217041	0.521973	-0.146576	-0.737578	0.097644	-0.651889
23369		9.701600	0.802801	-1.098031	0.002102	-0.001557	-0.004805	-0.761963	-0.216797	0.528076	-0.146555	-0.737564	0.097632	-0.651912
23370		9.707833	0.789297	-1.060153	0.001980	-0.000241	-0.007038	-0.764893	-0.221924	0.525391	-0.146514	-0.737593	0.097567	-0.651898
23371		9.723016	0.829078	-1.025564	-0.001363	-0.000307	-0.009900	-0.755615	-0.212402	0.522217	-0.146602	-0.737585	0.097510	-0.651895
23372		9.726790	0.881013	-1.059542	0.003321	-0.000899	-0.009129	-0.767578	-0.213623	0.525391	-0.146563	-0.737610	0.097452	-0.651885
23373		9.716248	0.869925	-1.063043	-0.002624	-0.000523	-0.006318	-0.756104	-0.218750	0.520020	-0.146523	-0.737586	0.097450	-0.651921
23374		9.686479	0.836773	-1.064025	-0.008801	0.000938	-0.006914	-0.764160	-0.218018	0.527588	-0.146673	-0.737551	0.097511	-0.651918
23375		9.705546	0.839433	-1.067078	-0.006769	-0.001283	-0.012147	-0.759766	-0.218750	0.523438	-0.146761	-0.737566	0.097472	-0.651887
23376		9.703846	0.816794	-1.077000	-0.006231	-0.000608	-0.012269	-0.761719	-0.221436	0.525879	-0.146891	-0.737564	0.097447	-0.651863
23377		9.713272	0.775615	-1.080859	0.003981	-0.001536	-0.007018	-0.761230	-0.217285	0.525635	-0.146892	-0.737592	0.097374	-0.651843
23378		9.717355	0.810757	-1.053858	0.007174	-0.001260	-0.006075	-0.764160	-0.217773	0.523926	-0.146808	-0.737622	0.097290	-0.651840
23379		9.709712	0.850426	-1.037764	0.000207	-0.000018	-0.003645	-0.760254	-0.212646	0.528564	-0.146781	-0.737601	0.097291	-0.651871
23380		9.686056	0.861282	-1.060142	-0.001023	-0.001156	-0.005315	-0.754883	-0.218262	0.523926	-0.146695	-0.737640	0.097268	-0.651849
23381		9.674121	0.867776	-1.071424	-0.000166	-0.000269	-0.007910	-0.760498	-0.221191	0.520752	-0.146736	-0.737665	0.097233	-0.651816
23382		9.714626	0.843784	-1.065923	0.002127	0.001740	-0.012479	-0.763428	-0.217285	0.525879	-0.146837	-0.737635	0.097148	-0.651840
23383		9.727667	0.823520	-1.046716	0.003993	0.001127	-0.008388	-0.765625	-0.218262	0.520996	-0.146797	-0.737635	0.097062	-0.651862
23384		9.712898	0.843594	-1.074579	0.003773	-0.001514	-0.003371	-0.764893	-0.211914	0.528809	-0.146753	-0.737605	0.097052	-0.651907
23385		9.695605	0.861393	-1.057955	-0.004148	-0.000763	-0.005826	-0.761719	-0.218018	0.525146	-0.146678	-0.737618	0.097045	-0.651911
23386		9.685138	0.850320	-1.061050	-0.001206	0.002152	-0.009345	-0.760254	-0.214600	0.520020	-0.146714	-0.737603	0.096993	-0.651927
23387		9.694647	0.852462	-1.062146	0.002028	0.001991	-0.007659	-0.761230	-0.218750	0.515869	-0.146701	-0.737565	0.096958	-0.651979
23388		9.713911	0.810329	-1.067258	0.000179	-0.001125	-0.003329	-0.766846	-0.222412	0.524658	-0.146741	-0.737510	0.097006	-0.652024
23389		9.716629	0.819414	-1.049730	-0.002559	0.000151	-0.005882	-0.769043	-0.221924	0.520264	-0.146802	-0.737481	0.097003	-0.652044
23390		9.728239	0.838043	-1.037349	0.000977	0.001754	-0.007724	-0.764160	-0.213623	0.523193	-0.146862	-0.737409	0.096973	-0.652116
23391		9.679658	0.854712	-1.090140	0.000950	0.002668	-0.002478	-0.759766	-0.217773	0.523193	-0.146768	-0.737368	0.096968	-0.652185
23392		9.690728	0.837646	-1.083706	-0.001853	-0.000933	-0.003032	-0.760742	-0.220947	0.520752	-0.146765	-0.737368	0.096993	-0.652181
23393		9.705171	0.842140	-1.055279	0.006907	-0.001265	-0.009159	-0.764404	-0.222656	0.529541	-0.146783	-0.737374	0.096906	-0.652184
23394		9.717419	0.873688	-1.038148	0.006337	0.003183	-0.006219	-0.763428	-0.228516	0.523193	-0.146745	-0.737382	0.096798	-0.652199
23395		9.699939	0.863706	-1.084245	-0.003884	-0.000744	-0.002735	-0.759521	-0.216309	0.524902	-0.146881	-0.737359	0.096851	-0.652187
23396		9.704834	0.867609	-1.053789	-0.001331	0.001290	-0.004213	-0.762451	-0.223877	0.529785	-0.146855	-0.737357	0.096847	-0.652195
23397		9.713755	0.834669	-1.061067	0.002826	0.000668	-0.009620	-0.755859	-0.216797	0.523438	-0.146891	-0.737393	0.096744	-0.652162
23398		9.690776	0.837543	-1.079174	-0.004208	0.001227	-0.007623	-0.765381	-0.227783	0.525879	-0.146943	-0.737394	0.096741	-0.652149
23399		9.708531	0.835096	-1.091129	-0.002860	-0.001613	-0.002354	-0.756836	-0.219482	0.519531	-0.147028	-0.737390	0.096776	-0.652129
23400		9.703093	0.826016	-1.064327	0.004695	0.000054	-0.005531	-0.771484	-0.225586	0.529541	-0.147028	-0.737386	0.096743	-0.652139
23401		9.685880	0.822118	-1.048289	0.002176	0.001788	-0.005738	-0.758789	-0.213135	0.524658	-0.147037	-0.737368	0.096680	-0.652167
23402		9.719221	0.863866	-1.083009	-0.002664	-0.002265	0.000305	-0.767578	-0.219727	0.527100	-0.146945	-0.737390	0.096735	-0.652155
23403		9.713783	0.875493	-1.055270	0.000623	-0.000205	0.001363	-0.762939	-0.222412	0.531494	-0.146863	-0.737378	0.096761	-0.652182
23404		9.676788	0.836099	-1.041898	-0.005661	0.001651	-0.006706	-0.767090	-0.216064	0.533203	-0.146926	-0.737395	0.096746	-0.652152
23405		9.690335	0.822415	-1.079784	-0.007335	0.001618	-0.008134	-0.765869	-0.218018	0.533203	-0.146924	-0.737407	0.096719	-0.652143
23406		9.707514	0.785727	-1.097583	0.006658	-0.000801	-0.006256	-0.758545	-0.221191	0.532227	-0.146799	-0.737465	0.096600	-0.652122
23407		9.723927	0.828674	-1.054414	0.010900	-0.000279	-0.005247	-0.762451	-0.221924	0.518799	-0.146685	-0.737546	0.096464	-0.652076
23408		9.705738	0.876902	-1.040768	0.000691	-0.001556	-0.003136	-0.763916	-0.218262	0.525635	-0.146722	-0.737517	0.096494	-0.652097
23409		9.696656	0.890658	-1.034322	-0.001914	0.001057	-0.004830	-0.765137	-0.212646	0.533691	-0.146720	-0.737501	0.096493	-0.652115
23410		9.693267	0.849507	-1.057072	0.001156	0.005320	-0.007487	-0.759521	-0.227783	0.535645	-0.146610	-0.737506	0.096396	-0.652149
23411		9.695828	0.831399	-1.102150	-0.001069	-0.000709	-0.006050	-0.765869	-0.222168	0.527100	-0.146659	-0.737584	0.096332	-0.652059
23412		9.700514	0.857261	-1.071347	0.006292	-0.003233	-0.003158	-0.764160	-0.218506	0.531494	-0.146590	-0.737617	0.096280	-0.652045
23413		9.715513	0.895663	-1.037262	0.005940	-0.000350	-0.002804	-0.756348	-0.218994	0.525146	-0.146470	-0.737658	0.096212	-0.652036
23414		9.705197	0.883363	-1.040346	-0.005329	0.002335	-0.003189	-0.755371	-0.215576	0.525879	-0.146518	-0.737646	0.096257	-0.652031
23415		9.691472	0.850437	-1.065576	-0.009998	0.001366	-0.002901	-0.768555	-0.218506	0.533447	-0.146569	-0.737642	0.096343	-0.652012
23416		9.679291	0.799343	-1.083111	0.003600	0.002279	-0.001410	-0.765869	-0.225586	0.523682	-0.146443	-0.737651	0.096292	-0.652038
23417		9.716318	0.818025	-1.096962	0.006545	0.000995	-0.002498	-0.767578	-0.218994	0.519775	-0.146424	-0.737628	0.096250	-0.652074
23418		9.713018	0.824967	-1.056249	-0.001476	-0.000688	0.001229	-0.766357	-0.226807	0.528076	-0.146403	-0.737571	0.096334	-0.652131
23419		9.710674	0.851690	-1.068580	0.007428	-0.003871	-0.001605	-0.765137	-0.221191	0.537354	-0.146351	-0.737614	0.096283	-0.652102
23420		9.693993	0.881550	-1.047233	0.011682	0.001973	-0.003337	-0.764648	-0.227051	0.522461	-0.146185	-0.737677	0.096135	-0.652090
23421		9.702214	0.878605	-1.057035	-0.002848	0.003704	-0.005095	-0.766846	-0.211182	0.522217	-0.146303	-0.737615	0.096146	-0.652132
23422		9.681025	0.840534	-1.068022	-0.007836	-0.000145	-0.000970	-0.765381	-0.223633	0.528809	-0.146276	-0.737563	0.096253	-0.652180
23423		9.716100	0.820537	-1.097018	0.001896	-0.001525	-0.001154	-0.767578	-0.219238	0.522217	-0.146244	-0.737584	0.096246	-0.652165
23424		9.725949	0.826900	-1.036511	0.000895	0.000453	-0.001848	-0.764404	-0.212402	0.526123	-0.146219	-0.737543	0.096268	-0.652214
23425		9.695502	0.844277	-1.039764	-0.000407	-0.001997	0.002352	-0.760498	-0.225586	0.526611	-0.146093	-0.737548	0.096330	-0.652227
23426		9.696290	0.834923	-1.035974	0.001698	0.001146	0.001114	-0.768799	-0.225098	0.524414	-0.146091	-0.737548	0.096353	-0.652224
23427		9.702438	0.835838	-1.058627	-0.001402	0.002641	0.000287	-0.760254	-0.220947	0.526367	-0.146114	-0.737491	0.096397	-0.652277
23428		9.685096	0.824854	-1.104642	-0.002143	-0.000042	-0.000876	-0.761963	-0.218750	0.527832	-0.146122	-0.737496	0.096440	-0.652263
23429		9.708555	0.837132	-1.081278	0.005717	0.001213	-0.000220	-0.754639	-0.220459	0.525635	-0.146024	-0.737508	0.096416	-0.652275
23430		9.700450	0.818852	-1.072056	0.012923	-0.001095	0.000760	-0.761963	-0.211182	0.525146	-0.145892	-0.737562	0.096360	-0.652252
23431		9.710079	0.818559	-1.074023	0.004686	-0.000578	0.000771	-0.762695	-0.222656	0.526855	-0.145742	-0.737569	0.096371	-0.652275
23432		9.713242	0.882930	-1.049657	-0.004130	-0.000297	0.000162	-0.764160	-0.220215	0.533203	-0.145774	-0.737565	0.096438	-0.652263
23433		9.702978	0.870485	-1.052444	-0.006867	0.003635	-0.003761	-0.758301	-0.223145	0.529297	-0.145813	-0.737559	0.096459	-0.652258
23434		9.677700	0.799070	-1.090946	-0.001069	-0.000710	-0.006049	-0.761475	-0.216553	0.526123	-0.145868	-0.737599	0.096437	-0.652204
23435		9.712467	0.751356	-1.063443	-0.001983	0.000387	-0.005258	-0.763916	-0.217773	0.523438	-0.145876	-0.737600	0.096442	-0.652200
23436		9.722790	0.743823	-1.060949	0.004246	0.001168	-0.005286	-0.765381	-0.217529	0.529541	-0.145845	-0.737584	0.096403	-0.652232
23437		9.720765	0.827741	-1.066014	0.008570	-0.001846	-0.001420	-0.764404	-0.217529	0.526611	-0.145707	-0.737623	0.096347	-0.652226
23438		9.701280	0.849555	-1.062321	0.007500	-0.000537	-0.002543	-0.762695	-0.218994	0.525391	-0.145607	-0.737638	0.096299	-0.652239
23439		9.716412	0.866526	-1.028599	0.004738	0.002285	-0.006152	-0.763916	-0.216553	0.524658	-0.145588	-0.737628	0.096240	-0.652263
23440		9.683382	0.833833	-1.050925	0.001522	0.000890	-0.006781	-0.766113	-0.214355	0.527344	-0.145582	-0.737617	0.096207	-0.652282
23441		9.700733	0.796666	-1.068326	0.000318	0.002878	-0.003838	-0.760986	-0.208740	0.523193	-0.145531	-0.737591	0.096196	-0.652324
23442		9.717775	0.802763	-1.084174	0.008302	-0.001859	-0.004503	-0.763672	-0.213867	0.525146	-0.145388	-0.737615	0.096142	-0.652337
23443		9.722290	0.850111	-1.052442	0.011561	-0.000902	-0.003130	-0.766357	-0.225342	0.529541	-0.145236	-0.737636	0.096062	-0.652359
23444		9.713797	0.876123	-1.041649	0.003390	-0.002383	-0.001322	-0.758545	-0.212402	0.524902	-0.145215	-0.737666	0.096049	-0.652332
23445		9.685782	0.845380	-1.033962	-0.004706	0.002123	-0.001830	-0.763184	-0.217529	0.524170	-0.145209	-0.737645	0.096112	-0.652347
23446		9.687682	0.835109	-1.083156	0.000782	0.000225	-0.003018	-0.767578	-0.220947	0.522461	-0.145196	-0.737633	0.096123	-0.652362
23447		9.704896	0.818811	-1.100245	0.001471	-0.001970	0.000144	-0.760986	-0.220703	0.527344	-0.145175	-0.737614	0.096167	-0.652382
23448		9.712735	0.807868	-1.053740	0.003100	-0.001492	0.000830	-0.765869	-0.217773	0.536865	-0.145126	-0.737639	0.096188	-0.652361
23449		9.705198	0.803079	-1.039826	0.002209	-0.001305	-0.003617	-0.759521	-0.221191	0.521240	-0.145046	-0.737699	0.096136	-0.652318
23450		9.686224	0.810806	-1.093825	0.000160	0.003089	-0.005752	-0.765381	-0.216309	0.525635	-0.145118	-0.737661	0.096138	-0.652345
23451		9.683997	0.816975	-1.106187	0.001139	0.000003	-0.004741	-0.755127	-0.217773	0.531250	-0.145097	-0.737655	0.096125	-0.652359
23452		9.722207	0.789957	-1.056437	0.000512	-0.002452	-0.004731	-0.764404	-0.223877	0.524414	-0.145089	-0.737726	0.096109	-0.652282
23453		9.718989	0.826629	-1.072317	0.003304	0.001159	-0.004179	-0.761475	-0.220947	0.524414	-0.145113	-0.737709	0.096089	-0.652299
23454		9.718312	0.814436	-1.077279	-0.000247	-0.001568	-0.002027	-0.763428	-0.220947	0.531738	-0.145132	-0.737714	0.096125	-0.652284
23455		9.694061	0.839900	-1.041477	-0.004151	-0.000771	-0.005817	-0.767334	-0.212891	0.527832	-0.145185	-0.737741	0.096132	-0.652241
23456		9.711384	0.802969	-1.059332	-0.005133	-0.000344	-0.005456	-0.760986	-0.220947	0.522461	-0.145187	-0.737731	0.096157	-0.652249
23457		9.706141	0.822973	-1.088875	0.003145	-0.001288	-0.004720	-0.759277	-0.218994	0.529297	-0.145204	-0.737734	0.096148	-0.652242
23458		9.695553	0.833033	-1.091732	0.000868	-0.002671	-0.006452	-0.760254	-0.205566	0.526855	-0.145216	-0.737786	0.096123	-0.652184
23459		9.702299	0.854651	-1.048065	-0.005246	-0.000572	-0.006625	-0.764160	-0.215820	0.523682	-0.145189	-0.737795	0.096146	-0.652177
23460		9.700415	0.817208	-1.062510	-0.004307	0.001459	-0.002809	-0.763184	-0.216797	0.526855	-0.145210	-0.737757	0.096203	-0.652207
23461		9.699163	0.792053	-1.072301	-0.003862	-0.002304	-0.001675	-0.759033	-0.221191	0.518311	-0.145210	-0.737767	0.096263	-0.652186
23462		9.714582	0.815395	-1.096741	0.001851	-0.003740	-0.000522	-0.762207	-0.217285	0.530029	-0.145224	-0.737769	0.096325	-0.652172
23463		9.699157	0.849409	-1.066866	0.001627	-0.001536	-0.004235	-0.763428	-0.219971	0.519775	-0.145190	-0.737804	0.096308	-0.652142
23464		9.699636	0.863575	-1.062029	0.000534	0.001322	-0.006415	-0.760498	-0.211426	0.528809	-0.145246	-0.737763	0.096308	-0.652176
23465		9.674505	0.792623	-1.100553	-0.003284	0.001239	-0.008718	-0.754883	-0.216797	0.524170	-0.145257	-0.737772	0.096284	-0.652167
23466		9.694225	0.729511	-1.106573	-0.002235	-0.001178	-0.007279	-0.761230	-0.218018	0.531982	-0.145318	-0.737794	0.096295	-0.652127
23467		9.714739	0.735391	-1.101122	0.008232	0.000148	-0.006299	-0.764160	-0.207520	0.522949	-0.145241	-0.737841	0.096197	-0.652105
23468		9.716765	0.810055	-1.080761	0.010842	0.000204	-0.005974	-0.763428	-0.206299	0.526855	-0.145082	-0.737842	0.096100	-0.652154
23469		9.730041	0.866720	-1.054076	0.005956	0.000780	-0.003111	-0.767578	-0.222412	0.523926	-0.144924	-0.737846	0.096054	-0.652191
23470		9.673765	0.848926	-1.036473	0.003678	0.002056	-0.006213	-0.765381	-0.216309	0.517578	-0.144948	-0.737813	0.096018	-0.652229
23471		9.700842	0.812742	-1.055010	-0.007394	0.004701	-0.010241	-0.774170	-0.210693	0.527100	-0.145091	-0.737720	0.096049	-0.652298
23472		9.704268	0.786585	-1.095828	0.000216	0.001752	-0.010236	-0.763672	-0.220459	0.523682	-0.145055	-0.737687	0.095972	-0.652355
23473		9.702826	0.841298	-1.097853	0.015145	-0.000595	-0.009449	-0.765381	-0.216309	0.525635	-0.144988	-0.737712	0.095821	-0.652364
23474		9.712289	0.871134	-1.036309	0.008159	0.002150	-0.008092	-0.756348	-0.207275	0.529053	-0.144932	-0.737704	0.095719	-0.652399
23475		9.714550	0.846493	-1.024288	-0.005452	0.000078	-0.009276	-0.760010	-0.222168	0.530029	-0.144941	-0.737733	0.095701	-0.652367
23476		9.673353	0.818235	-1.036114	-0.003736	0.002340	-0.008477	-0.761719	-0.213867	0.527100	-0.145039	-0.737737	0.095688	-0.652343
23477		9.711843	0.792415	-1.105330	0.001872	0.000035	-0.002205	-0.760986	-0.218994	0.523193	-0.144972	-0.737746	0.095689	-0.652348
23478		9.687251	0.839582	-1.068661	0.002964	-0.002173	-0.006311	-0.759766	-0.212402	0.532471	-0.144985	-0.737763	0.095670	-0.652329
23479		9.712387	0.870311	-1.032249	0.004547	-0.001250	-0.006368	-0.764404	-0.214844	0.529785	-0.144897	-0.737821	0.095593	-0.652293
23480		9.719394	0.841898	-1.052673	0.004725	-0.000353	-0.004771	-0.764160	-0.220215	0.529541	-0.144818	-0.737845	0.095538	-0.652292
23481		9.687924	0.812812	-1.066214	-0.006077	0.002295	-0.005719	-0.759033	-0.218262	0.522705	-0.144893	-0.737827	0.095566	-0.652291
23482		9.706320	0.823564	-1.072701	-0.007080	0.001609	-0.005043	-0.750732	-0.214600	0.521484	-0.144993	-0.737796	0.095637	-0.652294
23483		9.710936	0.821838	-1.104535	0.007270	-0.000962	-0.004873	-0.755371	-0.218018	0.531494	-0.144947	-0.737829	0.095602	-0.652272
23484		9.703945	0.830482	-1.085570	0.006934	0.000368	-0.003467	-0.760254	-0.221680	0.527588	-0.144874	-0.737881	0.095546	-0.652238
23485		9.706056	0.826555	-1.072783	-0.000944	0.000633	-0.005182	-0.760010	-0.213135	0.522217	-0.144922	-0.737886	0.095554	-0.652220
23486		9.710889	0.830908	-1.042322	0.000618	0.000447	-0.004924	-0.762695	-0.218262	0.531738	-0.144909	-0.737873	0.095560	-0.652237
23487		9.718260	0.837188	-1.056384	0.001686	0.001803	-0.005172	-0.767578	-0.218018	0.529785	-0.144887	-0.737886	0.095523	-0.652232
23488		9.694870	0.825762	-1.079046	0.000883	0.003123	-0.003215	-0.764893	-0.220703	0.522705	-0.144855	-0.737863	0.095512	-0.652267
23489		9.699723	0.830206	-1.048292	-0.004248	0.000110	-0.007293	-0.761230	-0.220947	0.528320	-0.144952	-0.737836	0.095542	-0.652272
23490		9.709755	0.844976	-1.045000	-0.000029	-0.000457	-0.005969	-0.766113	-0.215576	0.520752	-0.144986	-0.737854	0.095535	-0.652245
23491		9.711299	0.828549	-1.037025	0.005232	0.001884	-0.005948	-0.763428	-0.226807	0.527832	-0.144950	-0.737817	0.095494	-0.652301
23492		9.695490	0.828710	-1.012046	0.002554	0.001155	-0.006699	-0.761963	-0.214600	0.524902	-0.145010	-0.737819	0.095466	-0.652290
23493		9.707578	0.831989	-1.058088	-0.001254	0.000410	-0.002719	-0.758789	-0.215088	0.526123	-0.144992	-0.737808	0.095498	-0.652302
23494		9.726791	0.833149	-1.061171	0.001244	0.000244	-0.003563	-0.764404	-0.228271	0.527588	-0.144963	-0.737817	0.095501	-0.652297
23495		9.726727	0.834172	-1.060952	0.001684	0.001806	-0.005170	-0.761719	-0.225586	0.530273	-0.145029	-0.737806	0.095498	-0.652295
23496		9.707726	0.812771	-1.058373	-0.006250	0.000743	-0.001031	-0.760010	-0.212646	0.529541	-0.145109	-0.737804	0.095589	-0.652266
23497		9.662034	0.814373	-1.095086	-0.003950	-0.001429	-0.003157	-0.764160	-0.216553	0.525146	-0.145091	-0.737829	0.095628	-0.652237
23498		9.693321	0.789830	-1.087882	-0.000198	0.002423	-0.009247	-0.765137	-0.220459	0.523926	-0.145128	-0.737806	0.095589	-0.652260
23499		9.717931	0.836610	-1.112197	0.005172	-0.001444	-0.005003	-0.762695	-0.226318	0.531250	-0.145106	-0.737812	0.095561	-0.652262
23500		9.725457	0.848501	-1.064597	0.005463	-0.000321	-0.002238	-0.763428	-0.224609	0.525879	-0.145086	-0.737842	0.095547	-0.652234
23501		9.709480	0.813119	-1.045639	0.002310	0.001603	-0.003809	-0.757812	-0.215088	0.519043	-0.145113	-0.737828	0.095553	-0.652243
23502		9.683008	0.871844	-1.078119	0.000898	0.004236	-0.003527	-0.761963	-0.226318	0.526123	-0.145116	-0.737777	0.095577	-0.652297
23503		9.679492	0.873238	-1.098946	-0.004622	0.001224	-0.000347	-0.765137	-0.216309	0.523926	-0.145194	-0.737755	0.095678	-0.652290
23504		9.725452	0.850856	-1.062764	0.000907	0.001573	-0.002157	-0.762451	-0.220215	0.527100	-0.145161	-0.737726	0.095697	-0.652327
23505		9.710045	0.828179	-1.038673	0.003518	0.001635	-0.001832	-0.767822	-0.216553	0.525879	-0.145127	-0.737721	0.095703	-0.652339
23506		9.717676	0.868477	-1.046923	-0.004800	0.000329	-0.001943	-0.758301	-0.223389	0.524414	-0.145134	-0.737695	0.095765	-0.652359
23507		9.711691	0.811545	-1.030133	-0.005811	0.002304	-0.002638	-0.761719	-0.218506	0.524902	-0.145235	-0.737667	0.095858	-0.652354
23508		9.691754	0.763720	-1.037026	0.003809	0.002757	0.000933	-0.756592	-0.216797	0.528809	-0.145172	-0.737644	0.095887	-0.652390
23509		9.705823	0.782572	-1.069603	0.005071	-0.002325	0.000111	-0.762695	-0.215088	0.520508	-0.145087	-0.737694	0.095904	-0.652349
23510		9.725754	0.830776	-1.062465	-0.000693	-0.000463	-0.001786	-0.763672	-0.218750	0.532715	-0.145071	-0.737672	0.095953	-0.652370
23511		9.697333	0.843323	-1.052963	0.006624	0.000154	-0.001001	-0.762939	-0.221680	0.522461	-0.144975	-0.737704	0.095928	-0.652359
23512		9.697656	0.821360	-1.053991	0.009346	0.000444	0.000494	-0.752197	-0.223145	0.520508	-0.144893	-0.737697	0.095926	-0.652386
23513		9.694468	0.800160	-1.076315	0.001647	0.001595	0.000371	-0.766602	-0.204834	0.528809	-0.144927	-0.737684	0.096009	-0.652381
23514		9.714797	0.826290	-1.069606	0.001562	-0.000185	0.000258	-0.765625	-0.219482	0.529297	-0.144770	-0.737687	0.096010	-0.652412
23515		9.721577	0.874481	-1.082712	0.005772	-0.004523	0.003269	-0.763184	-0.213867	0.519287	-0.144655	-0.737731	0.096049	-0.652382
23516		9.686062	0.859263	-1.060239	0.000646	0.000906	0.001045	-0.767090	-0.218506	0.519775	-0.144605	-0.737691	0.096112	-0.652429
23517		9.689771	0.801862	-1.044986	-0.004602	0.002334	-0.000663	-0.752686	-0.221436	0.523926	-0.144644	-0.737625	0.096205	-0.652481
23518		9.693991	0.786077	-1.081671	-0.003115	-0.002294	0.000854	-0.759521	-0.211182	0.524658	-0.144695	-0.737647	0.096329	-0.652426
23519		9.717624	0.776843	-1.059446	0.003517	0.001635	-0.001831	-0.765625	-0.220947	0.521729	-0.144617	-0.737642	0.096327	-0.652451
23520		9.722895	0.787079	-1.086137	0.004097	0.001873	-0.001213	-0.756592	-0.215820	0.521729	-0.144597	-0.737607	0.096350	-0.652491
23521		9.701986	0.804530	-1.090503	0.010832	0.002256	-0.001044	-0.754639	-0.214355	0.536865	-0.144496	-0.737603	0.096319	-0.652522
23522		9.715198	0.804062	-1.070109	0.006613	0.002820	-0.002369	-0.759033	-0.223877	0.524902	-0.144405	-0.737651	0.096280	-0.652494
23523		9.697076	0.772902	-1.064036	0.004649	-0.002774	0.001406	-0.763184	-0.218750	0.529785	-0.144385	-0.737679	0.096346	-0.652457
23524		9.710144	0.827935	-1.037938	0.006052	-0.000733	0.004664	-0.762451	-0.212402	0.525879	-0.144270	-0.737698	0.096397	-0.652453
23525		9.748400	0.850094	-1.043415	-0.002656	0.000378	-0.001068	-0.766113	-0.211182	0.526611	-0.144248	-0.737687	0.096455	-0.652462
23526		9.717610	0.833072	-1.052017	-0.003265	0.001693	-0.002743	-0.764160	-0.223877	0.520752	-0.144229	-0.737662	0.096489	-0.652490
23527		9.668667	0.785049	-1.054738	-0.002339	-0.002061	-0.002157	-0.760986	-0.219971	0.525635	-0.144303	-0.737648	0.096578	-0.652476
23528		9.689359	0.733756	-1.055718	-0.002844	0.002145	-0.004034	-0.763672	-0.224365	0.525635	-0.144370	-0.737627	0.096633	-0.652477
23529		9.714688	0.736453	-1.081453	-0.004005	0.001671	-0.005270	-0.767334	-0.221436	0.528076	-0.144483	-0.737603	0.096695	-0.652470
23530		9.731009	0.786306	-1.095831	0.007323	-0.004051	-0.002750	-0.762939	-0.222900	0.531006	-0.144427	-0.737645	0.096680	-0.652437
23531		9.742554	0.809947	-1.022245	0.005508	-0.000758	-0.001492	-0.752686	-0.209961	0.522217	-0.144399	-0.737674	0.096696	-0.652407
23532		9.698583	0.793063	-1.051298	0.001562	-0.000184	0.000259	-0.762451	-0.222412	0.521973	-0.144340	-0.737683	0.096750	-0.652403
23533		9.699097	0.806211	-1.046245	0.000392	0.002005	-0.002348	-0.756592	-0.212891	0.521973	-0.144385	-0.737650	0.096806	-0.652422
23534		9.672382	0.830089	-1.084899	0.003758	0.001193	-0.004717	-0.764893	-0.217529	0.531738	-0.144361	-0.737647	0.096796	-0.652432
23535		9.722145	0.814321	-1.085018	0.008827	-0.001127	-0.004601	-0.760010	-0.217773	0.523438	-0.144284	-0.737688	0.096738	-0.652411
23536		9.719458	0.813307	-1.040972	0.013399	-0.001902	-0.004991	-0.758789	-0.220215	0.523438	-0.144196	-0.737725	0.096660	-0.652400
23537		9.716645	0.806364	-1.058743	0.001100	0.001570	-0.005785	-0.759766	-0.220215	0.526855	-0.144254	-0.737714	0.096680	-0.652397
23538		9.697142	0.772506	-1.060979	-0.005006	0.000977	-0.004597	-0.760986	-0.221680	0.520020	-0.144350	-0.737705	0.096757	-0.652374
23539		9.691287	0.779308	-1.095503	0.010256	-0.002644	-0.005192	-0.755859	-0.216553	0.533936	-0.144322	-0.737728	0.096718	-0.652361
23540		9.724941	0.784484	-1.070242	0.006091	0.001248	-0.007465	-0.756836	-0.210693	0.523193	-0.144312	-0.737774	0.096672	-0.652318
23541		9.727984	0.807173	-1.047946	-0.004286	-0.002121	-0.006660	-0.761963	-0.217285	0.524170	-0.144356	-0.737789	0.096707	-0.652285
23542		9.708063	0.795138	-1.050041	-0.002965	-0.001859	-0.003515	-0.765869	-0.211670	0.521240	-0.144397	-0.737792	0.096770	-0.652264
23543		9.711865	0.802107	-1.085898	-0.003960	0.001225	-0.004528	-0.767822	-0.215332	0.527588	-0.144410	-0.737751	0.096799	-0.652303
23544		9.693359	0.794353	-1.078416	-0.004234	0.001213	-0.007604	-0.763428	-0.215088	0.514893	-0.144465	-0.737732	0.096807	-0.652311
23545		9.714313	0.813553	-1.067985	0.002913	-0.001715	-0.007037	-0.759033	-0.215332	0.519531	-0.144472	-0.737714	0.096785	-0.652333
23546		9.715115	0.840717	-1.058900	0.005150	-0.002543	-0.004677	-0.761963	-0.221680	0.518311	-0.144445	-0.737729	0.096775	-0.652323
23547		9.739911	0.801416	-1.033944	-0.006798	-0.001063	-0.000597	-0.761230	-0.220215	0.522461	-0.144539	-0.737694	0.096917	-0.652321
23548		9.708294	0.793228	-1.046571	-0.009421	0.001535	-0.002295	-0.768311	-0.213867	0.527100	-0.144658	-0.737651	0.097053	-0.652323
23549		9.693284	0.777675	-1.079532	-0.000174	0.002880	-0.003280	-0.764893	-0.223145	0.529053	-0.144628	-0.737619	0.097057	-0.652366
23550		9.708136	0.788691	-1.107682	0.004334	0.001438	-0.004096	-0.760254	-0.212646	0.528320	-0.144638	-0.737619	0.097065	-0.652362
23551		9.730875	0.788839	-1.089614	0.009016	-0.002882	-0.001633	-0.763428	-0.214600	0.520508	-0.144513	-0.737670	0.097034	-0.652337
23552		9.697152	0.791359	-1.053485	0.001916	-0.000397	-0.001458	-0.759521	-0.212891	0.524658	-0.144474	-0.737653	0.097063	-0.652360
23553		9.708506	0.774416	-1.046709	0.002403	0.004500	-0.004010	-0.765869	-0.216064	0.526123	-0.144449	-0.737623	0.097056	-0.652400
23554		9.702410	0.802525	-1.079362	0.001483	0.001814	-0.001538	-0.759766	-0.221680	0.524902	-0.144416	-0.737602	0.097082	-0.652428
23555		9.731777	0.816046	-1.079503	-0.000470	-0.003786	0.002236	-0.761963	-0.212891	0.523926	-0.144423	-0.737625	0.097209	-0.652381
23556		9.726070	0.792764	-1.057555	-0.003413	0.001248	0.001625	-0.760742	-0.213867	0.525879	-0.144398	-0.737597	0.097303	-0.652404
23557		9.698921	0.774273	-1.044607	-0.003639	0.000794	-0.000710	-0.763184	-0.215332	0.531006	-0.144403	-0.737584	0.097385	-0.652406
23558		9.694838	0.763213	-1.070737	-0.005235	0.000523	-0.006929	-0.763428	-0.214355	0.524902	-0.144471	-0.737590	0.097421	-0.652379
23559		9.701207	0.744367	-1.094327	-0.001143	0.002405	-0.008139	-0.753662	-0.214355	0.520020	-0.144513	-0.737569	0.097407	-0.652396
23560		9.726428	0.747992	-1.120398	0.004797	-0.000554	-0.009548	-0.760986	-0.216553	0.533447	-0.144538	-0.737588	0.097363	-0.652375
23561		9.735224	0.799754	-1.058461	0.009161	-0.002435	-0.005997	-0.760498	-0.206543	0.529541	-0.144471	-0.737655	0.097304	-0.652323
23562		9.721204	0.815942	-1.020767	0.006650	-0.001381	0.000061	-0.765137	-0.211670	0.527344	-0.144312	-0.737691	0.097281	-0.652320
23563		9.698849	0.829515	-1.034176	0.005459	0.003471	-0.003916	-0.765381	-0.217285	0.527100	-0.144234	-0.737673	0.097235	-0.652366
23564		9.685658	0.831091	-1.053446	0.000176	0.002665	-0.004996	-0.764404	-0.223633	0.528320	-0.144255	-0.737650	0.097247	-0.652385
23565		9.699072	0.803553	-1.096099	-0.001821	0.001281	-0.003649	-0.763672	-0.213623	0.528809	-0.144328	-0.737637	0.097317	-0.652373
23566		9.703408	0.794742	-1.070642	0.009869	-0.000855	-0.004525	-0.765137	-0.220215	0.527100	-0.144225	-0.737670	0.097248	-0.652369
23567		9.728390	0.825337	-1.033930	0.011881	0.001642	-0.006185	-0.763672	-0.222900	0.523193	-0.144168	-0.737678	0.097168	-0.652384
23568		9.729190	0.817881	-1.029505	-0.002015	0.003049	-0.006614	-0.767822	-0.216064	0.521729	-0.144273	-0.737639	0.097212	-0.652399
23569		9.696211	0.771461	-1.056123	-0.001692	0.002618	-0.002798	-0.767822	-0.220215	0.519775	-0.144284	-0.737589	0.097250	-0.652447
23570		9.693472	0.729034	-1.079325	0.006537	-0.001604	-0.001103	-0.767090	-0.211426	0.527100	-0.144234	-0.737579	0.097265	-0.652467
23571		9.715412	0.772657	-1.059388	0.002398	0.000728	-0.002321	-0.765869	-0.222412	0.527832	-0.144164	-0.737572	0.097259	-0.652492
23572		9.721126	0.802537	-1.019566	0.000578	-0.001768	-0.004283	-0.759033	-0.217773	0.528809	-0.144206	-0.737586	0.097306	-0.652460
23573		9.706508	0.800174	-1.048466	0.002122	0.000718	-0.005395	-0.763428	-0.212891	0.524414	-0.144229	-0.737601	0.097321	-0.652435
23574		9.716029	0.766967	-1.055469	0.002138	0.001829	-0.005710	-0.760498	-0.214111	0.518311	-0.144214	-0.737586	0.097301	-0.652459
23575		9.694892	0.750771	-1.065762	-0.004044	-0.000560	-0.004636	-0.758057	-0.220703	0.521729	-0.144267	-0.737564	0.097360	-0.652463
23576		9.715835	0.804208	-1.049990	0.001495	-0.002854	-0.005065	-0.761230	-0.211426	0.530029	-0.144319	-0.737586	0.097408	-0.652419
23577		9.713509	0.810046	-1.063039	-0.000791	0.000420	-0.003265	-0.765869	-0.225830	0.520020	-0.144297	-0.737596	0.097434	-0.652408
23578		9.701946	0.794100	-1.075450	-0.004367	-0.003904	-0.006763	-0.766846	-0.211914	0.520752	-0.144436	-0.737596	0.097520	-0.652365
23579		9.707460	0.790647	-1.041761	-0.000491	-0.001355	-0.010620	-0.764160	-0.214111	0.526367	-0.144466	-0.737591	0.097468	-0.652372
23580		9.710245	0.807810	-1.081652	0.003823	0.000988	-0.009497	-0.759521	-0.211182	0.523193	-0.144467	-0.737595	0.097401	-0.652377
23581		9.711835	0.792055	-1.073892	-0.000746	-0.002026	-0.007422	-0.764160	-0.220703	0.524414	-0.144483	-0.737613	0.097395	-0.652355
23582		9.703277	0.798401	-1.063921	-0.005358	-0.001711	-0.012987	-0.764648	-0.215820	0.530029	-0.144644	-0.737618	0.097408	-0.652311
23583		9.718732	0.802856	-1.088673	-0.005166	0.000297	-0.011710	-0.765381	-0.224365	0.519043	-0.144749	-0.737624	0.097400	-0.652282
23584		9.699294	0.770176	-1.091114	0.000214	0.000227	-0.009148	-0.763916	-0.215088	0.529053	-0.144855	-0.737600	0.097413	-0.652284
23585		9.704010	0.775557	-1.060679	-0.001235	0.000631	-0.008241	-0.758057	-0.218994	0.522705	-0.144892	-0.737605	0.097401	-0.652272
23586		9.719531	0.813697	-1.079539	-0.000253	0.000215	-0.008598	-0.769287	-0.223389	0.536133	-0.144970	-0.737605	0.097414	-0.652252
23587		9.730255	0.854904	-1.066600	-0.002346	-0.000287	-0.008733	-0.762695	-0.216309	0.528076	-0.145059	-0.737626	0.097434	-0.652206
23588		9.713149	0.782573	-1.061830	-0.009680	0.001729	-0.010892	-0.767822	-0.221924	0.525879	-0.145207	-0.737608	0.097472	-0.652187
23589		9.680614	0.750665	-1.083706	-0.003001	0.002587	-0.011458	-0.762695	-0.221191	0.527100	-0.145326	-0.737579	0.097462	-0.652195
23590		9.707102	0.758994	-1.101008	0.002112	-0.001267	-0.010284	-0.771240	-0.223633	0.522949	-0.145389	-0.737603	0.097437	-0.652157
23591		9.731706	0.825877	-1.058995	0.007668	-0.002439	-0.011029	-0.769531	-0.215820	0.523926	-0.145404	-0.737619	0.097352	-0.652149
23592		9.736369	0.831142	-1.028968	-0.000028	0.000670	-0.006264	-0.760742	-0.208252	0.530029	-0.145402	-0.737597	0.097335	-0.652176
23593		9.712174	0.828599	-1.055703	-0.007966	0.002217	-0.003515	-0.763916	-0.214355	0.522705	-0.145416	-0.737582	0.097390	-0.652182
23594		9.702448	0.829887	-1.053745	-0.000257	0.000223	-0.008593	-0.767090	-0.219238	0.517334	-0.145440	-0.737574	0.097362	-0.652191
23595		9.688699	0.819915	-1.078169	0.005702	0.003290	-0.012310	-0.763916	-0.219482	0.518799	-0.145475	-0.737533	0.097263	-0.652244
23596		9.720453	0.844378	-1.060042	0.005324	0.001278	-0.009966	-0.757812	-0.217529	0.527832	-0.145499	-0.737516	0.097201	-0.652268
23597		9.719928	0.833282	-1.064634	0.003108	0.001432	-0.006058	-0.768555	-0.218994	0.522949	-0.145503	-0.737527	0.097194	-0.652255
23598		9.720389	0.812995	-1.064959	0.003599	0.003671	-0.007236	-0.762451	-0.209717	0.527832	-0.145504	-0.737488	0.097150	-0.652305
23599		9.725684	0.796474	-1.034805	0.000232	0.002464	-0.009768	-0.764404	-0.213379	0.526123	-0.145499	-0.737484	0.097080	-0.652321
23600		9.701302	0.829242	-1.055841	0.007694	0.001794	-0.006758	-0.764893	-0.217041	0.523438	-0.145423	-0.737486	0.096992	-0.652349
23601		9.707819	0.810184	-1.079609	0.005953	0.001078	-0.008606	-0.764160	-0.216064	0.525635	-0.145405	-0.737483	0.096922	-0.652367
23602		9.730123	0.798900	-1.065799	-0.002111	0.001279	-0.006711	-0.770508	-0.213135	0.517822	-0.145440	-0.737469	0.096930	-0.652373
23603		9.720386	0.799936	-1.064171	0.002151	-0.000818	-0.004330	-0.754883	-0.222900	0.519043	-0.145386	-0.737444	0.096905	-0.652417
23604		9.698243	0.826906	-1.072992	0.002743	0.000533	-0.004028	-0.767822	-0.217041	0.531250	-0.145431	-0.737438	0.096962	-0.652406
23605		9.699093	0.819420	-1.068686	-0.001634	0.002406	-0.007573	-0.767090	-0.217529	0.526611	-0.145461	-0.737427	0.096949	-0.652413
23606		9.707657	0.830691	-1.073866	0.001716	0.000511	-0.009615	-0.762451	-0.218018	0.527100	-0.145485	-0.737428	0.096900	-0.652414
23607		9.710987	0.832050	-1.052567	0.001744	-0.002156	-0.008246	-0.756592	-0.218506	0.520752	-0.145506	-0.737459	0.096881	-0.652377
23608		9.723977	0.833408	-1.032862	-0.003170	-0.000087	-0.006463	-0.764893	-0.218018	0.522217	-0.145585	-0.737453	0.096934	-0.652359
23609		9.722547	0.831180	-1.041393	-0.010405	0.001027	-0.007143	-0.757080	-0.216797	0.519775	-0.145713	-0.737416	0.097016	-0.652360
23610		9.688332	0.815637	-1.071603	-0.007125	-0.000654	-0.004406	-0.764160	-0.216553	0.522705	-0.145797	-0.737402	0.097111	-0.652343
23611		9.707507	0.817445	-1.074680	-0.002942	0.000363	-0.004133	-0.764160	-0.221680	0.516602	-0.145819	-0.737383	0.097152	-0.652353
23612		9.709637	0.814100	-1.061804	-0.004269	0.000107	-0.007268	-0.764404	-0.216797	0.526611	-0.145922	-0.737349	0.097210	-0.652360
23613		9.709481	0.816295	-1.061550	-0.000886	0.001553	-0.010253	-0.762939	-0.218506	0.525635	-0.145972	-0.737344	0.097172	-0.652360
23614		9.708008	0.814641	-1.070096	0.001712	0.000521	-0.009611	-0.765381	-0.212891	0.526123	-0.146006	-0.737350	0.097134	-0.652351
23615		9.707844	0.816605	-1.070088	0.001931	-0.000145	-0.006969	-0.769043	-0.218018	0.524658	-0.145970	-0.737357	0.097084	-0.652358
23616		9.725658	0.814892	-1.082153	-0.005792	-0.001275	-0.006472	-0.757812	-0.215332	0.526367	-0.146031	-0.737347	0.097125	-0.652350
23617		9.739590	0.807554	-1.058460	0.003729	-0.000747	-0.009584	-0.757812	-0.223389	0.530518	-0.146032	-0.737379	0.097065	-0.652323
23618		9.698704	0.860896	-1.054376	0.005892	0.001544	-0.009337	-0.760742	-0.223389	0.521973	-0.146064	-0.737406	0.097022	-0.652292
23619		9.680442	0.819113	-1.053061	-0.001668	-0.001798	-0.011824	-0.760498	-0.219971	0.524414	-0.146186	-0.737419	0.097028	-0.652249
23620		9.708390	0.749531	-1.077880	-0.000532	0.002465	-0.012273	-0.771484	-0.217773	0.522461	-0.146279	-0.737408	0.096992	-0.652246
23621		9.730997	0.793389	-1.111216	0.010383	-0.002086	-0.009516	-0.764648	-0.218018	0.522461	-0.146206	-0.737427	0.096868	-0.652259
23622		9.745553	0.859791	-1.067809	0.003654	-0.002521	-0.009689	-0.763184	-0.217285	0.524902	-0.146213	-0.737449	0.096814	-0.652241
23623		9.704518	0.871890	-1.012727	0.001509	-0.002586	-0.010563	-0.754639	-0.220215	0.527588	-0.146241	-0.737478	0.096766	-0.652208
23624		9.692675	0.844588	-1.029731	0.003869	0.001950	-0.014556	-0.762451	-0.221924	0.526611	-0.146319	-0.737501	0.096681	-0.652178
23625		9.670341	0.825867	-1.048207	-0.002380	0.004626	-0.010708	-0.759277	-0.228027	0.527832	-0.146422	-0.737469	0.096672	-0.652192
23626		9.702954	0.834885	-1.088242	-0.000050	-0.000426	-0.005936	-0.764404	-0.220947	0.519043	-0.146505	-0.737484	0.096734	-0.652148
23627		9.727154	0.853379	-1.056858	0.013033	-0.003546	-0.008129	-0.762695	-0.221436	0.526367	-0.146431	-0.737519	0.096635	-0.652139
23628		9.718890	0.872127	-1.042036	0.009313	0.002570	-0.011572	-0.754395	-0.216553	0.534912	-0.146426	-0.737525	0.096523	-0.652149
23629		9.699159	0.860594	-1.043456	-0.006251	-0.000186	-0.006234	-0.763428	-0.223633	0.520264	-0.146492	-0.737558	0.096574	-0.652090
23630		9.707370	0.858235	-1.053987	0.000575	-0.001744	-0.004267	-0.764160	-0.219971	0.522705	-0.146522	-0.737555	0.096623	-0.652079
23631		9.692787	0.855745	-1.082926	0.004593	0.000620	-0.006209	-0.759033	-0.213623	0.526367	-0.146504	-0.737550	0.096594	-0.652094
23632		9.696786	0.882452	-1.051795	-0.008869	-0.001384	-0.006246	-0.763672	-0.224365	0.522949	-0.146572	-0.737557	0.096651	-0.652063
23633		9.721978	0.885417	-1.078534	-0.005937	-0.003971	-0.001489	-0.763672	-0.223633	0.531250	-0.146637	-0.737564	0.096783	-0.652020
23634		9.686304	0.858285	-1.060488	-0.006068	0.001818	-0.004960	-0.764893	-0.222168	0.515869	-0.146723	-0.737550	0.096860	-0.652004
23635		9.696537	0.838518	-1.062371	-0.012448	0.001170	-0.006843	-0.763428	-0.214844	0.516357	-0.146888	-0.737489	0.096978	-0.652019
23636		9.701222	0.837336	-1.093985	-0.009274	-0.000730	-0.005272	-0.759766	-0.217529	0.533936	-0.146958	-0.737454	0.097050	-0.652032
23637		9.723315	0.812693	-1.085472	0.004693	-0.001381	-0.004419	-0.754395	-0.221191	0.524658	-0.146897	-0.737503	0.097019	-0.651995
23638		9.719963	0.833927	-1.040011	0.000945	0.001396	-0.006917	-0.761963	-0.219727	0.526855	-0.146942	-0.737507	0.097031	-0.651979
23639		9.708976	0.831046	-1.046706	-0.009663	0.002145	-0.004928	-0.760742	-0.220947	0.521973	-0.147040	-0.737477	0.097121	-0.651977
23640		9.694142	0.815759	-1.080114	-0.005109	-0.001929	-0.004372	-0.759277	-0.229492	0.523193	-0.147103	-0.737477	0.097202	-0.651952
23641		9.722245	0.839788	-1.083878	0.003267	0.002353	-0.004456	-0.761963	-0.216553	0.530762	-0.147153	-0.737460	0.097252	-0.651952
23642		9.696120	0.860785	-1.056518	0.000062	-0.000198	-0.004770	-0.762207	-0.223877	0.521729	-0.147131	-0.737479	0.097247	-0.651936
23643		9.697011	0.853334	-1.052349	-0.007233	0.001344	-0.006186	-0.759033	-0.227783	0.530273	-0.147248	-0.737446	0.097334	-0.651934
23644		9.709849	0.841502	-1.036543	-0.005485	0.003174	-0.004654	-0.756348	-0.219482	0.532471	-0.147360	-0.737427	0.097434	-0.651915
23645		9.715374	0.817589	-1.068736	-0.002138	0.001046	-0.001187	-0.765137	-0.218750	0.529541	-0.147359	-0.737440	0.097501	-0.651890
23646		9.725518	0.844289	-1.060663	-0.004359	-0.001915	-0.001857	-0.762695	-0.218994	0.523438	-0.147360	-0.737452	0.097569	-0.651866
23647		9.717335	0.861989	-1.045521	-0.001612	0.000869	-0.006503	-0.766113	-0.216064	0.527100	-0.147390	-0.737439	0.097579	-0.651872
23648		9.714720	0.855495	-1.062432	0.003109	0.004810	-0.006981	-0.768311	-0.216309	0.524414	-0.147355	-0.737409	0.097513	-0.651924
23649		9.675838	0.842767	-1.060385	-0.004283	0.000117	-0.007253	-0.765137	-0.221680	0.533936	-0.147386	-0.737393	0.097515	-0.651935
23650		9.712117	0.803675	-1.089767	-0.007584	0.000687	-0.009667	-0.767822	-0.218506	0.528320	-0.147496	-0.737399	0.097539	-0.651900
23651		9.702318	0.805448	-1.088092	0.010043	0.000387	-0.008423	-0.762695	-0.223877	0.519043	-0.147413	-0.737420	0.097419	-0.651913
23652		9.723511	0.850426	-1.068066	0.011894	0.000211	-0.005103	-0.756348	-0.214844	0.525146	-0.147343	-0.737423	0.097364	-0.651934
23653		9.717589	0.863183	-1.040205	-0.002432	-0.000061	-0.003933	-0.761230	-0.221436	0.520020	-0.147342	-0.737430	0.097392	-0.651922
23654		9.715465	0.882122	-1.048157	-0.001565	-0.000690	-0.005450	-0.760254	-0.225098	0.530029	-0.147384	-0.737422	0.097434	-0.651916
23655		9.696322	0.835226	-1.055319	0.003501	0.003054	-0.007635	-0.762939	-0.220215	0.525146	-0.147413	-0.737422	0.097412	-0.651912
23656		9.686374	0.823633	-1.057784	0.003042	0.004149	-0.007401	-0.760010	-0.220703	0.526123	-0.147416	-0.737397	0.097372	-0.651946
23657		9.720255	0.836557	-1.089070	0.009056	0.000804	-0.008062	-0.758545	-0.220459	0.522949	-0.147371	-0.737418	0.097288	-0.651944
23658		9.724650	0.889127	-1.048272	0.016302	0.000834	-0.007694	-0.764160	-0.227539	0.531250	-0.147263	-0.737446	0.097155	-0.651957
23659		9.708307	0.863132	-1.033194	0.003084	0.001476	-0.006036	-0.759766	-0.224365	0.527344	-0.147288	-0.737453	0.097159	-0.651943
23660		9.700615	0.846785	-1.023060	-0.005833	0.003623	-0.008450	-0.759277	-0.223389	0.525879	-0.147411	-0.737426	0.097205	-0.651939
23661		9.691968	0.832751	-1.079248	0.004295	0.000395	-0.003756	-0.761230	-0.217773	0.517822	-0.147393	-0.737436	0.097215	-0.651930
23662		9.700476	0.842779	-1.085137	0.007296	-0.002389	-0.003771	-0.758301	-0.219971	0.529297	-0.147316	-0.737452	0.097187	-0.651934
23663		9.719807	0.863816	-1.021585	0.003077	0.000364	-0.005721	-0.754639	-0.215820	0.527588	-0.147303	-0.737473	0.097169	-0.651915
23664		9.716153	0.866086	-1.042952	0.001402	0.001427	-0.007455	-0.761719	-0.222656	0.532715	-0.147304	-0.737487	0.097134	-0.651904
23665		9.693028	0.854478	-1.065870	0.006271	0.001809	-0.005092	-0.761719	-0.219727	0.524414	-0.147263	-0.737505	0.097096	-0.651899
23666		9.691435	0.838899	-1.079268	-0.000168	0.000482	-0.007399	-0.765381	-0.227539	0.532471	-0.147293	-0.737503	0.097090	-0.651896
23667		9.706733	0.835539	-1.046484	-0.004230	-0.000336	-0.006512	-0.757324	-0.224854	0.525635	-0.147382	-0.737512	0.097147	-0.651856
23668		9.717998	0.860736	-1.092169	0.007876	-0.002145	-0.003154	-0.766113	-0.219727	0.527832	-0.147335	-0.737550	0.097147	-0.651824
23669		9.711786	0.860286	-1.069566	0.007824	-0.000583	-0.004204	-0.761719	-0.212158	0.524170	-0.147251	-0.737570	0.097097	-0.651829
23670		9.687784	0.876411	-1.030042	0.000982	-0.001266	-0.005542	-0.759277	-0.221924	0.522949	-0.147208	-0.737582	0.097068	-0.651828
23671		9.704641	0.883356	-1.045944	-0.001501	0.001089	-0.005337	-0.767090	-0.221680	0.523682	-0.147253	-0.737570	0.097107	-0.651827
23672		9.707935	0.864564	-1.091095	-0.000341	0.001569	-0.004108	-0.763672	-0.222656	0.520752	-0.147262	-0.737543	0.097135	-0.651850
23673		9.688963	0.817327	-1.098102	-0.008228	0.000625	-0.005514	-0.758545	-0.224609	0.525146	-0.147370	-0.737510	0.097229	-0.651850
23674		9.703259	0.822701	-1.069219	0.001914	-0.000110	-0.006947	-0.764160	-0.216553	0.527588	-0.147408	-0.737522	0.097237	-0.651826
23675		9.713957	0.828818	-1.062413	0.015123	-0.001843	-0.008283	-0.755859	-0.225098	0.525391	-0.147273	-0.737573	0.097079	-0.651823
23676		9.708356	0.867892	-1.025204	0.003654	0.000610	-0.005103	-0.759521	-0.215576	0.522705	-0.147288	-0.737584	0.097094	-0.651804
23677		9.704922	0.882990	-1.041767	-0.009853	0.000122	-0.006196	-0.763184	-0.218750	0.526123	-0.147377	-0.737565	0.097164	-0.651795
23678		9.721353	0.864472	-1.066927	-0.007241	0.001330	-0.006181	-0.759277	-0.228271	0.523682	-0.147452	-0.737544	0.097216	-0.651794
23679		9.690660	0.835102	-1.080381	-0.004870	-0.000127	-0.007859	-0.762939	-0.221680	0.531494	-0.147581	-0.737539	0.097288	-0.651760
23680		9.692762	0.832670	-1.067476	-0.005101	0.000550	-0.010492	-0.763672	-0.223633	0.525146	-0.147678	-0.737546	0.097287	-0.651730
23681		9.704911	0.783430	-1.066456	-0.005679	0.001426	-0.011418	-0.763428	-0.224121	0.526611	-0.147807	-0.737529	0.097299	-0.651718
23682		9.735053	0.804047	-1.057597	0.003877	-0.002029	-0.007340	-0.762451	-0.220947	0.527832	-0.147810	-0.737557	0.097276	-0.651689
23683		9.725801	0.844095	-1.042284	0.002829	-0.003403	-0.007095	-0.764648	-0.221436	0.525146	-0.147801	-0.737599	0.097252	-0.651647
23684		9.719748	0.857672	-1.014369	0.001398	0.003667	-0.008074	-0.763428	-0.219971	0.530762	-0.147824	-0.737572	0.097221	-0.651678
23685		9.701048	0.891246	-1.058236	0.002902	0.002836	-0.008237	-0.765869	-0.228760	0.518066	-0.147820	-0.737570	0.097163	-0.651689
23686		9.689871	0.875595	-1.069827	-0.000116	0.001158	-0.006969	-0.754639	-0.220459	0.522217	-0.147894	-0.737538	0.097204	-0.651703
23687		9.708590	0.852345	-1.082655	-0.002790	-0.001832	-0.007092	-0.763672	-0.218506	0.526611	-0.147954	-0.737555	0.097237	-0.651665
23688		9.731807	0.892642	-1.049969	0.004289	0.000411	-0.003750	-0.775879	-0.217041	0.520508	-0.147892	-0.737560	0.097211	-0.651677
23689		9.703239	0.917847	-1.035536	-0.000695	0.000656	-0.002086	-0.756836	-0.229980	0.523682	-0.147844	-0.737518	0.097234	-0.651732
23690		9.681269	0.896801	-1.054426	-0.006085	0.001809	-0.004949	-0.757568	-0.220215	0.524414	-0.147972	-0.737495	0.097346	-0.651712
23691		9.687768	0.851855	-1.087691	-0.000177	0.000494	-0.007390	-0.755127	-0.225342	0.532471	-0.148003	-0.737500	0.097340	-0.651701
23692		9.709391	0.862501	-1.072978	-0.002029	0.001522	-0.005522	-0.760498	-0.223145	0.526855	-0.148059	-0.737513	0.097376	-0.651668
23693		9.731895	0.851368	-1.059088	0.002374	0.001039	-0.007798	-0.762939	-0.219238	0.516602	-0.148079	-0.737519	0.097351	-0.651660
23694		9.712534	0.852081	-1.055610	0.009218	0.002849	-0.006774	-0.761475	-0.228516	0.522949	-0.148017	-0.737494	0.097274	-0.651714
23695		9.702824	0.852832	-1.053817	0.008286	0.000577	-0.005056	-0.761230	-0.227051	0.523193	-0.147994	-0.737499	0.097258	-0.651716
23696		9.706464	0.866039	-1.027242	0.001740	0.002099	-0.003966	-0.767822	-0.225342	0.521973	-0.148017	-0.737480	0.097297	-0.651727
23697		9.701999	0.889378	-1.047611	0.000231	0.000700	-0.003176	-0.753418	-0.218994	0.529297	-0.148027	-0.737456	0.097344	-0.651744
23698		9.712631	0.881769	-1.045102	0.001215	0.000296	-0.003530	-0.768799	-0.232178	0.528320	-0.148007	-0.737479	0.097353	-0.651722
23699		9.714706	0.865050	-1.036835	0.003188	0.002832	-0.005178	-0.759521	-0.227539	0.525879	-0.148038	-0.737458	0.097373	-0.651735
23700		9.715552	0.844301	-1.037315	-0.000350	0.000461	-0.003789	-0.761963	-0.218506	0.525146	-0.148078	-0.737457	0.097432	-0.651718
23701		9.701269	0.854397	-1.061007	-0.004464	0.001193	-0.003954	-0.759033	-0.215820	0.527100	-0.148104	-0.737440	0.097478	-0.651725
23702		9.710972	0.868682	-1.057845	0.003241	-0.002074	-0.003189	-0.760498	-0.216797	0.523193	-0.148035	-0.737472	0.097460	-0.651707
23703		9.703837	0.890133	-1.034416	0.007761	-0.001220	-0.004618	-0.761475	-0.218018	0.521484	-0.147947	-0.737495	0.097402	-0.651709
23704		9.694884	0.855684	-1.038547	-0.006318	0.001104	-0.001774	-0.758789	-0.225098	0.531738	-0.147976	-0.737464	0.097488	-0.651725
23705		9.689132	0.874979	-1.068058	-0.000007	-0.001964	-0.004866	-0.764404	-0.228271	0.519531	-0.147998	-0.737501	0.097516	-0.651674
23706		9.704149	0.844924	-1.045421	0.010486	-0.000902	-0.003131	-0.770264	-0.225830	0.526123	-0.147936	-0.737508	0.097505	-0.651683
23707		9.716317	0.867242	-1.024706	-0.000872	0.000887	-0.003980	-0.761963	-0.224854	0.522949	-0.147958	-0.737487	0.097548	-0.651694
23708		9.730114	0.913573	-1.047647	-0.007656	-0.001377	-0.004268	-0.758545	-0.214111	0.531982	-0.148053	-0.737478	0.097655	-0.651667
23709		9.699460	0.870189	-1.066087	0.001332	0.001631	-0.002684	-0.762451	-0.223633	0.528076	-0.147988	-0.737489	0.097634	-0.651673
23710		9.664847	0.808116	-1.053516	0.001383	-0.000781	-0.006813	-0.764648	-0.213867	0.528076	-0.148006	-0.737506	0.097627	-0.651650
23711		9.705675	0.819480	-1.042469	-0.004527	-0.001704	-0.003749	-0.762451	-0.218750	0.528809	-0.147996	-0.737516	0.097652	-0.651638
23712		9.737326	0.849155	-1.082676	0.009096	-0.002081	-0.001183	-0.767090	-0.217041	0.525635	-0.147867	-0.737554	0.097612	-0.651630
23713		9.703945	0.889768	-1.032190	0.008457	-0.000757	-0.002845	-0.759277	-0.218994	0.523193	-0.147750	-0.737568	0.097557	-0.651649
23714		9.713228	0.864844	-1.043380	-0.007825	0.000815	-0.001297	-0.755371	-0.227783	0.534424	-0.147798	-0.737542	0.097666	-0.651651
23715		9.679546	0.860542	-1.068933	0.000286	-0.000861	-0.002125	-0.758057	-0.218262	0.524170	-0.147811	-0.737577	0.097720	-0.651600
23716		9.694781	0.843450	-1.041105	0.011294	0.001161	-0.006004	-0.760498	-0.219727	0.523438	-0.147717	-0.737594	0.097624	-0.651616
23717		9.684000	0.852834	-1.043390	0.001735	0.000988	-0.003651	-0.764160	-0.210693	0.519043	-0.147699	-0.737586	0.097636	-0.651628
23718		9.727433	0.865551	-1.076910	0.003703	-0.002047	-0.003731	-0.756348	-0.220459	0.526611	-0.147612	-0.737592	0.097604	-0.651645
23719		9.726386	0.887972	-1.076569	0.011527	-0.000629	-0.003059	-0.767822	-0.226807	0.523682	-0.147502	-0.737628	0.097542	-0.651639
23720		9.686501	0.888654	-1.016997	0.006605	0.001386	-0.001291	-0.762939	-0.221191	0.521484	-0.147450	-0.737611	0.097563	-0.651667
23721		9.705258	0.851528	-1.034549	-0.008235	-0.001624	-0.004881	-0.759277	-0.221924	0.523438	-0.147540	-0.737599	0.097661	-0.651646
23722		9.699101	0.845550	-1.073988	-0.001228	-0.001995	-0.006825	-0.764648	-0.221924	0.527100	-0.147586	-0.737615	0.097684	-0.651614
23723		9.726503	0.831181	-1.092352	0.008397	0.001927	-0.004205	-0.765381	-0.222900	0.521484	-0.147514	-0.737614	0.097634	-0.651638
23724		9.701347	0.855520	-1.056857	0.005906	-0.003530	-0.001807	-0.766846	-0.220703	0.521973	-0.147453	-0.737636	0.097654	-0.651625
23725		9.712074	0.860766	-1.050254	-0.001977	-0.001158	-0.004155	-0.760986	-0.227295	0.528320	-0.147473	-0.737626	0.097701	-0.651625
23726		9.697725	0.871093	-1.074042	-0.001052	0.002232	-0.006186	-0.764160	-0.221924	0.524902	-0.147537	-0.737614	0.097734	-0.651618
23727		9.716464	0.834578	-1.091494	0.002541	-0.001411	-0.005269	-0.763184	-0.220703	0.525146	-0.147528	-0.737627	0.097734	-0.651606
23728		9.712782	0.855680	-1.046715	0.001035	-0.003927	-0.004165	-0.765625	-0.227783	0.526855	-0.147516	-0.737657	0.097756	-0.651571
23729		9.706612	0.855375	-1.023685	-0.005797	0.002898	-0.002211	-0.767334	-0.219971	0.520996	-0.147591	-0.737617	0.097866	-0.651584
23730		9.700509	0.835235	-1.067196	-0.005620	-0.000677	0.000624	-0.763184	-0.222168	0.518799	-0.147602	-0.737587	0.097983	-0.651596
23731		9.706671	0.849694	-1.085731	-0.004930	-0.002180	-0.002466	-0.763672	-0.223633	0.521484	-0.147650	-0.737576	0.098087	-0.651583
