// Start Time: Unknown
// Update Rate: 40.0Hz
// Filter Profile: human (46.1)
// Firmware Version: 4.6.0
PacketCounter	SampleTimeFine	Acc_X	Acc_Y	Acc_Z	Gyr_X	Gyr_Y	Gyr_Z	Mag_X	Mag_Y	Mag_Z	Quat_q0	Quat_q1	Quat_q2	Quat_q3
23208		9.710613	0.251687	-0.911951	-0.000167	0.000461	-0.003864	-0.746582	-0.266602	0.509521	-0.186216	-0.715622	0.186074	-0.646982
23209		9.759774	0.247571	-0.940207	0.001611	-0.000186	-0.002664	-0.738525	-0.267578	0.509766	-0.186223	-0.715633	0.186037	-0.646978
23210		9.757351	0.245050	-0.926761	0.008848	0.002463	-0.004340	-0.739746	-0.263672	0.509277	-0.186193	-0.715647	0.185919	-0.647005
23211		9.739620	0.314648	-0.898308	0.009384	0.001012	-0.005106	-0.742188	-0.266113	0.510742	-0.186119	-0.715681	0.185801	-0.647022
23212		9.728940	0.301838	-0.910858	0.004938	0.000546	-0.007923	-0.734619	-0.271729	0.506592	-0.186131	-0.715710	0.185688	-0.647019
23213		9.744391	0.264648	-0.917581	0.003097	-0.000031	-0.008229	-0.732422	-0.269531	0.509766	-0.186245	-0.715720	0.185572	-0.647009
23214		9.736404	0.304738	-0.930902	0.003822	0.003559	-0.007362	-0.738037	-0.266846	0.512207	-0.186308	-0.715712	0.185456	-0.647032
23215		9.749647	0.296394	-0.916014	0.002294	-0.000645	-0.002392	-0.734619	-0.270752	0.506104	-0.186297	-0.715738	0.185411	-0.647021
23216		9.718112	0.276886	-0.926921	0.003595	0.000006	-0.005642	-0.735840	-0.262451	0.508789	-0.186376	-0.715750	0.185309	-0.647014
23217		9.754958	0.284055	-0.904116	0.005124	0.001421	-0.005922	-0.736084	-0.261719	0.507812	-0.186350	-0.715780	0.185204	-0.647018
23218		9.736867	0.305545	-0.888186	0.004935	-0.000836	-0.012247	-0.740723	-0.269043	0.507324	-0.186374	-0.715839	0.185047	-0.646990
23219		9.730992	0.300503	-0.927396	0.001545	-0.000004	-0.010783	-0.739746	-0.262207	0.509766	-0.186497	-0.715873	0.184910	-0.646957
23220		9.754282	0.252623	-0.935486	0.000532	-0.000045	-0.009779	-0.736816	-0.260742	0.513916	-0.186544	-0.715916	0.184799	-0.646928
23221		9.749663	0.313450	-0.892475	0.002249	0.003630	-0.003734	-0.733398	-0.266602	0.508301	-0.186499	-0.715945	0.184724	-0.646930
23222		9.739123	0.316152	-0.900672	0.001012	0.000040	-0.001006	-0.738281	-0.265381	0.503906	-0.186522	-0.715960	0.184675	-0.646921
23223		9.759913	0.306695	-0.906426	0.000534	0.001332	-0.005459	-0.745117	-0.262695	0.504639	-0.186598	-0.715942	0.184591	-0.646943
23224		9.749730	0.332655	-0.887288	-0.005732	0.002997	-0.006123	-0.733398	-0.273438	0.510498	-0.186712	-0.715896	0.184548	-0.646972
23225		9.722871	0.255085	-0.940420	-0.012325	-0.001378	-0.009459	-0.735840	-0.263184	0.502441	-0.186986	-0.715936	0.184511	-0.646860
23226		9.730826	0.202750	-0.930616	0.000779	0.002055	-0.008674	-0.735352	-0.273438	0.511475	-0.187058	-0.715917	0.184396	-0.646893
23227		9.754282	0.262756	-0.932698	0.010930	0.005144	-0.002935	-0.739014	-0.266602	0.512207	-0.187057	-0.715948	0.184244	-0.646902
23228		9.762618	0.306560	-0.897972	0.006615	0.001547	0.001844	-0.737793	-0.269287	0.502686	-0.186972	-0.715979	0.184192	-0.646908
23229		9.760239	0.319654	-0.880715	-0.000558	-0.001264	-0.001693	-0.733398	-0.263916	0.508545	-0.187039	-0.715963	0.184172	-0.646911
23230		9.749377	0.316783	-0.912056	0.000157	0.005109	-0.005523	-0.739990	-0.273438	0.506836	-0.187065	-0.715949	0.184093	-0.646941
23231		9.718293	0.303779	-0.898569	0.001026	0.004153	-0.007568	-0.740479	-0.274414	0.509521	-0.187215	-0.715931	0.183984	-0.646950
23232		9.728462	0.264437	-0.920839	0.003493	-0.001107	-0.005718	-0.732666	-0.266602	0.513428	-0.187314	-0.715971	0.183883	-0.646904
23233		9.770424	0.283231	-0.901710	0.009160	-0.001157	0.000932	-0.736084	-0.265625	0.497559	-0.187193	-0.716051	0.183808	-0.646873
23234		9.772918	0.302578	-0.910608	0.004254	0.003754	0.000438	-0.743408	-0.269043	0.500244	-0.187183	-0.715957	0.183764	-0.646992
23235		9.754821	0.272967	-0.905839	-0.001185	0.004573	-0.003240	-0.737549	-0.271729	0.511719	-0.187290	-0.715855	0.183730	-0.647083
23236		9.707769	0.292741	-0.909420	0.003140	-0.000158	-0.007272	-0.740234	-0.267822	0.502686	-0.187361	-0.715913	0.183634	-0.647026
23237		9.725795	0.275135	-0.925410	0.001294	-0.000718	-0.007568	-0.736328	-0.260742	0.508545	-0.187433	-0.715895	0.183557	-0.647047
23238		9.759515	0.251076	-0.940140	0.001448	-0.001132	-0.004705	-0.738525	-0.276855	0.509277	-0.187348	-0.715934	0.183498	-0.647045
23239		9.770361	0.239229	-0.912070	0.002766	0.003609	-0.002207	-0.741455	-0.271973	0.509766	-0.187467	-0.715931	0.183458	-0.647025
23240		9.754777	0.279032	-0.904468	0.001095	0.003957	-0.004592	-0.729736	-0.262451	0.503662	-0.187541	-0.715916	0.183414	-0.647034
23241		9.736407	0.293679	-0.911110	0.002973	0.001669	-0.005797	-0.734863	-0.263428	0.502441	-0.187489	-0.715927	0.183343	-0.647056
23242		9.741213	0.268394	-0.945400	0.001563	-0.000062	-0.003628	-0.734619	-0.262695	0.509521	-0.187451	-0.715911	0.183313	-0.647094
23243		9.744155	0.235397	-0.924293	0.000306	0.000556	-0.006384	-0.738770	-0.261963	0.510986	-0.187390	-0.715960	0.183255	-0.647073
23244		9.752066	0.291135	-0.908944	0.010199	0.004329	-0.005425	-0.738281	-0.263916	0.506592	-0.187211	-0.715991	0.183121	-0.647128
23245		9.752089	0.308918	-0.904338	0.010891	0.001087	-0.007647	-0.740234	-0.271240	0.504639	-0.187104	-0.716016	0.182982	-0.647171
23246		9.759592	0.309770	-0.924900	0.005119	-0.001340	-0.007383	-0.741699	-0.260986	0.502686	-0.187182	-0.716015	0.182910	-0.647170
23247		9.728739	0.302563	-0.889108	0.000705	0.003616	-0.005287	-0.740479	-0.270996	0.503418	-0.187124	-0.715932	0.182880	-0.647287
23248		9.744190	0.308200	-0.906051	-0.003712	0.003066	-0.005061	-0.734375	-0.269775	0.508545	-0.187284	-0.715856	0.182894	-0.647321
23249		9.736350	0.255435	-0.920219	-0.004187	0.001581	-0.007897	-0.730469	-0.267334	0.499512	-0.187407	-0.715891	0.182857	-0.647257
23250		9.752280	0.240842	-0.899707	0.002209	-0.001801	-0.008653	-0.737793	-0.273438	0.514160	-0.187502	-0.715897	0.182798	-0.647239
23251		9.741658	0.294261	-0.896120	-0.000699	0.003240	-0.008053	-0.740234	-0.271240	0.500488	-0.187609	-0.715965	0.182725	-0.647155
23252		9.762477	0.285856	-0.901705	0.003366	-0.000769	-0.006570	-0.735840	-0.270752	0.511230	-0.187723	-0.715901	0.182690	-0.647202
23253		9.762458	0.254927	-0.909672	-0.000546	0.001448	-0.009510	-0.726318	-0.276855	0.501221	-0.187804	-0.715968	0.182612	-0.647126
23254		9.749109	0.315992	-0.911645	-0.000649	0.003097	-0.010184	-0.733398	-0.264404	0.507324	-0.188128	-0.715971	0.182558	-0.647044
23255		9.720422	0.290784	-0.916022	-0.007461	0.000703	-0.010927	-0.733398	-0.266602	0.497559	-0.188163	-0.716008	0.182526	-0.647002
23256		9.743763	0.204513	-0.955219	-0.003742	-0.001004	-0.010802	-0.742188	-0.272461	0.504150	-0.188290	-0.715948	0.182504	-0.647038
23257		9.751741	0.266924	-0.917152	0.010998	0.002178	-0.006567	-0.740967	-0.265869	0.506836	-0.188305	-0.715900	0.182400	-0.647115
23258		9.751667	0.300753	-0.908887	0.001533	0.000017	-0.002561	-0.740723	-0.268066	0.505127	-0.188188	-0.715887	0.182388	-0.647168
23259		9.754066	0.304777	-0.922110	-0.003514	-0.000229	-0.003714	-0.741699	-0.277100	0.504395	-0.188197	-0.715845	0.182419	-0.647203
23260		9.765007	0.260640	-0.901890	0.000065	0.003933	-0.006663	-0.739502	-0.281738	0.501465	-0.188425	-0.715764	0.182408	-0.647229
23261		9.720315	0.300618	-0.913981	0.002703	0.006487	-0.009945	-0.737793	-0.265137	0.506592	-0.188799	-0.715654	0.182360	-0.647255
23262		9.728095	0.324332	-0.906646	0.001522	-0.001336	-0.007898	-0.741455	-0.272949	0.506104	-0.188688	-0.715695	0.182292	-0.647261
23263		9.761934	0.284090	-0.925752	0.003981	-0.003784	-0.005593	-0.736328	-0.268555	0.505127	-0.188720	-0.715714	0.182257	-0.647240
23264		9.762138	0.291165	-0.902783	0.003732	0.002373	-0.004406	-0.735107	-0.271973	0.508057	-0.188672	-0.715712	0.182207	-0.647271
23265		9.736241	0.273714	-0.897019	-0.004766	0.003106	-0.006068	-0.741455	-0.266602	0.505127	-0.188776	-0.715733	0.182207	-0.647218
23266		9.725671	0.277621	-0.905192	0.008379	0.000927	-0.009283	-0.744873	-0.274414	0.500244	-0.188652	-0.715723	0.182081	-0.647300
23267		9.735836	0.304280	-0.911431	0.014220	0.001795	-0.007806	-0.736572	-0.260742	0.506836	-0.188700	-0.715619	0.181959	-0.647435
23268		9.756734	0.278937	-0.921353	0.006758	-0.001592	-0.003928	-0.742920	-0.269531	0.506592	-0.188388	-0.715686	0.181869	-0.647478
23269		9.751790	0.289556	-0.891098	0.003396	0.000527	-0.002296	-0.739258	-0.265625	0.506836	-0.188313	-0.715658	0.181851	-0.647535
23270		9.751487	0.300654	-0.909959	0.008386	0.002286	-0.003946	-0.732422	-0.265381	0.499023	-0.188122	-0.715669	0.181759	-0.647604
23271		9.743353	0.306705	-0.931514	0.002353	0.000564	-0.003303	-0.742676	-0.269043	0.505371	-0.188085	-0.715629	0.181758	-0.647660
23272		9.725885	0.273226	-0.885194	-0.002937	0.000964	-0.005141	-0.732178	-0.268555	0.501953	-0.188100	-0.715578	0.181769	-0.647709
23273		9.757035	0.272441	-0.901100	0.001539	0.002737	-0.002159	-0.736328	-0.265869	0.500732	-0.188113	-0.715560	0.181769	-0.647725
23274		9.746423	0.291640	-0.905302	0.003175	0.001109	-0.004045	-0.738037	-0.270264	0.512207	-0.188052	-0.715513	0.181750	-0.647800
23275		9.751915	0.261349	-0.897779	0.003081	-0.004109	-0.001651	-0.732422	-0.267090	0.505371	-0.187932	-0.715647	0.181706	-0.647699
23276		9.756878	0.235188	-0.932431	0.005786	0.002377	-0.001327	-0.738525	-0.272217	0.501953	-0.187823	-0.715684	0.181657	-0.647703
23277		9.751810	0.294862	-0.889140	0.011324	0.005407	-0.003339	-0.731445	-0.270264	0.508301	-0.187845	-0.715609	0.181586	-0.647799
23278		9.735508	0.322697	-0.928067	0.005475	0.001819	-0.005217	-0.737305	-0.269775	0.501221	-0.187819	-0.715708	0.181494	-0.647723
23279		9.725035	0.293217	-0.944953	0.001868	-0.003635	-0.006536	-0.738525	-0.272949	0.510254	-0.187881	-0.715694	0.181487	-0.647723
23280		9.740994	0.278029	-0.924827	0.000512	-0.000014	-0.004632	-0.739746	-0.268311	0.510498	-0.187912	-0.715758	0.181451	-0.647654
23281		9.758813	0.286663	-0.955629	-0.000031	0.001434	-0.003870	-0.737061	-0.266846	0.508545	-0.187820	-0.715800	0.181417	-0.647643
23282		9.749125	0.274373	-0.902568	0.004436	0.000495	-0.001288	-0.731689	-0.270752	0.510254	-0.187663	-0.715851	0.181380	-0.647643
23283		9.764448	0.295540	-0.916264	0.004461	0.000424	-0.002353	-0.729980	-0.273682	0.512695	-0.187608	-0.715971	0.181315	-0.647544
23284		9.735576	0.334064	-0.904756	-0.001616	0.002918	-0.004116	-0.735352	-0.265625	0.506104	-0.187674	-0.716104	0.181261	-0.647393
23285		9.748936	0.309744	-0.893969	-0.010535	-0.002072	-0.006210	-0.742676	-0.265381	0.499268	-0.187699	-0.716122	0.181327	-0.647348
23286		9.728554	0.206791	-0.916684	-0.015038	-0.003775	-0.008126	-0.732666	-0.273438	0.504883	-0.187831	-0.715990	0.181472	-0.647414
23287		9.741374	0.187622	-0.948238	-0.001265	0.004701	-0.007290	-0.731445	-0.268555	0.507812	-0.187992	-0.715985	0.181437	-0.647383
23288		9.736000	0.242269	-0.927862	0.006932	0.004779	-0.004179	-0.738770	-0.265137	0.503418	-0.187899	-0.716044	0.181345	-0.647371
23289		9.761682	0.294364	-0.924835	0.002787	-0.003311	-0.000204	-0.738770	-0.275146	0.505615	-0.187750	-0.716027	0.181385	-0.647422
23290		9.775051	0.268329	-0.914725	-0.005282	-0.000971	0.003095	-0.738770	-0.275146	0.511230	-0.187860	-0.715993	0.181497	-0.647396
23291		9.746546	0.240319	-0.919365	-0.002465	0.002446	-0.002307	-0.745361	-0.263916	0.507812	-0.187925	-0.716028	0.181494	-0.647340
23292		9.696974	0.256505	-0.909536	0.005963	0.004604	-0.008381	-0.738281	-0.265625	0.503662	-0.187738	-0.715977	0.181406	-0.647474
23293		9.748699	0.296006	-0.919355	0.010607	-0.000913	-0.008720	-0.743652	-0.260742	0.505127	-0.187611	-0.715988	0.181301	-0.647529
23294		9.764264	0.308172	-0.914059	0.006447	0.000584	-0.007413	-0.733398	-0.264893	0.506836	-0.187378	-0.715949	0.181242	-0.647655
23295		9.764137	0.287129	-0.940917	0.000787	0.001983	-0.004612	-0.739258	-0.266357	0.505615	-0.187279	-0.715988	0.181211	-0.647650
23296		9.728292	0.266590	-0.901566	-0.006105	0.002562	-0.000698	-0.740479	-0.270264	0.513428	-0.187248	-0.715932	0.181293	-0.647698
23297		9.730755	0.270608	-0.914108	-0.000529	0.002744	-0.005238	-0.731689	-0.264160	0.498291	-0.187184	-0.715994	0.181225	-0.647667
23298		9.754380	0.255207	-0.913845	0.005175	-0.001511	-0.010569	-0.736328	-0.265137	0.501465	-0.187194	-0.715982	0.181183	-0.647689
23299		9.765306	0.229079	-0.890180	0.000432	0.000152	-0.012770	-0.739014	-0.261475	0.507812	-0.187232	-0.715957	0.181136	-0.647718
23300		9.740900	0.270156	-0.928555	0.002270	0.000735	-0.011440	-0.741699	-0.271729	0.503906	-0.187073	-0.715992	0.181040	-0.647752
23301		9.741514	0.251848	-0.890102	0.006515	0.000383	-0.010607	-0.732422	-0.270508	0.508301	-0.187136	-0.715965	0.180953	-0.647789
23302		9.746926	0.217333	-0.905032	0.002766	0.002148	-0.009672	-0.744629	-0.264893	0.504395	-0.187163	-0.716043	0.180842	-0.647725
23303		9.754114	0.268106	-0.912983	0.004629	0.002661	-0.009406	-0.736328	-0.270508	0.503906	-0.187077	-0.715972	0.180784	-0.647845
23304		9.738197	0.292953	-0.910011	0.006263	0.001042	-0.011290	-0.733887	-0.264404	0.509277	-0.187131	-0.715983	0.180680	-0.647846
23305		9.751236	0.280593	-0.918599	0.007101	-0.001195	-0.013496	-0.741455	-0.268066	0.508545	-0.186996	-0.716108	0.180507	-0.647796
23306		9.743038	0.310969	-0.913511	0.002486	0.000159	-0.009689	-0.742920	-0.271240	0.503662	-0.186947	-0.716130	0.180426	-0.647808
23307		9.758768	0.306846	-0.911695	0.001349	0.003191	-0.006039	-0.732910	-0.272217	0.505127	-0.187010	-0.716043	0.180422	-0.647887
23308		9.742938	0.292068	-0.940112	-0.000767	-0.002103	-0.007785	-0.731689	-0.273682	0.511963	-0.187114	-0.716096	0.180394	-0.647807
23309		9.729583	0.325804	-0.927467	-0.001785	0.003297	-0.009059	-0.740967	-0.269287	0.510254	-0.187191	-0.716198	0.180293	-0.647699
23310		9.745449	0.305637	-0.929804	-0.002471	-0.001687	-0.009105	-0.744873	-0.269531	0.507812	-0.187176	-0.716246	0.180248	-0.647663
23311		9.743282	0.271757	-0.924756	-0.000472	-0.000175	-0.008831	-0.737549	-0.270752	0.501709	-0.187170	-0.716225	0.180214	-0.647697
23312		9.755723	0.324342	-0.917029	-0.001154	0.002991	-0.007681	-0.742432	-0.260986	0.498779	-0.187282	-0.716155	0.180219	-0.647741
23313		9.739956	0.332431	-0.917780	-0.000450	0.002475	-0.009497	-0.745117	-0.269531	0.504639	-0.187238	-0.716024	0.180246	-0.647891
23314		9.761080	0.307814	-0.927018	-0.005359	0.001896	-0.004646	-0.733154	-0.263184	0.505859	-0.187279	-0.715934	0.180303	-0.647963
23315		9.753664	0.293410	-0.910006	-0.007496	0.002104	-0.004530	-0.736572	-0.268555	0.502441	-0.187228	-0.715940	0.180346	-0.647959
23316		9.740881	0.277043	-0.908846	-0.007087	0.002380	-0.004901	-0.728027	-0.270996	0.502197	-0.187314	-0.715881	0.180414	-0.647981
23317		9.709765	0.257781	-0.918778	-0.003816	0.004581	-0.007868	-0.741699	-0.265625	0.505615	-0.187464	-0.715878	0.180406	-0.647943
23318		9.725593	0.253371	-0.916229	0.006930	0.004744	-0.005240	-0.738037	-0.267822	0.509766	-0.187319	-0.715837	0.180335	-0.648050
23319		9.782209	0.304056	-0.928987	0.005179	0.001269	0.001167	-0.750244	-0.265869	0.497559	-0.187130	-0.715883	0.180301	-0.648063
23320		9.779967	0.306557	-0.892639	-0.003090	-0.001340	0.000847	-0.738525	-0.274658	0.508301	-0.187111	-0.715700	0.180467	-0.648225
23321		9.751644	0.278879	-0.896886	-0.000819	0.006194	-0.004457	-0.736572	-0.268799	0.505371	-0.187182	-0.715686	0.180427	-0.648230
23322		9.712813	0.276199	-0.881606	0.004791	0.007671	-0.004725	-0.739990	-0.270264	0.505859	-0.187139	-0.715655	0.180359	-0.648296
23323		9.727567	0.302729	-0.936637	0.006135	0.001411	-0.005961	-0.737305	-0.268799	0.506836	-0.187094	-0.715663	0.180284	-0.648321
23324		9.762025	0.290448	-0.904503	0.005112	0.000068	-0.002035	-0.737305	-0.270508	0.501465	-0.186992	-0.715701	0.180245	-0.648320
23325		9.764627	0.300091	-0.894183	0.005927	0.003337	-0.002378	-0.738281	-0.271484	0.505127	-0.186990	-0.715652	0.180230	-0.648378
23326		9.746722	0.286772	-0.885354	0.000041	0.005299	-0.001331	-0.740479	-0.270996	0.514404	-0.187008	-0.715608	0.180239	-0.648418
23327		9.733669	0.280052	-0.902857	-0.000457	0.003889	-0.003099	-0.731201	-0.257812	0.502197	-0.186924	-0.715668	0.180174	-0.648395
23328		9.725987	0.253234	-0.931933	0.003702	0.002410	-0.004401	-0.735352	-0.267578	0.505615	-0.186743	-0.715676	0.180156	-0.648444
23329		9.742118	0.237424	-0.911055	0.009767	0.000001	-0.001568	-0.734863	-0.270508	0.510254	-0.186602	-0.715723	0.180090	-0.648451
23330		9.773456	0.242042	-0.904061	0.008151	0.001550	-0.000751	-0.736084	-0.270020	0.510498	-0.186472	-0.715805	0.180001	-0.648422
23331		9.773079	0.275018	-0.895711	0.006833	0.002308	-0.001379	-0.735352	-0.261963	0.509521	-0.186352	-0.715871	0.179919	-0.648407
23332		9.742133	0.260621	-0.882922	0.009036	0.001897	-0.004686	-0.735596	-0.265869	0.499512	-0.186126	-0.715942	0.179812	-0.648423
23333		9.720815	0.282129	-0.895859	0.008808	0.002484	-0.006435	-0.733398	-0.270020	0.507568	-0.186102	-0.715901	0.179765	-0.648488
23334		9.759791	0.287321	-0.908818	0.006014	0.003068	-0.006635	-0.734131	-0.270264	0.505127	-0.186081	-0.715952	0.179659	-0.648466
23335		9.746790	0.287658	-0.903941	0.002022	0.000037	-0.007185	-0.736328	-0.270508	0.507324	-0.186125	-0.715989	0.179609	-0.648428
23336		9.749668	0.287906	-0.874834	0.001567	-0.000101	-0.004685	-0.742676	-0.268799	0.510010	-0.186126	-0.716028	0.179574	-0.648394
23337		9.746953	0.274074	-0.907609	-0.000503	0.002617	-0.007368	-0.736572	-0.264648	0.505859	-0.186107	-0.716033	0.179520	-0.648409
23338		9.744625	0.250182	-0.920865	0.000563	0.002516	-0.007425	-0.736816	-0.275391	0.502197	-0.186072	-0.716034	0.179486	-0.648427
23339		9.733691	0.293099	-0.898467	0.004339	-0.002020	-0.009815	-0.738037	-0.267090	0.510254	-0.186213	-0.716051	0.179418	-0.648386
23340		9.749600	0.273077	-0.901261	0.000612	-0.000338	-0.009950	-0.733398	-0.270508	0.508789	-0.186177	-0.716118	0.179334	-0.648346
23341		9.733609	0.275087	-0.926118	0.004699	-0.001605	-0.008057	-0.740479	-0.267822	0.503174	-0.186160	-0.716212	0.179235	-0.648274
23342		9.733068	0.309242	-0.918529	0.001793	-0.000683	-0.002936	-0.735352	-0.269043	0.507080	-0.186139	-0.716178	0.179263	-0.648310
23343		9.760218	0.259067	-0.897175	-0.004564	-0.000211	-0.004724	-0.740723	-0.268066	0.511719	-0.186176	-0.716201	0.179285	-0.648268
23344		9.754493	0.269197	-0.931873	-0.000330	0.003483	-0.009488	-0.736084	-0.263672	0.505127	-0.186151	-0.716227	0.179202	-0.648269
23345		9.746342	0.305559	-0.902899	0.003869	0.001878	-0.012916	-0.734375	-0.266357	0.509277	-0.186126	-0.716243	0.179107	-0.648285
23346		9.705747	0.229367	-0.915256	-0.000202	-0.003604	-0.009605	-0.740967	-0.273438	0.512939	-0.186095	-0.716339	0.179047	-0.648204
23347		9.744612	0.235368	-0.929220	-0.004774	0.000308	-0.007538	-0.738037	-0.267334	0.505859	-0.186147	-0.716387	0.179005	-0.648149
23348		9.781252	0.244365	-0.905985	0.003294	0.003395	-0.011092	-0.735352	-0.264893	0.508301	-0.186156	-0.716379	0.178922	-0.648178
23349		9.756217	0.323923	-0.913317	0.007049	-0.001066	-0.012417	-0.735352	-0.271240	0.510498	-0.186078	-0.716457	0.178792	-0.648150
23350		9.741353	0.295188	-0.880642	-0.002072	-0.001403	-0.009473	-0.730713	-0.271973	0.502930	-0.186121	-0.716532	0.178730	-0.648071
23351		9.733982	0.252747	-0.914231	-0.000967	0.002483	-0.004868	-0.724854	-0.260986	0.504395	-0.186218	-0.716521	0.178738	-0.648054
23352		9.707415	0.277865	-0.919543	0.003249	0.004935	-0.002569	-0.732178	-0.263428	0.510986	-0.186111	-0.716536	0.178733	-0.648069
23353		9.775016	0.300107	-0.908544	0.004697	-0.000190	-0.001661	-0.742676	-0.262207	0.513184	-0.185929	-0.716616	0.178696	-0.648043
23354		9.759517	0.290076	-0.913608	0.008471	0.003371	-0.003924	-0.742188	-0.273926	0.509521	-0.185693	-0.716640	0.178609	-0.648109
23355		9.730736	0.296120	-0.910148	0.007520	0.000418	-0.009585	-0.731934	-0.272217	0.506348	-0.185694	-0.716673	0.178476	-0.648108
23356		9.728349	0.301332	-0.873821	-0.004460	-0.000549	-0.010045	-0.735107	-0.265625	0.509277	-0.185830	-0.716712	0.178450	-0.648033
23357		9.762491	0.272155	-0.911043	-0.001102	0.001485	-0.004877	-0.742676	-0.269043	0.503174	-0.185780	-0.716735	0.178443	-0.648023
23358		9.742219	0.227743	-0.939989	0.004892	0.000611	-0.004844	-0.739014	-0.263916	0.511230	-0.185768	-0.716683	0.178439	-0.648086
23359		9.746413	0.296690	-0.907824	0.003155	0.003807	-0.004706	-0.737793	-0.272705	0.508789	-0.185641	-0.716693	0.178392	-0.648124
23360		9.759797	0.288824	-0.892665	-0.004161	0.000063	-0.005095	-0.735840	-0.272705	0.496094	-0.185708	-0.716707	0.178399	-0.648088
23361		9.738849	0.271654	-0.936811	0.001612	0.002431	-0.007480	-0.735107	-0.268066	0.513428	-0.185874	-0.716615	0.178421	-0.648136
23362		9.739166	0.256748	-0.940101	-0.001632	0.002862	-0.005183	-0.742188	-0.274414	0.509033	-0.185826	-0.716666	0.178380	-0.648105
23363		9.731498	0.258887	-0.919439	0.002921	-0.000974	-0.006182	-0.736572	-0.272949	0.506592	-0.185843	-0.716687	0.178326	-0.648091
23364		9.761756	0.308492	-0.923787	0.004810	0.002136	-0.007648	-0.739746	-0.266113	0.513184	-0.185876	-0.716697	0.178250	-0.648092
23365		9.751457	0.295943	-0.936187	0.004587	0.000007	-0.009793	-0.731689	-0.264404	0.507324	-0.185779	-0.716765	0.178143	-0.648073
23366		9.756732	0.300536	-0.920014	-0.004455	0.002106	-0.010713	-0.725830	-0.268066	0.506348	-0.185823	-0.716785	0.178127	-0.648043
23367		9.742249	0.249617	-0.913456	-0.002151	0.002777	-0.012945	-0.741455	-0.270996	0.500488	-0.185924	-0.716834	0.178058	-0.647979
23368		9.746512	0.298131	-0.908122	0.009844	0.003697	-0.013545	-0.737549	-0.270508	0.500488	-0.185985	-0.716774	0.177940	-0.648060
23369		9.731332	0.273586	-0.916928	0.002154	0.000997	-0.008236	-0.736328	-0.267578	0.507568	-0.186064	-0.716728	0.177933	-0.648090
23370		9.750231	0.245714	-0.913599	0.000501	-0.002703	-0.005021	-0.738281	-0.273438	0.509033	-0.186027	-0.716767	0.177935	-0.648057
23371		9.757274	0.285238	-0.903017	0.003440	0.003030	-0.006148	-0.731934	-0.259766	0.506348	-0.186038	-0.716773	0.177874	-0.648064
23372		9.776985	0.342872	-0.892545	0.005077	0.001427	-0.008025	-0.744385	-0.262939	0.506348	-0.185921	-0.716803	0.177821	-0.648079
23373		9.748060	0.343498	-0.912434	-0.000733	0.000440	-0.010575	-0.731689	-0.270020	0.499023	-0.185895	-0.716772	0.177806	-0.648125
23374		9.731226	0.288794	-0.892898	-0.005571	0.002337	-0.008529	-0.740967	-0.269775	0.510254	-0.186065	-0.716715	0.177859	-0.648125
23375		9.729129	0.271604	-0.883123	-0.006730	0.001307	-0.010609	-0.734131	-0.268799	0.504150	-0.186141	-0.716717	0.177845	-0.648104
23376		9.735979	0.300467	-0.918469	-0.001653	0.001477	-0.011573	-0.734375	-0.271484	0.503906	-0.186230	-0.716715	0.177813	-0.648090
23377		9.760168	0.269843	-0.922003	0.000605	-0.000370	-0.011008	-0.737549	-0.269043	0.503662	-0.186319	-0.716729	0.177769	-0.648060
23378		9.759754	0.288332	-0.918037	0.005307	0.000846	-0.006275	-0.739990	-0.266113	0.500000	-0.186298	-0.716716	0.177737	-0.648090
23379		9.756646	0.318962	-0.896326	0.002822	0.004674	-0.002198	-0.735840	-0.263672	0.508545	-0.186267	-0.716615	0.177779	-0.648199
23380		9.735572	0.323575	-0.912782	-0.001240	0.003147	-0.005553	-0.731201	-0.267578	0.504150	-0.186203	-0.716615	0.177771	-0.648220
23381		9.717688	0.311718	-0.904444	0.004062	0.001342	-0.011159	-0.735352	-0.271484	0.502686	-0.186223	-0.716642	0.177692	-0.648206
23382		9.738657	0.298509	-0.933015	0.004061	0.001344	-0.011159	-0.739746	-0.268066	0.508545	-0.186295	-0.716638	0.177625	-0.648208
23383		9.777633	0.317158	-0.900209	0.003761	-0.000525	-0.009047	-0.740479	-0.267578	0.500000	-0.186251	-0.716669	0.177555	-0.648206
23384		9.748768	0.323222	-0.897262	0.003021	0.000110	-0.005107	-0.738281	-0.262451	0.505859	-0.186247	-0.716613	0.177578	-0.648262
23385		9.736526	0.290486	-0.900339	-0.001334	0.002020	-0.007689	-0.737061	-0.267822	0.506592	-0.186202	-0.716594	0.177569	-0.648298
23386		9.735729	0.319437	-0.914709	0.002420	0.005603	-0.009950	-0.738037	-0.263428	0.501465	-0.186209	-0.716572	0.177495	-0.648341
23387		9.746273	0.319774	-0.905475	0.002949	-0.001080	-0.008306	-0.737061	-0.266602	0.498779	-0.186172	-0.716558	0.177479	-0.648371
23388		9.749795	0.281788	-0.907819	-0.001961	-0.003040	-0.008792	-0.742188	-0.273682	0.505127	-0.186240	-0.716534	0.177520	-0.648368
23389		9.747704	0.263876	-0.898790	-0.000843	0.000775	-0.005254	-0.747803	-0.271240	0.500244	-0.186301	-0.716499	0.177541	-0.648382
23390		9.764786	0.312155	-0.897911	0.001695	0.006175	-0.007074	-0.740234	-0.264893	0.505127	-0.186366	-0.716370	0.177548	-0.648505
23391		9.725852	0.303453	-0.906537	0.003294	0.002050	-0.006154	-0.735107	-0.268066	0.504395	-0.186293	-0.716349	0.177515	-0.648557
23392		9.731467	0.284457	-0.917801	0.000114	-0.003038	-0.005712	-0.737061	-0.270752	0.503174	-0.186287	-0.716380	0.177525	-0.648523
23393		9.754943	0.285572	-0.913879	0.004250	0.000893	-0.007281	-0.738770	-0.271484	0.506348	-0.186305	-0.716372	0.177492	-0.648535
23394		9.771980	0.339990	-0.890334	0.007686	0.002673	-0.006368	-0.736572	-0.279541	0.503906	-0.186270	-0.716373	0.177418	-0.648565
23395		9.751299	0.334285	-0.888033	-0.001158	0.001623	-0.002749	-0.734375	-0.266113	0.503906	-0.186401	-0.716344	0.177471	-0.648544
23396		9.728527	0.296956	-0.923028	-0.000935	-0.000351	-0.007389	-0.740723	-0.274170	0.511230	-0.186404	-0.716354	0.177469	-0.648534
23397		9.747195	0.286004	-0.915174	0.005331	0.003394	-0.009069	-0.730957	-0.267578	0.504639	-0.186404	-0.716376	0.177365	-0.648537
23398		9.733371	0.313391	-0.925103	-0.000021	0.003931	-0.007728	-0.738770	-0.276123	0.507324	-0.186428	-0.716373	0.177338	-0.648541
23399		9.756857	0.308591	-0.943858	-0.001615	-0.002567	-0.005971	-0.732422	-0.271484	0.500732	-0.186506	-0.716401	0.177356	-0.648483
23400		9.734975	0.257002	-0.917852	0.003328	-0.000725	-0.007610	-0.745850	-0.271484	0.511230	-0.186559	-0.716408	0.177341	-0.648464
23401		9.741409	0.319175	-0.879887	0.006043	0.004277	-0.004492	-0.737061	-0.262451	0.503174	-0.186477	-0.716392	0.177276	-0.648523
23402		9.769399	0.336338	-0.920288	-0.002248	0.004437	-0.002300	-0.740967	-0.270508	0.506592	-0.186419	-0.716332	0.177323	-0.648594
23403		9.757295	0.302992	-0.923180	-0.002168	-0.001128	-0.005214	-0.736328	-0.272705	0.510742	-0.186435	-0.716331	0.177349	-0.648582
23404		9.724463	0.269838	-0.901599	-0.002907	0.000715	-0.009397	-0.741699	-0.267578	0.515625	-0.186499	-0.716372	0.177316	-0.648528
23405		9.737428	0.273564	-0.905563	-0.003997	0.003529	-0.008948	-0.739746	-0.271240	0.510742	-0.186474	-0.716397	0.177265	-0.648521
23406		9.737423	0.269463	-0.928046	0.007973	0.001906	-0.007807	-0.734863	-0.270020	0.510254	-0.186406	-0.716435	0.177157	-0.648529
23407		9.755222	0.290828	-0.912528	0.007664	0.000095	-0.004632	-0.739258	-0.272705	0.498291	-0.186309	-0.716495	0.177083	-0.648510
23408		9.764421	0.339260	-0.892031	0.001247	0.000718	-0.003237	-0.737793	-0.268799	0.504639	-0.186368	-0.716431	0.177144	-0.648547
23409		9.742239	0.291379	-0.907440	-0.001921	0.003530	-0.005868	-0.740967	-0.260986	0.511230	-0.186398	-0.716393	0.177162	-0.648575
23410		9.728381	0.324511	-0.894273	0.004235	0.003565	-0.007948	-0.738037	-0.280029	0.512207	-0.186257	-0.716407	0.177073	-0.648626
23411		9.734580	0.289242	-0.908711	0.006078	0.001504	-0.005947	-0.739258	-0.271240	0.508545	-0.186277	-0.716456	0.176994	-0.648587
23412		9.746618	0.324672	-0.905282	0.006192	-0.000089	-0.004206	-0.737061	-0.269287	0.510986	-0.186211	-0.716483	0.176953	-0.648587
23413		9.769217	0.351938	-0.916379	0.003379	0.000534	-0.003347	-0.732666	-0.269775	0.502686	-0.186133	-0.716521	0.176925	-0.648575
23414		9.746586	0.326476	-0.904981	-0.004326	0.001777	-0.004711	-0.729248	-0.266846	0.508301	-0.186206	-0.716496	0.176985	-0.648566
23415		9.744641	0.308074	-0.895182	-0.005393	0.001870	-0.004656	-0.743896	-0.267822	0.511475	-0.186224	-0.716518	0.177020	-0.648527
23416		9.713888	0.281682	-0.928642	0.003263	0.002130	-0.005088	-0.741455	-0.274902	0.504883	-0.186138	-0.716522	0.176978	-0.648559
23417		9.717269	0.258715	-0.925929	0.006516	0.003102	-0.000992	-0.739990	-0.270508	0.501709	-0.186110	-0.716483	0.176978	-0.648609
23418		9.761051	0.281600	-0.919218	0.001452	0.000252	0.000638	-0.744629	-0.275146	0.507324	-0.186088	-0.716438	0.177056	-0.648644
23419		9.755753	0.285706	-0.912077	0.007901	-0.000490	-0.002881	-0.743164	-0.274414	0.516357	-0.186039	-0.716441	0.177028	-0.648662
23420		9.726436	0.307318	-0.905070	0.010464	0.002140	-0.006158	-0.739746	-0.275146	0.504395	-0.185938	-0.716500	0.176899	-0.648662
23421		9.744254	0.322575	-0.912179	0.000995	0.003972	-0.005657	-0.741211	-0.261963	0.503174	-0.186009	-0.716456	0.176903	-0.648688
23422		9.731317	0.322095	-0.906899	-0.005043	0.002337	-0.001838	-0.740234	-0.275879	0.508789	-0.185979	-0.716389	0.176997	-0.648746
23423		9.745740	0.274582	-0.922771	0.000018	-0.000062	-0.001063	-0.741211	-0.270264	0.504639	-0.185991	-0.716393	0.177039	-0.648726
23424		9.766407	0.281395	-0.924575	0.001048	-0.000030	0.001008	-0.738770	-0.261963	0.509277	-0.185948	-0.716365	0.177110	-0.648750
23425		9.737543	0.298025	-0.875239	-0.000905	0.000968	-0.002064	-0.734375	-0.272949	0.508057	-0.185849	-0.716368	0.177141	-0.648767
23426		9.738078	0.275773	-0.901733	0.003315	0.003382	-0.000827	-0.744385	-0.276367	0.505859	-0.185825	-0.716368	0.177150	-0.648771
23427		9.740539	0.285278	-0.891069	0.000395	0.002940	-0.001041	-0.734863	-0.271729	0.507324	-0.185858	-0.716316	0.177200	-0.648805
23428		9.732945	0.268070	-0.939391	-0.000376	0.002251	-0.002427	-0.735352	-0.269043	0.504395	-0.185871	-0.716315	0.177232	-0.648794
23429		9.749759	0.321460	-0.916100	0.005347	-0.000522	-0.001336	-0.729004	-0.273926	0.504395	-0.185809	-0.716327	0.177247	-0.648794
23430		9.735269	0.290369	-0.883249	0.007496	-0.000768	-0.002508	-0.740723	-0.258545	0.509766	-0.185792	-0.716372	0.177234	-0.648753
23431		9.755983	0.291040	-0.907911	0.003941	0.003135	0.001614	-0.739990	-0.273193	0.507812	-0.185596	-0.716355	0.177255	-0.648823
23432		9.778700	0.317256	-0.917917	-0.000313	0.006097	0.000098	-0.739014	-0.269531	0.515381	-0.185604	-0.716300	0.177304	-0.648867
23433		9.723973	0.319454	-0.904941	-0.003502	0.002276	-0.006517	-0.734375	-0.272949	0.508789	-0.185613	-0.716333	0.177294	-0.648831
23434		9.699880	0.252896	-0.911591	-0.004461	-0.003260	-0.010436	-0.734863	-0.266357	0.506592	-0.185722	-0.716395	0.177295	-0.648731
23435		9.737337	0.217183	-0.942949	-0.001095	0.001376	-0.007003	-0.738770	-0.268555	0.506104	-0.185736	-0.716402	0.177299	-0.648718
23436		9.763284	0.227337	-0.928323	0.006143	0.002704	-0.002747	-0.741699	-0.266357	0.508545	-0.185670	-0.716389	0.177285	-0.648755
23437		9.785848	0.266440	-0.892612	0.006787	0.002393	-0.001368	-0.739746	-0.267334	0.509033	-0.185551	-0.716381	0.177271	-0.648802
23438		9.753641	0.294712	-0.891626	0.005381	-0.000643	-0.003461	-0.737061	-0.269531	0.504639	-0.185466	-0.716409	0.177254	-0.648800
23439		9.737771	0.301668	-0.892853	0.005288	0.003486	-0.008001	-0.737061	-0.267578	0.503174	-0.185475	-0.716397	0.177205	-0.648824
23440		9.745965	0.292351	-0.893280	0.004482	0.002922	-0.007260	-0.740967	-0.263184	0.508789	-0.185476	-0.716377	0.177176	-0.648854
23441		9.730619	0.283164	-0.898049	0.001545	0.002540	-0.006412	-0.734375	-0.258301	0.502441	-0.185421	-0.716370	0.177157	-0.648882
23442		9.759980	0.263581	-0.904371	0.011081	0.001910	-0.003710	-0.737549	-0.263672	0.506836	-0.185260	-0.716370	0.177106	-0.648942
23443		9.773805	0.324326	-0.887275	0.010026	-0.000656	-0.002983	-0.742188	-0.277588	0.510742	-0.185117	-0.716402	0.177061	-0.648960
23444		9.747832	0.321869	-0.878274	0.003077	0.001324	-0.001905	-0.733398	-0.260742	0.505859	-0.185125	-0.716408	0.177071	-0.648949
23445		9.730629	0.286034	-0.897031	-0.000344	0.002126	-0.004555	-0.737061	-0.270264	0.505859	-0.185082	-0.716404	0.177090	-0.648960
23446		9.730670	0.287076	-0.896254	0.004952	0.004397	-0.004435	-0.740234	-0.272461	0.503418	-0.185072	-0.716384	0.177070	-0.648991
23447		9.763863	0.306511	-0.921323	0.000715	-0.000560	-0.002873	-0.736328	-0.272949	0.504883	-0.185105	-0.716366	0.177124	-0.648986
23448		9.755189	0.255450	-0.899754	0.000745	-0.003281	-0.003263	-0.739746	-0.265869	0.520264	-0.185136	-0.716392	0.177173	-0.648935
23449		9.758565	0.232708	-0.897621	0.004424	0.003113	-0.004071	-0.733887	-0.272949	0.503174	-0.185011	-0.716450	0.177105	-0.648925
23450		9.733652	0.271104	-0.935499	0.006558	0.005531	-0.005915	-0.738770	-0.268066	0.504150	-0.185043	-0.716422	0.177069	-0.648957
23451		9.734583	0.251942	-0.896507	-0.000020	-0.001375	-0.006384	-0.729980	-0.269287	0.510742	-0.185071	-0.716425	0.177094	-0.648939
23452		9.747484	0.254858	-0.901449	0.003436	-0.002300	-0.005860	-0.736816	-0.275635	0.506104	-0.185049	-0.716508	0.177069	-0.648861
23453		9.751702	0.285057	-0.900999	0.002848	0.001859	-0.004717	-0.738770	-0.273438	0.503418	-0.185100	-0.716504	0.177076	-0.648848
23454		9.752216	0.269626	-0.904672	-0.002464	-0.000353	-0.003774	-0.739746	-0.271729	0.509766	-0.185177	-0.716483	0.177150	-0.648829
23455		9.747390	0.258229	-0.901497	-0.005766	-0.001147	-0.004682	-0.739746	-0.261963	0.506348	-0.185244	-0.716494	0.177221	-0.648779
23456		9.765601	0.263375	-0.889825	0.000874	0.002917	-0.006728	-0.738281	-0.274414	0.504395	-0.185212	-0.716471	0.177216	-0.648815
23457		9.757533	0.263842	-0.934318	0.000767	0.001854	-0.007797	-0.734375	-0.271484	0.508057	-0.185300	-0.716456	0.177221	-0.648805
23458		9.743893	0.286885	-0.902920	0.001338	-0.002241	-0.007877	-0.732666	-0.254883	0.505859	-0.185339	-0.716507	0.177214	-0.648739
23459		9.738512	0.292478	-0.895942	-0.004840	0.000421	-0.005415	-0.740479	-0.263672	0.504639	-0.185296	-0.716507	0.177267	-0.648737
23460		9.744332	0.273630	-0.906888	-0.002694	0.000182	-0.006586	-0.736572	-0.269775	0.506836	-0.185309	-0.716487	0.177306	-0.648745
23461		9.739069	0.272457	-0.922679	-0.002376	0.000773	-0.001641	-0.736816	-0.269043	0.494873	-0.185325	-0.716477	0.177382	-0.648731
23462		9.770292	0.278000	-0.915395	0.001328	0.001853	-0.001103	-0.736084	-0.269531	0.508057	-0.185356	-0.716402	0.177474	-0.648779
23463		9.756802	0.293678	-0.906460	0.003370	0.003149	-0.005079	-0.734863	-0.270020	0.499512	-0.185347	-0.716402	0.177464	-0.648785
23464		9.749152	0.290077	-0.908445	0.002387	0.002932	-0.010340	-0.737793	-0.262451	0.506836	-0.185435	-0.716373	0.177446	-0.648797
23465		9.700333	0.261272	-0.953299	-0.004219	0.001341	-0.012156	-0.728760	-0.267090	0.503174	-0.185490	-0.716374	0.177432	-0.648783
23466		9.740834	0.225109	-0.954853	0.003974	0.001534	-0.009021	-0.736328	-0.269043	0.510498	-0.185515	-0.716395	0.177397	-0.648762
23467		9.736635	0.197820	-0.955034	0.006054	0.001541	-0.005939	-0.737061	-0.258057	0.503662	-0.185468	-0.716428	0.177353	-0.648751
23468		9.789099	0.269891	-0.928196	0.011641	0.000444	-0.005521	-0.737549	-0.261475	0.508789	-0.185304	-0.716444	0.177278	-0.648801
23469		9.748438	0.315863	-0.903126	0.004848	0.000690	-0.004829	-0.744629	-0.273193	0.504639	-0.185203	-0.716465	0.177250	-0.648814
23470		9.731819	0.270430	-0.902809	0.001038	0.001144	-0.008173	-0.740234	-0.266113	0.498779	-0.185273	-0.716438	0.177260	-0.648821
23471		9.734735	0.265377	-0.896039	0.000076	0.004895	-0.008787	-0.746582	-0.260498	0.505615	-0.185337	-0.716364	0.177272	-0.648882
23472		9.750726	0.255726	-0.916787	0.001838	0.001715	-0.008913	-0.738037	-0.270996	0.504395	-0.185292	-0.716337	0.177240	-0.648933
23473		9.738957	0.292342	-0.917761	0.014093	-0.000621	-0.009191	-0.740723	-0.270508	0.506592	-0.185240	-0.716377	0.177136	-0.648933
23474		9.769930	0.305987	-0.888268	0.006967	-0.003507	-0.010644	-0.731934	-0.256104	0.509521	-0.185240	-0.716429	0.177075	-0.648891
23475		9.749787	0.285196	-0.890612	-0.003179	0.001313	-0.011147	-0.733398	-0.273682	0.510010	-0.185222	-0.716462	0.177036	-0.648870
23476		9.738631	0.305605	-0.894789	0.000717	0.004587	-0.007408	-0.737061	-0.267822	0.508057	-0.185289	-0.716466	0.177027	-0.648850
23477		9.727078	0.260212	-0.943426	0.002835	0.001874	-0.004715	-0.734375	-0.269043	0.505127	-0.185264	-0.716470	0.177028	-0.648853
23478		9.747588	0.274485	-0.921883	0.004057	0.000068	-0.005151	-0.734619	-0.263184	0.509521	-0.185255	-0.716485	0.177033	-0.648837
23479		9.771601	0.334531	-0.896115	0.003144	0.001037	-0.007216	-0.735352	-0.267334	0.509033	-0.185205	-0.716516	0.176996	-0.648826
23480		9.744599	0.284604	-0.927790	0.003286	-0.000621	-0.006536	-0.739502	-0.272217	0.507568	-0.185181	-0.716555	0.176978	-0.648796
23481		9.721547	0.276081	-0.912477	0.000191	0.003302	-0.007044	-0.731445	-0.271484	0.502197	-0.185238	-0.716535	0.176990	-0.648798
23482		9.734554	0.279120	-0.916168	-0.003819	0.003051	-0.005082	-0.725586	-0.264648	0.500000	-0.185342	-0.716501	0.177069	-0.648784
23483		9.750594	0.268793	-0.936910	0.006298	0.003504	-0.006988	-0.729736	-0.268799	0.510986	-0.185332	-0.716499	0.177040	-0.648797
23484		9.734056	0.292408	-0.934458	0.009287	-0.001480	-0.007547	-0.734619	-0.268066	0.508057	-0.185270	-0.716586	0.176963	-0.648740
23485		9.753324	0.270786	-0.907720	-0.000219	0.000476	-0.003874	-0.734619	-0.264160	0.504150	-0.185270	-0.716598	0.177003	-0.648716
23486		9.737289	0.283838	-0.886038	0.001676	0.000842	-0.006792	-0.738525	-0.269531	0.510742	-0.185262	-0.716598	0.177006	-0.648717
23487		9.741617	0.301988	-0.931248	0.002701	0.003479	-0.006458	-0.741211	-0.267822	0.510254	-0.185258	-0.716599	0.176987	-0.648723
23488		9.740340	0.273760	-0.901973	0.000346	0.001586	-0.007426	-0.739258	-0.270508	0.503662	-0.185265	-0.716602	0.176982	-0.648719
23489		9.755075	0.296724	-0.915594	0.001289	0.000498	-0.007485	-0.734619	-0.271729	0.505859	-0.185313	-0.716589	0.177001	-0.648714
23490		9.736725	0.300869	-0.903719	-0.001120	0.001386	-0.007003	-0.743408	-0.265869	0.501709	-0.185386	-0.716587	0.177035	-0.648686
23491		9.743188	0.272152	-0.895097	0.003951	0.001558	-0.009017	-0.739258	-0.274902	0.507324	-0.185388	-0.716556	0.177012	-0.648726
23492		9.745454	0.283487	-0.884853	0.000343	0.001588	-0.007426	-0.738770	-0.263916	0.504883	-0.185465	-0.716550	0.177035	-0.648705
23493		9.747873	0.287978	-0.897630	0.000683	0.002113	-0.003546	-0.734375	-0.265869	0.505127	-0.185430	-0.716523	0.177068	-0.648735
23494		9.768629	0.289822	-0.921955	0.003625	0.002456	-0.005454	-0.736328	-0.279053	0.505127	-0.185405	-0.716518	0.177064	-0.648749
23495		9.767370	0.323879	-0.913578	0.001601	0.003688	-0.004280	-0.737549	-0.271484	0.508789	-0.185495	-0.716489	0.177119	-0.648740
23496		9.722118	0.281825	-0.910124	-0.001405	-0.000439	-0.003827	-0.736328	-0.263428	0.509521	-0.185522	-0.716500	0.177180	-0.648704
23497		9.692214	0.244873	-0.924811	-0.006684	-0.000193	-0.006749	-0.739990	-0.269775	0.504150	-0.185556	-0.716511	0.177234	-0.648668
23498		9.735347	0.273881	-0.960155	0.004381	0.005754	-0.005806	-0.739502	-0.270264	0.501953	-0.185561	-0.716461	0.177227	-0.648723
23499		9.771088	0.299318	-0.932725	0.006578	0.000200	-0.005623	-0.738525	-0.276855	0.511230	-0.185546	-0.716453	0.177226	-0.648736
23500		9.776737	0.292711	-0.897885	0.002642	-0.002900	-0.006174	-0.738281	-0.274658	0.505371	-0.185582	-0.716506	0.177248	-0.648661
23501		9.745671	0.282367	-0.928112	0.005351	0.002006	-0.005189	-0.735596	-0.268799	0.500977	-0.185602	-0.716498	0.177258	-0.648662
23502		9.738566	0.330333	-0.931364	0.003907	0.008310	-0.002925	-0.737793	-0.276123	0.502686	-0.185603	-0.716418	0.177283	-0.648743
23503		9.728487	0.328502	-0.896357	-0.002807	0.003143	-0.001950	-0.741455	-0.266602	0.505127	-0.185694	-0.716365	0.177398	-0.648744
23504		9.761117	0.295485	-0.919913	-0.000859	-0.001813	-0.003515	-0.734863	-0.269775	0.505615	-0.185679	-0.716362	0.177459	-0.648735
23505		9.758516	0.299526	-0.883591	0.002823	0.001889	-0.004713	-0.741699	-0.266846	0.506836	-0.185682	-0.716360	0.177481	-0.648730
23506		9.763882	0.296657	-0.890287	-0.005426	0.001903	-0.003605	-0.734131	-0.272705	0.507080	-0.185714	-0.716324	0.177565	-0.648738
23507		9.728025	0.279836	-0.893788	-0.004304	-0.000962	-0.005107	-0.736572	-0.269775	0.505127	-0.185797	-0.716337	0.177654	-0.648675
23508		9.736997	0.253328	-0.898360	0.004095	0.003930	-0.002630	-0.732178	-0.266602	0.505859	-0.185774	-0.716311	0.177680	-0.648704
23509		9.748975	0.219033	-0.896363	0.006859	0.003510	-0.000293	-0.733154	-0.266113	0.501709	-0.185687	-0.716304	0.177696	-0.648732
23510		9.764836	0.276210	-0.915138	0.004213	0.002388	0.000176	-0.738770	-0.270264	0.509766	-0.185626	-0.716279	0.177749	-0.648762
23511		9.748629	0.294412	-0.870177	0.007330	0.000958	-0.003174	-0.736816	-0.272949	0.501465	-0.185562	-0.716299	0.177743	-0.648760
23512		9.740647	0.293804	-0.915094	0.007358	0.000840	-0.005298	-0.726074	-0.272705	0.500732	-0.185566	-0.716294	0.177748	-0.648763
23513		9.723682	0.263804	-0.910760	0.002763	0.002127	-0.000464	-0.740479	-0.254883	0.508301	-0.185591	-0.716282	0.177838	-0.648745
23514		9.761335	0.301088	-0.915777	0.004020	0.004228	0.002681	-0.738037	-0.269531	0.509521	-0.185397	-0.716248	0.177854	-0.648834
23515		9.769033	0.306003	-0.912397	0.003015	0.001529	0.001286	-0.736572	-0.266602	0.499268	-0.185337	-0.716244	0.177922	-0.648836
23516		9.737938	0.300482	-0.918876	0.000369	0.002951	-0.001046	-0.742188	-0.266357	0.500244	-0.185335	-0.716190	0.178004	-0.648874
23517		9.736053	0.287446	-0.885917	-0.001316	0.000681	-0.001697	-0.727539	-0.272461	0.501709	-0.185336	-0.716142	0.178094	-0.648902
23518		9.739838	0.258063	-0.906623	-0.000651	0.000311	-0.001380	-0.733154	-0.266602	0.502197	-0.185393	-0.716140	0.178206	-0.648857
23519		9.750745	0.244274	-0.943803	0.003442	0.001698	-0.001208	-0.739990	-0.268311	0.503662	-0.185358	-0.716125	0.178259	-0.648870
23520		9.772390	0.231116	-0.906577	0.005969	0.001819	-0.001683	-0.731445	-0.266846	0.503662	-0.185304	-0.716104	0.178287	-0.648900
23521		9.740598	0.242684	-0.909270	0.008641	0.002826	-0.004276	-0.730957	-0.265625	0.515869	-0.185252	-0.716109	0.178267	-0.648914
23522		9.736982	0.266889	-0.911325	0.010001	-0.000577	-0.002963	-0.730957	-0.276367	0.504639	-0.185124	-0.716194	0.178223	-0.648870
23523		9.738719	0.286598	-0.920789	0.004358	0.000732	0.000859	-0.739502	-0.269043	0.508545	-0.185140	-0.716195	0.178325	-0.648835
23524		9.767992	0.278265	-0.880866	0.005642	0.002716	0.001879	-0.738770	-0.262939	0.506836	-0.185059	-0.716179	0.178380	-0.648862
23525		9.785907	0.285957	-0.910954	-0.001641	0.004120	-0.000939	-0.739502	-0.261230	0.504150	-0.185028	-0.716137	0.178448	-0.648898
23526		9.761572	0.309496	-0.887515	-0.002765	0.002962	-0.005140	-0.737549	-0.274902	0.502441	-0.185033	-0.716100	0.178489	-0.648927
23527		9.713088	0.222369	-0.888251	-0.002705	0.000179	-0.006587	-0.735840	-0.267090	0.503662	-0.185158	-0.716082	0.178580	-0.648885
23528		9.714656	0.184832	-0.918486	-0.003416	0.003273	-0.006520	-0.738037	-0.275879	0.505615	-0.185232	-0.716050	0.178637	-0.648884
23529		9.763319	0.211935	-0.895308	0.003039	0.003960	-0.003640	-0.742432	-0.269043	0.510986	-0.185287	-0.716020	0.178697	-0.648885
23530		9.782064	0.262694	-0.908087	0.005966	0.001824	-0.001681	-0.739746	-0.273682	0.513672	-0.185219	-0.716023	0.178715	-0.648896
23531		9.779595	0.259837	-0.895188	0.005261	-0.004199	-0.001711	-0.729004	-0.262207	0.503174	-0.185179	-0.716088	0.178768	-0.648821
23532		9.746005	0.251331	-0.889192	0.003542	0.002765	-0.000141	-0.737061	-0.269775	0.504639	-0.185112	-0.716077	0.178816	-0.648839
23533		9.714983	0.245892	-0.894962	0.000555	0.007684	-0.000654	-0.732910	-0.263672	0.500000	-0.185131	-0.716005	0.178894	-0.648892
23534		9.718550	0.285666	-0.912661	0.006790	0.002282	-0.004544	-0.739746	-0.269043	0.511475	-0.185083	-0.715995	0.178886	-0.648919
23535		9.763831	0.267271	-0.894577	0.008476	-0.002016	-0.006791	-0.732422	-0.268555	0.505859	-0.185034	-0.716054	0.178851	-0.648878
23536		9.758574	0.266339	-0.910968	0.008194	-0.001298	-0.006416	-0.735107	-0.270020	0.503662	-0.185007	-0.716101	0.178833	-0.648838
23537		9.757318	0.238241	-0.882126	0.003654	0.002292	-0.008638	-0.736084	-0.273438	0.509766	-0.185059	-0.716097	0.178832	-0.648827
23538		9.738444	0.252561	-0.889485	0.000202	0.000648	-0.006368	-0.737305	-0.272705	0.501953	-0.185131	-0.716114	0.178887	-0.648773
23539		9.744745	0.227598	-0.922862	0.007857	0.004693	-0.008461	-0.731689	-0.267334	0.516846	-0.185170	-0.716088	0.178858	-0.648799
23540		9.745758	0.265356	-0.928003	0.006579	0.000162	-0.006677	-0.733643	-0.263916	0.502197	-0.185130	-0.716162	0.178831	-0.648736
23541		9.769543	0.262941	-0.881369	-0.002837	-0.000769	-0.005530	-0.734863	-0.268799	0.505615	-0.185165	-0.716161	0.178896	-0.648709
23542		9.743749	0.254823	-0.895639	-0.005643	-0.000178	-0.004683	-0.740723	-0.263184	0.500000	-0.185248	-0.716155	0.179004	-0.648662
23543		9.739271	0.237387	-0.915265	0.000200	0.000651	-0.006368	-0.740723	-0.264648	0.506104	-0.185253	-0.716128	0.179027	-0.648685
23544		9.727995	0.257258	-0.919828	-0.001269	0.002992	-0.008750	-0.736816	-0.268066	0.498047	-0.185294	-0.716105	0.179033	-0.648696
23545		9.749997	0.292141	-0.908107	0.002142	-0.004242	-0.006863	-0.735596	-0.261230	0.500000	-0.185323	-0.716124	0.179074	-0.648656
23546		9.740051	0.278743	-0.921544	0.002641	-0.002891	-0.006166	-0.737305	-0.274902	0.500732	-0.185288	-0.716143	0.179083	-0.648642
23547		9.766273	0.279047	-0.888228	-0.006235	0.001371	-0.001810	-0.736572	-0.272217	0.504883	-0.185410	-0.716091	0.179250	-0.648619
23548		9.736700	0.241026	-0.901766	-0.006335	0.006820	-0.001044	-0.743652	-0.263428	0.507568	-0.185509	-0.716011	0.179395	-0.648639
23549		9.723818	0.240242	-0.896072	0.004785	0.003402	-0.005498	-0.740723	-0.274414	0.507812	-0.185451	-0.715992	0.179368	-0.648684
23550		9.744105	0.252442	-0.939693	0.005218	0.001025	-0.005189	-0.733398	-0.266357	0.509766	-0.185472	-0.715996	0.179398	-0.648665
23551		9.759266	0.264482	-0.934308	0.004972	-0.000924	-0.004135	-0.737305	-0.265137	0.500000	-0.185426	-0.716039	0.179413	-0.648626
23552		9.729375	0.233074	-0.925970	0.001104	-0.000256	-0.003237	-0.733887	-0.267822	0.503906	-0.185415	-0.716023	0.179469	-0.648632
23553		9.750522	0.230745	-0.907644	0.004039	0.006615	-0.003310	-0.739746	-0.268311	0.506836	-0.185411	-0.715978	0.179496	-0.648675
23554		9.746142	0.271318	-0.905372	0.006520	0.000407	-0.002428	-0.734619	-0.270752	0.507080	-0.185354	-0.715985	0.179518	-0.648677
23555		9.753432	0.280903	-0.945052	-0.001460	-0.000209	0.000421	-0.739014	-0.265869	0.505615	-0.185371	-0.715983	0.179648	-0.648639
23556		9.758185	0.237114	-0.903970	-0.006646	0.001138	-0.000380	-0.736572	-0.264404	0.501953	-0.185402	-0.715947	0.179786	-0.648631
23557		9.762448	0.203991	-0.881731	-0.005594	0.003608	-0.003234	-0.741455	-0.268066	0.510010	-0.185453	-0.715894	0.179884	-0.648649
23558		9.725983	0.203900	-0.880873	-0.003119	0.002441	-0.009021	-0.737793	-0.265381	0.503662	-0.185530	-0.715884	0.179915	-0.648628
23559		9.738692	0.211621	-0.926948	0.005616	0.003811	-0.009422	-0.727539	-0.262451	0.501465	-0.185532	-0.715872	0.179868	-0.648654
23560		9.757591	0.201048	-0.918688	0.006305	0.000835	-0.007362	-0.736816	-0.267334	0.514648	-0.185501	-0.715898	0.179838	-0.648643
23561		9.759927	0.264132	-0.910719	0.004676	-0.000146	-0.002698	-0.732422	-0.257080	0.509521	-0.185442	-0.715940	0.179864	-0.648606
23562		9.762611	0.264029	-0.881788	0.004177	-0.001497	-0.003395	-0.742432	-0.264160	0.503906	-0.185330	-0.715989	0.179855	-0.648587
23563		9.733715	0.268720	-0.878543	0.008579	0.005528	-0.004950	-0.742676	-0.269043	0.507324	-0.185259	-0.715950	0.179812	-0.648662
23564		9.719772	0.288555	-0.911478	0.007132	0.005262	-0.005591	-0.735596	-0.272705	0.511230	-0.185236	-0.715921	0.179793	-0.648706
23565		9.743590	0.283650	-0.929227	0.004392	0.003065	-0.006189	-0.736572	-0.263184	0.511230	-0.185267	-0.715932	0.179811	-0.648680
23566		9.753179	0.247605	-0.914869	0.004665	-0.004105	-0.007330	-0.738281	-0.271484	0.506592	-0.185216	-0.716006	0.179791	-0.648618
23567		9.759896	0.271318	-0.908938	0.006582	0.000125	-0.007735	-0.738281	-0.270508	0.503174	-0.185230	-0.716028	0.179783	-0.648592
23568		9.744999	0.258262	-0.871569	0.001228	0.003187	-0.008160	-0.744141	-0.266602	0.502197	-0.185301	-0.716002	0.179809	-0.648593
23569		9.737689	0.248239	-0.896578	0.002276	0.003167	-0.007149	-0.741211	-0.270264	0.497803	-0.185319	-0.715963	0.179813	-0.648630
23570		9.731982	0.204634	-0.928925	0.004859	0.004537	-0.003369	-0.741943	-0.262451	0.505127	-0.185325	-0.715900	0.179852	-0.648687
23571		9.760676	0.207868	-0.908163	0.000705	-0.000542	-0.002867	-0.739258	-0.272949	0.505371	-0.185281	-0.715894	0.179897	-0.648694
23572		9.757194	0.228393	-0.867983	0.001342	0.001700	-0.004290	-0.736328	-0.268066	0.508545	-0.185329	-0.715877	0.179968	-0.648679
23573		9.751507	0.237693	-0.902987	0.004863	0.000519	-0.009063	-0.736328	-0.263428	0.501465	-0.185344	-0.715908	0.179948	-0.648647
23574		9.740688	0.247651	-0.888326	0.004423	0.002898	-0.009374	-0.735352	-0.268066	0.498535	-0.185349	-0.715896	0.179910	-0.648668
23575		9.744459	0.225687	-0.885447	-0.003701	0.001433	-0.003348	-0.733643	-0.273926	0.503174	-0.185416	-0.715855	0.180021	-0.648664
23576		9.734759	0.264383	-0.899685	0.000573	0.001007	-0.005674	-0.736572	-0.263916	0.506348	-0.185499	-0.715849	0.180102	-0.648624
23577		9.750691	0.260336	-0.897777	-0.003010	0.000951	-0.005153	-0.740723	-0.273926	0.502686	-0.185525	-0.715843	0.180162	-0.648607
23578		9.745233	0.213394	-0.888423	-0.001911	0.000701	-0.008389	-0.743652	-0.262939	0.502930	-0.185641	-0.715824	0.180232	-0.648576
23579		9.738477	0.245857	-0.896487	0.002552	0.002459	-0.007522	-0.741943	-0.263916	0.505859	-0.185626	-0.715799	0.180213	-0.648613
23580		9.745222	0.270036	-0.889616	0.003538	0.001206	-0.010761	-0.737305	-0.261719	0.503662	-0.185632	-0.715806	0.180164	-0.648617
23581		9.751638	0.246040	-0.923598	-0.002102	-0.001479	-0.011581	-0.738037	-0.269287	0.505859	-0.185682	-0.715827	0.180155	-0.648581
23582		9.733181	0.251114	-0.912045	-0.002161	0.001248	-0.011200	-0.739502	-0.265625	0.506104	-0.185786	-0.715827	0.180177	-0.648545
23583		9.761523	0.260578	-0.933726	-0.000963	0.002064	-0.013370	-0.738770	-0.275879	0.500488	-0.185867	-0.715828	0.180147	-0.648529
23584		9.728784	0.238427	-0.931003	-0.000807	0.000403	-0.012685	-0.737793	-0.264893	0.511963	-0.186024	-0.715820	0.180184	-0.648483
23585		9.733834	0.243564	-0.915215	0.001056	-0.001590	-0.009609	-0.735840	-0.269287	0.503174	-0.186032	-0.715870	0.180169	-0.648430
23586		9.756739	0.256269	-0.930167	0.001788	0.001718	-0.009967	-0.746582	-0.270752	0.516602	-0.186095	-0.715868	0.180171	-0.648413
23587		9.773966	0.279436	-0.914545	-0.003231	0.001331	-0.011148	-0.736084	-0.265869	0.506592	-0.186182	-0.715881	0.180186	-0.648370
23588		9.747499	0.236943	-0.922844	-0.007277	-0.000249	-0.014508	-0.742676	-0.270752	0.507812	-0.186325	-0.715897	0.180203	-0.648306
23589		9.721071	0.194777	-0.930966	-0.003373	0.002888	-0.013955	-0.738037	-0.269287	0.510010	-0.186457	-0.715884	0.180202	-0.648284
23590		9.727202	0.229865	-0.943210	0.007207	0.002352	-0.010214	-0.745361	-0.275146	0.502197	-0.186453	-0.715908	0.180143	-0.648275
23591		9.753238	0.284076	-0.911300	0.004167	0.000973	-0.008317	-0.744385	-0.265869	0.507080	-0.186503	-0.715890	0.180159	-0.648275
23592		9.771280	0.289999	-0.899794	-0.001775	-0.000895	-0.006641	-0.736084	-0.258057	0.514648	-0.186515	-0.715891	0.180195	-0.648261
23593		9.731401	0.254147	-0.922766	-0.006270	0.003908	-0.004620	-0.737793	-0.265869	0.501709	-0.186505	-0.715881	0.180234	-0.648263
23594		9.744098	0.263737	-0.903385	-0.000369	0.001992	-0.007741	-0.740967	-0.270020	0.498535	-0.186539	-0.715861	0.180254	-0.648271
23595		9.736240	0.266852	-0.882394	0.006272	0.003331	-0.012281	-0.742188	-0.269287	0.499512	-0.186583	-0.715838	0.180199	-0.648299
23596		9.729354	0.299882	-0.890148	0.010103	0.002851	-0.009991	-0.736572	-0.269287	0.507812	-0.186565	-0.715823	0.180127	-0.648340
23597		9.759811	0.318121	-0.901939	0.003505	0.001292	-0.009696	-0.743164	-0.269287	0.501953	-0.186591	-0.715843	0.180108	-0.648316
23598		9.745785	0.240393	-0.908999	0.003688	-0.000481	-0.011134	-0.737549	-0.261475	0.507812	-0.186626	-0.715849	0.180081	-0.648307
23599		9.744529	0.265785	-0.881992	0.002561	0.002320	-0.010703	-0.736816	-0.266113	0.506104	-0.186615	-0.715861	0.180018	-0.648314
23600		9.749049	0.280937	-0.884759	0.009438	0.003174	-0.011370	-0.737305	-0.267090	0.503418	-0.186585	-0.715878	0.179917	-0.648332
23601		9.728820	0.269618	-0.905845	0.006850	-0.000590	-0.009161	-0.737061	-0.265625	0.507568	-0.186564	-0.715905	0.179874	-0.648320
23602		9.753171	0.255339	-0.905380	0.000740	-0.000749	-0.007110	-0.746338	-0.265381	0.498047	-0.186563	-0.715928	0.179886	-0.648292
23603		9.751898	0.279867	-0.878532	0.000959	0.001263	-0.007103	-0.729248	-0.272949	0.502441	-0.186571	-0.715887	0.179902	-0.648331
23604		9.735039	0.254652	-0.916475	0.002808	0.001776	-0.007892	-0.742676	-0.264893	0.509277	-0.186633	-0.715892	0.179932	-0.648298
23605		9.739558	0.269240	-0.919334	0.001865	0.002802	-0.008899	-0.741455	-0.267334	0.507324	-0.186628	-0.715888	0.179900	-0.648313
23606		9.748837	0.292899	-0.883223	0.003888	0.001596	-0.010064	-0.740479	-0.270264	0.509277	-0.186635	-0.715896	0.179860	-0.648314
23607		9.740309	0.306109	-0.882230	0.002103	-0.001641	-0.009655	-0.728516	-0.271973	0.501709	-0.186663	-0.715932	0.179856	-0.648267
23608		9.767064	0.295530	-0.895167	-0.005716	-0.001475	-0.009996	-0.737305	-0.269043	0.503662	-0.186805	-0.715948	0.179939	-0.648185
23609		9.747103	0.280372	-0.874037	-0.006472	0.001726	-0.007813	-0.732666	-0.264160	0.498291	-0.186907	-0.715921	0.180018	-0.648164
23610		9.712453	0.293454	-0.905885	-0.003077	0.003574	-0.006895	-0.736084	-0.264648	0.504150	-0.186957	-0.715880	0.180061	-0.648183
23611		9.734801	0.269724	-0.914690	-0.001380	-0.000649	-0.008070	-0.742188	-0.271484	0.500244	-0.186979	-0.715892	0.180078	-0.648159
23612		9.743182	0.261175	-0.915928	-0.004264	-0.001250	-0.010415	-0.738770	-0.266846	0.505615	-0.187093	-0.715880	0.180138	-0.648123
23613		9.756088	0.265614	-0.920227	0.000034	0.002139	-0.011293	-0.735840	-0.268799	0.505615	-0.187142	-0.715878	0.180114	-0.648117
23614		9.739744	0.279935	-0.898103	0.002374	0.004007	-0.011386	-0.739258	-0.262695	0.508545	-0.187191	-0.715871	0.180077	-0.648121
23615		9.723734	0.287818	-0.899140	0.001369	0.001410	-0.010654	-0.739502	-0.267578	0.504150	-0.187185	-0.715887	0.180022	-0.648120
23616		9.740986	0.261899	-0.924149	-0.004973	-0.000669	-0.006490	-0.731934	-0.264404	0.508545	-0.187240	-0.715879	0.180093	-0.648094
23617		9.785932	0.255169	-0.924751	0.003807	0.004340	-0.009682	-0.734619	-0.274414	0.508789	-0.187229	-0.715888	0.180030	-0.648104
23618		9.748588	0.314549	-0.903239	0.008712	-0.000202	-0.013129	-0.735596	-0.272217	0.503906	-0.187255	-0.715945	0.179953	-0.648055
23619		9.695990	0.232639	-0.897529	0.000600	-0.003273	-0.017726	-0.736816	-0.271729	0.504883	-0.187380	-0.716001	0.179909	-0.647970
23620		9.726683	0.246080	-0.932633	0.002478	0.004972	-0.012442	-0.745850	-0.270020	0.498535	-0.187455	-0.715983	0.179872	-0.647978
23621		9.762233	0.267192	-0.927628	0.009315	0.006057	-0.008863	-0.739014	-0.267822	0.499512	-0.187435	-0.715928	0.179813	-0.648061
23622		9.776867	0.286927	-0.898653	0.002092	-0.001619	-0.009652	-0.737549	-0.267822	0.506348	-0.187460	-0.715937	0.179813	-0.648043
23623		9.748870	0.318838	-0.882453	0.000974	0.001073	-0.011345	-0.731934	-0.270996	0.506592	-0.187499	-0.715951	0.179784	-0.648025
23624		9.753233	0.292102	-0.902595	0.004111	0.003432	-0.014298	-0.737305	-0.270752	0.507812	-0.187565	-0.715969	0.179713	-0.648006
23625		9.717130	0.328949	-0.907804	0.004933	0.001507	-0.011171	-0.735107	-0.275879	0.506348	-0.187584	-0.715991	0.179662	-0.647990
23626		9.733665	0.273453	-0.904133	0.001296	-0.002152	-0.007852	-0.737549	-0.272461	0.504150	-0.187639	-0.716024	0.179707	-0.647924
23627		9.771435	0.297298	-0.914163	0.011358	-0.001532	-0.009726	-0.738770	-0.274170	0.505859	-0.187601	-0.716070	0.179641	-0.647904
23628		9.756978	0.320835	-0.883226	0.012652	0.000259	-0.012952	-0.731201	-0.270996	0.512939	-0.187587	-0.716113	0.179536	-0.647889
23629		9.748970	0.324479	-0.863255	-0.003030	-0.003086	-0.011898	-0.737305	-0.275635	0.500244	-0.187669	-0.716181	0.179544	-0.647788
23630		9.742098	0.308874	-0.912615	-0.000033	-0.001523	-0.010611	-0.740234	-0.271729	0.504883	-0.187767	-0.716188	0.179585	-0.647740
23631		9.738961	0.318156	-0.918799	0.010215	0.001274	-0.009298	-0.731445	-0.260986	0.506348	-0.187731	-0.716204	0.179518	-0.647752
23632		9.760326	0.353532	-0.907119	-0.004409	-0.002098	-0.007232	-0.736084	-0.275879	0.503906	-0.187735	-0.716233	0.179541	-0.647712
23633		9.779677	0.336865	-0.922848	-0.006924	-0.002254	-0.006764	-0.739014	-0.273682	0.510010	-0.187857	-0.716234	0.179667	-0.647641
23634		9.728860	0.272799	-0.926243	-0.004080	0.000822	-0.009345	-0.738770	-0.273682	0.496338	-0.187949	-0.716236	0.179713	-0.647599
23635		9.708709	0.303695	-0.929908	-0.006776	0.002383	-0.008501	-0.739014	-0.264160	0.497314	-0.188090	-0.716177	0.179816	-0.647594
23636		9.736299	0.282817	-0.922747	-0.008449	0.000196	-0.007027	-0.735352	-0.269287	0.515869	-0.188164	-0.716136	0.179901	-0.647595
23637		9.747169	0.277094	-0.937145	-0.000444	-0.001707	-0.008120	-0.730713	-0.272949	0.505615	-0.188166	-0.716192	0.179896	-0.647534
23638		9.759675	0.287082	-0.918592	0.000535	0.001000	-0.006731	-0.737793	-0.270996	0.508301	-0.188205	-0.716201	0.179932	-0.647503
23639		9.751778	0.289440	-0.897924	-0.005837	0.001412	-0.006432	-0.735352	-0.274414	0.504639	-0.188274	-0.716186	0.180006	-0.647478
23640		9.734147	0.280255	-0.931924	-0.003901	0.003043	-0.005095	-0.735596	-0.278809	0.502441	-0.188350	-0.716153	0.180097	-0.647468
23641		9.752868	0.315692	-0.948773	0.006229	0.001005	-0.006287	-0.736328	-0.265869	0.511719	-0.188373	-0.716153	0.180127	-0.647452
23642		9.732001	0.315789	-0.923907	0.001478	0.000027	-0.004662	-0.738037	-0.276611	0.500244	-0.188319	-0.716179	0.180126	-0.647440
23643		9.735690	0.300145	-0.898474	-0.005658	-0.000305	-0.006807	-0.733643	-0.278076	0.509766	-0.188438	-0.716153	0.180246	-0.647401
23644		9.755470	0.319366	-0.918863	-0.004365	0.005422	-0.005408	-0.731689	-0.269287	0.509521	-0.188539	-0.716116	0.180337	-0.647386
23645		9.754186	0.300861	-0.908423	-0.001896	0.002001	-0.003076	-0.738525	-0.267578	0.510254	-0.188537	-0.716115	0.180394	-0.647372
23646		9.759664	0.297809	-0.915286	-0.005683	-0.000104	-0.002565	-0.739990	-0.270264	0.501953	-0.188541	-0.716111	0.180482	-0.647351
23647		9.769151	0.314127	-0.902259	-0.001669	0.003866	-0.006251	-0.741455	-0.267334	0.508057	-0.188582	-0.716064	0.180528	-0.647378
23648		9.751131	0.311863	-0.912990	0.002890	0.002686	-0.011065	-0.740723	-0.269775	0.504639	-0.188586	-0.716065	0.180467	-0.647393
23649		9.710917	0.289112	-0.889653	-0.003602	0.002188	-0.008649	-0.736572	-0.273193	0.511475	-0.188650	-0.716040	0.180502	-0.647393
23650		9.725364	0.270206	-0.920299	-0.002546	0.002170	-0.007638	-0.740723	-0.272461	0.506104	-0.188704	-0.716042	0.180533	-0.647366
23651		9.756794	0.271943	-0.935325	0.008492	0.005520	-0.008119	-0.735596	-0.274414	0.500732	-0.188676	-0.716021	0.180475	-0.647414
23652		9.764096	0.321519	-0.914592	0.009797	0.001160	-0.005741	-0.733887	-0.263184	0.506592	-0.188634	-0.716026	0.180462	-0.647424
23653		9.762343	0.309185	-0.881862	0.000793	0.000495	-0.002859	-0.735840	-0.270264	0.501221	-0.188567	-0.716033	0.180479	-0.647431
23654		9.741251	0.312741	-0.899122	0.001402	0.002708	-0.005343	-0.736572	-0.277344	0.510986	-0.188576	-0.716007	0.180513	-0.647448
23655		9.741695	0.307857	-0.921493	0.004312	0.003119	-0.007240	-0.737549	-0.270508	0.507324	-0.188595	-0.716014	0.180511	-0.647435
23656		9.709424	0.283682	-0.918488	0.006722	0.002275	-0.007710	-0.736084	-0.269287	0.507324	-0.188560	-0.716024	0.180466	-0.647447
23657		9.765632	0.305417	-0.939001	0.012805	0.002585	-0.007634	-0.732178	-0.270752	0.503174	-0.188465	-0.716049	0.180366	-0.647474
23658		9.759862	0.353205	-0.914525	0.012103	-0.000731	-0.007273	-0.738037	-0.275879	0.511230	-0.188387	-0.716093	0.180301	-0.647467
23659		9.731297	0.312000	-0.886643	0.000922	0.001257	-0.008159	-0.735352	-0.275146	0.506836	-0.188431	-0.716106	0.180316	-0.647435
23660		9.737469	0.299886	-0.873744	-0.001289	0.004165	-0.006623	-0.734619	-0.277832	0.504150	-0.188495	-0.716080	0.180365	-0.647431
23661		9.718811	0.306985	-0.903854	0.006706	0.002380	-0.005589	-0.735840	-0.269531	0.499268	-0.188497	-0.716078	0.180381	-0.647429
23662		9.748249	0.298386	-0.929265	0.006878	0.000761	-0.003842	-0.735107	-0.270752	0.506836	-0.188441	-0.716072	0.180392	-0.647449
23663		9.762069	0.287424	-0.872092	0.004842	-0.001880	-0.005182	-0.732422	-0.267090	0.503662	-0.188399	-0.716108	0.180398	-0.647420
23664		9.767028	0.331218	-0.904116	0.003734	0.004497	-0.007557	-0.736084	-0.273926	0.511719	-0.188388	-0.716092	0.180368	-0.647449
23665		9.743525	0.332449	-0.907894	0.004103	0.001063	-0.008306	-0.735107	-0.271973	0.505127	-0.188393	-0.716120	0.180345	-0.647422
23666		9.726631	0.313611	-0.922618	0.001128	0.003227	-0.009214	-0.740234	-0.277344	0.512451	-0.188440	-0.716110	0.180344	-0.647421
23667		9.751287	0.299260	-0.921146	0.000322	0.002876	-0.003174	-0.735107	-0.273682	0.508301	-0.188456	-0.716096	0.180408	-0.647413
23668		9.755669	0.312917	-0.924036	0.003414	0.001575	-0.005444	-0.743164	-0.270752	0.509521	-0.188451	-0.716105	0.180423	-0.647401
23669		9.750145	0.317710	-0.916840	0.006383	-0.000538	-0.003474	-0.733398	-0.263672	0.501953	-0.188374	-0.716122	0.180424	-0.647404
23670		9.736710	0.323137	-0.889324	-0.001611	0.001241	-0.004511	-0.736084	-0.272705	0.501709	-0.188364	-0.716107	0.180463	-0.647412
23671		9.749004	0.336245	-0.912419	0.003329	0.004302	-0.005067	-0.742920	-0.270996	0.504883	-0.188372	-0.716072	0.180492	-0.647441
23672		9.737253	0.319257	-0.910581	-0.002645	0.004942	-0.006204	-0.743164	-0.273926	0.499756	-0.188423	-0.716017	0.180544	-0.647472
23673		9.740015	0.281814	-0.940353	-0.003816	0.000169	-0.008657	-0.733398	-0.276367	0.505615	-0.188522	-0.715989	0.180622	-0.647453
23674		9.759786	0.261769	-0.913124	0.001485	-0.000106	-0.007840	-0.739502	-0.269043	0.504150	-0.188572	-0.716007	0.180654	-0.647410
23675		9.752400	0.294164	-0.921512	0.010960	0.001941	-0.010023	-0.733643	-0.273926	0.510254	-0.188516	-0.716023	0.180559	-0.647435
23676		9.751975	0.338534	-0.904192	0.008234	-0.000145	-0.007441	-0.734863	-0.267090	0.503418	-0.188477	-0.716069	0.180515	-0.647407
23677		9.755728	0.323174	-0.878457	-0.003625	0.002281	-0.006532	-0.739990	-0.271973	0.507568	-0.188518	-0.716047	0.180560	-0.647407
23678		9.748076	0.322948	-0.922844	-0.005643	0.003370	-0.007493	-0.735840	-0.281006	0.502197	-0.188603	-0.716013	0.180622	-0.647402
23679		9.740040	0.289905	-0.896293	-0.004973	-0.000869	-0.010732	-0.736084	-0.272461	0.509033	-0.188763	-0.716013	0.180713	-0.647330
23680		9.718082	0.269384	-0.927748	-0.003617	-0.001737	-0.013272	-0.739014	-0.275391	0.506348	-0.188865	-0.716051	0.180713	-0.647259
23681		9.745800	0.249772	-0.920608	0.000838	0.003807	-0.012022	-0.738281	-0.272461	0.505615	-0.188949	-0.716037	0.180697	-0.647254
23682		9.759477	0.280165	-0.910968	0.000133	0.000628	-0.008480	-0.737305	-0.272705	0.505859	-0.188987	-0.716040	0.180714	-0.647235
23683		9.776717	0.296539	-0.918643	0.002247	0.000596	-0.006456	-0.739990	-0.268799	0.502686	-0.188992	-0.716045	0.180731	-0.647223
23684		9.753922	0.323714	-0.909277	0.006704	0.002217	-0.009826	-0.738770	-0.270752	0.510254	-0.188971	-0.716044	0.180673	-0.647247
23685		9.734260	0.344407	-0.893248	0.003435	0.005087	-0.010365	-0.738037	-0.280518	0.502686	-0.188985	-0.716035	0.180614	-0.647269
23686		9.726799	0.340956	-0.895400	0.003602	-0.000268	-0.008996	-0.729492	-0.270264	0.503662	-0.189046	-0.716044	0.180644	-0.647233
23687		9.753111	0.340235	-0.927451	0.000984	-0.001354	-0.006412	-0.737793	-0.270752	0.508057	-0.189051	-0.716071	0.180668	-0.647194
23688		9.780371	0.361367	-0.903437	0.005135	0.001167	-0.005170	-0.746582	-0.264893	0.503906	-0.189004	-0.716082	0.180656	-0.647200
23689		9.738392	0.363686	-0.896083	-0.000171	0.001481	-0.004928	-0.732666	-0.279785	0.504883	-0.188976	-0.716051	0.180681	-0.647235
23690		9.723518	0.353712	-0.901086	-0.005469	0.001701	-0.006806	-0.732910	-0.270020	0.505371	-0.189098	-0.716034	0.180786	-0.647189
23691		9.715376	0.324012	-0.916761	0.002452	0.002478	-0.009632	-0.728760	-0.277100	0.512451	-0.189117	-0.716040	0.180754	-0.647186
23692		9.762836	0.321009	-0.930531	0.000120	0.000727	-0.006359	-0.738770	-0.270996	0.508545	-0.189151	-0.716072	0.180779	-0.647134
23693		9.761616	0.303204	-0.920710	0.002348	0.001518	-0.008574	-0.736572	-0.270996	0.496582	-0.189156	-0.716080	0.180758	-0.647129
23694		9.757953	0.318578	-0.903483	0.009101	0.001446	-0.009232	-0.734131	-0.279785	0.502197	-0.189134	-0.716078	0.180712	-0.647151
23695		9.715222	0.331613	-0.915670	0.007548	0.000248	-0.007757	-0.734375	-0.278320	0.502930	-0.189147	-0.716095	0.180714	-0.647127
23696		9.738170	0.340347	-0.887932	0.004171	0.002198	-0.006179	-0.744629	-0.276123	0.503906	-0.189172	-0.716087	0.180745	-0.647120
23697		9.743704	0.337669	-0.894542	0.002716	0.002054	-0.003642	-0.728516	-0.270752	0.508545	-0.189171	-0.716056	0.180803	-0.647139
23698		9.756121	0.347359	-0.875549	-0.002002	0.000805	-0.007323	-0.745605	-0.281982	0.508789	-0.189206	-0.716075	0.180822	-0.647102
23699		9.741206	0.337501	-0.881205	0.002616	-0.002781	-0.006141	-0.736816	-0.276855	0.505127	-0.189236	-0.716099	0.180881	-0.647051
23700		9.751024	0.311979	-0.886064	0.000506	0.000984	-0.007788	-0.739014	-0.270264	0.505371	-0.189290	-0.716098	0.180916	-0.647026
23701		9.751008	0.313653	-0.885648	-0.000075	0.002447	-0.005986	-0.736572	-0.269531	0.511230	-0.189299	-0.716078	0.180940	-0.647039
23702		9.742852	0.319404	-0.907398	0.001849	0.000308	-0.006086	-0.738037	-0.268066	0.505127	-0.189273	-0.716101	0.180930	-0.647024
23703		9.755774	0.322701	-0.911589	0.004453	0.001542	-0.005489	-0.736084	-0.268799	0.503662	-0.189225	-0.716099	0.180915	-0.647043
23704		9.726716	0.327060	-0.908832	-0.001432	-0.000517	-0.005944	-0.733154	-0.274414	0.515625	-0.189238	-0.716101	0.180955	-0.647027
23705		9.718523	0.332556	-0.931050	0.001745	-0.000607	-0.003968	-0.739502	-0.277832	0.499023	-0.189211	-0.716143	0.180971	-0.646984
23706		9.743428	0.314329	-0.887905	0.006475	0.000413	-0.005587	-0.743652	-0.276123	0.509033	-0.189209	-0.716133	0.181004	-0.646985
23707		9.754374	0.343737	-0.907829	0.002998	0.001396	-0.002952	-0.739014	-0.274658	0.504395	-0.189188	-0.716122	0.181051	-0.646991
23708		9.775476	0.342414	-0.889582	-0.004997	0.003099	-0.005054	-0.732422	-0.262939	0.514893	-0.189263	-0.716079	0.181145	-0.646991
23709		9.727126	0.326485	-0.931034	0.001754	-0.000790	-0.008208	-0.736084	-0.275635	0.508057	-0.189211	-0.716134	0.181076	-0.646964
23710		9.708064	0.268533	-0.927353	0.001373	-0.001227	-0.011019	-0.742188	-0.265625	0.508545	-0.189265	-0.716169	0.181064	-0.646913
23711		9.738776	0.313167	-0.926022	0.001654	0.002029	-0.005713	-0.737061	-0.268555	0.512451	-0.189225	-0.716160	0.181052	-0.646938
23712		9.772818	0.313736	-0.912304	0.005502	0.001625	-0.002357	-0.741211	-0.269287	0.506348	-0.189131	-0.716174	0.181034	-0.646955
23713		9.762856	0.341650	-0.907575	0.006759	-0.000243	-0.004897	-0.734619	-0.267334	0.504883	-0.189060	-0.716188	0.181016	-0.646966
23714		9.740072	0.331754	-0.892656	-0.002789	0.000343	-0.003405	-0.733154	-0.276367	0.519531	-0.189059	-0.716179	0.181079	-0.646958
23715		9.723376	0.311761	-0.907715	0.000108	0.000780	-0.005298	-0.730469	-0.271484	0.505127	-0.189061	-0.716218	0.181084	-0.646913
23716		9.741292	0.317646	-0.896055	0.011099	0.000484	-0.006147	-0.736328	-0.271973	0.505615	-0.188979	-0.716254	0.181022	-0.646915
23717		9.730729	0.319895	-0.904722	0.005504	0.001537	-0.004477	-0.739746	-0.263916	0.500000	-0.188938	-0.716254	0.181024	-0.646926
23718		9.754210	0.321614	-0.900016	0.005791	0.000875	-0.003787	-0.733398	-0.273193	0.509766	-0.188860	-0.716240	0.181023	-0.646964
23719		9.765102	0.351066	-0.920086	0.010708	0.000187	-0.005777	-0.740967	-0.276367	0.504395	-0.188777	-0.716283	0.180962	-0.646958
23720		9.739882	0.338283	-0.892272	0.005116	-0.002543	-0.005542	-0.737061	-0.273926	0.503662	-0.188765	-0.716306	0.180995	-0.646927
23721		9.748681	0.293169	-0.887376	-0.004419	0.001586	-0.007916	-0.734863	-0.273682	0.506348	-0.188856	-0.716283	0.181063	-0.646906
23722		9.740533	0.299255	-0.908893	0.005313	0.003120	-0.007285	-0.739990	-0.272705	0.507568	-0.188851	-0.716281	0.181041	-0.646917
23723		9.752719	0.312679	-0.932308	0.008585	0.000310	-0.005681	-0.739014	-0.275635	0.505859	-0.188789	-0.716300	0.181011	-0.646922
23724		9.773744	0.311560	-0.914883	0.004439	-0.002134	-0.004802	-0.742432	-0.271484	0.505371	-0.188771	-0.716323	0.181045	-0.646892
23725		9.745947	0.299235	-0.916156	0.000393	0.000073	-0.005668	-0.735840	-0.277100	0.509277	-0.188781	-0.716314	0.181088	-0.646887
23726		9.727232	0.338869	-0.910261	0.002132	0.003207	-0.009261	-0.741211	-0.272217	0.507812	-0.188831	-0.716313	0.181080	-0.646876
23727		9.745701	0.338977	-0.921257	0.002610	0.000921	-0.006823	-0.736816	-0.270508	0.509277	-0.188831	-0.716314	0.181085	-0.646874
23728		9.747521	0.317502	-0.947829	-0.001054	-0.000169	-0.005251	-0.738037	-0.279541	0.507812	-0.188837	-0.716323	0.181120	-0.646852
23729		9.743994	0.328226	-0.888432	-0.000961	0.000976	-0.002071	-0.742432	-0.274170	0.503174	-0.188865	-0.716308	0.181222	-0.646831
23730		9.736098	0.296864	-0.904095	-0.004720	0.002565	-0.001188	-0.737549	-0.271484	0.502930	-0.188909	-0.716251	0.181359	-0.646844
23731		9.748326	0.309320	-0.927291	-0.005491	0.001917	-0.001510	-0.738770	-0.277344	0.503174	-0.188948	-0.716207	0.181484	-0.646846
