// Start Time: Unknown
// Update Rate: 40.0Hz
// Filter Profile: human (46.1)
// Firmware Version: 4.6.0
PacketCounter	SampleTimeFine	Acc_X	Acc_Y	Acc_Z	Gyr_X	Gyr_Y	Gyr_Z	Mag_X	Mag_Y	Mag_Z	Quat_q0	Quat_q1	Quat_q2	Quat_q3
23592		9.679558	0.921832	-1.032912	0.000096	-0.006596	-0.004125	-0.723389	-0.234863	0.520996	-0.157048	-0.735990	0.105337	-0.650045
23593		9.696468	0.988265	-1.018345	0.008446	-0.008605	-0.004170	-0.722168	-0.231689	0.519287	-0.156993	-0.736082	0.105247	-0.649969
23594		9.700696	1.003609	-1.003754	0.009463	-0.005194	-0.012438	-0.723877	-0.232178	0.519287	-0.156998	-0.736158	0.105066	-0.649911
23595		9.699725	1.019476	-1.010053	0.006667	-0.006002	-0.013189	-0.715088	-0.224121	0.507324	-0.157039	-0.736237	0.104900	-0.649839
23596		9.704162	1.007872	-1.030606	0.006276	-0.007474	-0.008127	-0.718506	-0.232910	0.524902	-0.157045	-0.736319	0.104781	-0.649763
23597		9.700706	0.957553	-1.034549	0.002994	-0.005531	-0.010446	-0.721436	-0.229736	0.523193	-0.157110	-0.736382	0.104658	-0.649696
23598		9.702559	0.990281	-1.032818	-0.005025	-0.005801	-0.006483	-0.718018	-0.234619	0.525146	-0.157218	-0.736425	0.104636	-0.649624
23599		9.707933	0.999406	-1.054332	0.002559	-0.010349	-0.004331	-0.717285	-0.230957	0.521973	-0.157239	-0.736518	0.104575	-0.649524
23600		9.679091	1.002514	-1.049389	0.000786	-0.004984	-0.010522	-0.710205	-0.234619	0.522705	-0.157341	-0.736573	0.104454	-0.649456
23601		9.680629	1.001388	-1.041106	-0.001953	0.001809	-0.014067	-0.721680	-0.234375	0.522461	-0.157513	-0.736575	0.104303	-0.649436
23602		9.702483	0.966600	-1.108546	0.004690	-0.003489	-0.015978	-0.721191	-0.232910	0.518066	-0.157644	-0.736634	0.104081	-0.649373
23603		9.694668	0.981091	-1.058670	0.015468	-0.002976	-0.015311	-0.718262	-0.230225	0.518555	-0.157666	-0.736718	0.103778	-0.649321
23604		9.708307	0.997785	-1.045191	0.013636	0.000136	-0.017093	-0.715576	-0.231445	0.518555	-0.157720	-0.736777	0.103468	-0.649290
23605		9.717094	1.048507	-1.058155	0.002914	-0.001111	-0.013031	-0.724121	-0.236816	0.522949	-0.157841	-0.736820	0.103282	-0.649242
23606		9.705165	1.021242	-1.058876	-0.002555	0.001545	-0.011385	-0.715332	-0.231445	0.517822	-0.158034	-0.736832	0.103135	-0.649205
23607		9.651530	1.004406	-1.067171	0.001788	0.003789	-0.017174	-0.718506	-0.245117	0.519531	-0.158214	-0.736839	0.102898	-0.649191
23608		9.652096	0.968172	-1.096695	0.003782	0.004467	-0.019478	-0.720459	-0.232666	0.519043	-0.158436	-0.736858	0.102609	-0.649161
23609		9.703237	0.996009	-1.095887	0.016207	0.001783	-0.010798	-0.712891	-0.236084	0.512695	-0.158427	-0.736909	0.102323	-0.649150
23610		9.755231	1.024031	-1.050967	-0.002040	-0.001030	-0.005775	-0.715088	-0.228760	0.515137	-0.158524	-0.736942	0.102236	-0.649103
23611		9.709672	1.003100	-0.984609	0.000377	0.006828	-0.003451	-0.716309	-0.233643	0.515381	-0.158572	-0.736907	0.102147	-0.649145
23612		9.677997	1.020906	-1.034412	-0.001396	0.005348	-0.006686	-0.721191	-0.234863	0.524414	-0.158686	-0.736875	0.102038	-0.649171
23613		9.659564	1.030357	-1.069428	0.002685	0.005054	-0.005879	-0.716797	-0.227295	0.515625	-0.158775	-0.736869	0.101913	-0.649175
23614		9.667847	1.057367	-1.080206	0.009095	0.004659	-0.008027	-0.712402	-0.229492	0.515869	-0.158764	-0.736860	0.101718	-0.649218
23615		9.686825	1.073192	-1.044389	0.014423	0.001403	-0.010674	-0.720703	-0.239014	0.523193	-0.158728	-0.736908	0.101457	-0.649214
23616		9.712047	1.063829	-0.978056	0.007679	0.002578	-0.007874	-0.715576	-0.225098	0.518311	-0.158819	-0.736945	0.101261	-0.649180
23617		9.705395	1.021153	-0.996526	-0.007031	0.005707	-0.005525	-0.715820	-0.242188	0.520508	-0.158922	-0.736896	0.101215	-0.649218
23618		9.690063	1.000779	-1.012907	-0.007156	0.006771	-0.007059	-0.720459	-0.239990	0.518555	-0.159169	-0.736855	0.101131	-0.649217
23619		9.688582	0.978692	-1.055566	0.000051	0.002261	-0.004408	-0.718750	-0.231934	0.523438	-0.159308	-0.736834	0.101032	-0.649222
23620		9.690561	1.010320	-1.052143	0.013334	0.002400	-0.004994	-0.724609	-0.231445	0.514648	-0.159243	-0.736863	0.100854	-0.649232
23621		9.685073	1.052973	-0.997861	0.009784	0.003288	-0.005288	-0.718262	-0.238281	0.517090	-0.159216	-0.736819	0.100687	-0.649315
23622		9.707244	1.057696	-0.989183	0.000813	0.003316	-0.002042	-0.710938	-0.232910	0.509033	-0.159300	-0.736784	0.100618	-0.649345
23623		9.699512	1.025002	-1.056653	-0.006851	0.008168	-0.001011	-0.713135	-0.239502	0.521240	-0.159378	-0.736671	0.100596	-0.649457
23624		9.702827	1.030815	-1.042032	-0.007014	0.007382	-0.006055	-0.720459	-0.234619	0.517822	-0.159577	-0.736639	0.100554	-0.649451
23625		9.673066	1.024577	-1.037587	-0.006961	0.003883	-0.004152	-0.718506	-0.234619	0.510742	-0.159707	-0.736582	0.100542	-0.649486
23626		9.734638	1.036328	-1.033014	-0.007010	0.008647	0.001336	-0.716553	-0.239746	0.513428	-0.159793	-0.736444	0.100560	-0.649618
23627		9.738051	1.041286	-1.018190	-0.009979	0.008129	-0.001110	-0.711426	-0.232422	0.519287	-0.159992	-0.736337	0.100588	-0.649686
23628		9.652130	1.023121	-0.994828	-0.010014	0.007542	0.002770	-0.724365	-0.242432	0.507812	-0.160029	-0.736300	0.100655	-0.649709
23629		9.640986	1.047715	-1.044959	-0.014485	0.005090	-0.000373	-0.720215	-0.225586	0.510986	-0.160323	-0.736121	0.100740	-0.649825
23630		9.695237	0.973928	-1.013337	-0.012402	0.007125	-0.006392	-0.720215	-0.228516	0.509521	-0.160346	-0.735995	0.100732	-0.649964
23631		9.721329	0.990849	-1.031677	0.011679	0.007972	-0.002248	-0.721191	-0.239502	0.516113	-0.160162	-0.735893	0.100576	-0.650150
23632		9.730430	1.017957	-0.997496	-0.006254	0.002677	0.002621	-0.720459	-0.230713	0.522217	-0.160282	-0.735837	0.100652	-0.650172
23633		9.713494	0.993515	-0.937437	-0.002013	0.007434	0.006738	-0.716064	-0.234863	0.501709	-0.160141	-0.735806	0.100702	-0.650233
23634		9.689859	1.012369	-0.997812	0.002245	0.008342	0.004678	-0.722900	-0.230469	0.506836	-0.160140	-0.735622	0.100711	-0.650441
23635		9.645781	1.003386	-1.012551	0.004576	0.003978	0.003466	-0.718994	-0.240479	0.520020	-0.160010	-0.735485	0.100698	-0.650629
23636		9.698027	1.048794	-1.012385	0.017278	0.002758	0.002220	-0.716553	-0.231445	0.506592	-0.159928	-0.735532	0.100582	-0.650614
23637		9.701296	1.067658	-0.959944	0.021235	0.000769	-0.001325	-0.720459	-0.229492	0.520264	-0.159706	-0.735504	0.100386	-0.650731
23638		9.705080	1.059439	-0.942359	0.008517	0.004580	-0.001294	-0.721924	-0.244873	0.505859	-0.159496	-0.735526	0.100263	-0.650776
23639		9.697499	1.040868	-0.970892	0.000229	0.000461	0.001853	-0.721191	-0.235107	0.512451	-0.159790	-0.735385	0.100341	-0.650851
23640		9.687926	1.006493	-0.962403	-0.000864	0.004450	-0.001605	-0.722656	-0.231934	0.510254	-0.159845	-0.735301	0.100327	-0.650936
23641		9.689850	0.987610	-0.993029	-0.003676	0.000450	0.002733	-0.720703	-0.231445	0.520996	-0.159811	-0.735208	0.100375	-0.651041
23642		9.682938	0.990377	-1.023425	0.001428	-0.004769	0.002807	-0.716797	-0.237061	0.518799	-0.159651	-0.735301	0.100369	-0.650977
23643		9.679767	0.999572	-0.997030	-0.006416	-0.003875	0.003880	-0.720215	-0.235840	0.512207	-0.159716	-0.735370	0.100457	-0.650869
23644		9.716475	1.003305	-0.970560	-0.010142	-0.002685	0.001888	-0.717285	-0.222168	0.521240	-0.159838	-0.735323	0.100575	-0.650873
23645		9.699110	0.950476	-0.992451	-0.006398	-0.004962	0.000528	-0.720215	-0.232178	0.514404	-0.159515	-0.735449	0.100563	-0.650813
23646		9.681862	0.932629	-1.020010	-0.003287	-0.002330	-0.000583	-0.726807	-0.235596	0.520020	-0.159489	-0.735442	0.100587	-0.650823
23647		9.667197	0.932602	-1.039823	0.003196	-0.004549	-0.001348	-0.716553	-0.232910	0.514893	-0.159443	-0.735474	0.100571	-0.650800
23648		9.722309	0.983686	-1.029289	0.003724	-0.008220	0.000908	-0.716553	-0.228760	0.525391	-0.159346	-0.735564	0.100559	-0.650724
23649		9.760143	0.996832	-1.000205	0.001693	-0.006484	-0.002045	-0.718750	-0.235840	0.513916	-0.159100	-0.735767	0.100475	-0.650568
23650		9.663015	0.970848	-0.981713	0.001748	-0.001456	-0.003627	-0.714600	-0.234375	0.515869	-0.159161	-0.735760	0.100450	-0.650565
23651		9.672990	0.979025	-1.025030	-0.009381	-0.001390	-0.007697	-0.717529	-0.230957	0.513428	-0.159302	-0.735797	0.100450	-0.650489
23652		9.673742	0.920934	-1.010210	-0.007245	-0.002860	-0.011815	-0.723633	-0.227539	0.508057	-0.159380	-0.735802	0.100414	-0.650469
23653		9.728522	0.924847	-1.033193	0.016393	-0.002752	-0.007338	-0.721191	-0.230713	0.515137	-0.159157	-0.735731	0.100277	-0.650626
23654		9.749278	0.970754	-0.996321	0.007824	-0.008092	-0.006198	-0.716553	-0.229248	0.517090	-0.159013	-0.735794	0.100187	-0.650603
23655		9.694650	0.992140	-0.976280	0.003302	-0.001519	-0.005595	-0.721680	-0.238770	0.506592	-0.158860	-0.735859	0.100090	-0.650582
23656		9.690720	1.001406	-0.993955	0.004839	-0.000496	-0.004212	-0.716309	-0.237305	0.519775	-0.159065	-0.735720	0.100127	-0.650683
23657		9.682244	0.997043	-1.028672	0.008372	-0.005818	-0.006210	-0.720459	-0.228516	0.518066	-0.159057	-0.735858	0.100002	-0.650548
23658		9.681371	1.011137	-1.034889	0.005917	-0.004656	-0.004792	-0.720703	-0.231934	0.511475	-0.158835	-0.735929	0.099906	-0.650538
23659		9.691964	1.035641	-0.994530	0.012733	-0.003380	-0.007953	-0.723389	-0.227295	0.521240	-0.158751	-0.735912	0.099784	-0.650596
23660		9.728368	1.026673	-1.008612	0.007134	-0.003940	-0.006107	-0.715820	-0.231689	0.518555	-0.158468	-0.735995	0.099647	-0.650592
23661		9.709074	0.994028	-0.999359	-0.000320	-0.003072	-0.005521	-0.727295	-0.228027	0.517334	-0.158414	-0.736080	0.099577	-0.650520
23662		9.694852	0.946998	-1.008657	-0.003091	-0.003723	-0.002235	-0.723145	-0.228760	0.520264	-0.158272	-0.736042	0.099619	-0.650590
23663		9.678247	0.950742	-1.037447	0.003113	-0.005892	0.002374	-0.722168	-0.226562	0.514404	-0.158020	-0.736104	0.099612	-0.650582
23664		9.687108	0.977403	-1.006164	0.008359	-0.006225	0.001707	-0.722412	-0.231445	0.520752	-0.157757	-0.736112	0.099610	-0.650637
23665		9.702186	0.984304	-1.029426	0.005690	-0.003851	0.000745	-0.718506	-0.231201	0.523193	-0.157577	-0.736172	0.099562	-0.650621
23666		9.703328	0.958189	-1.020843	0.001220	-0.003548	0.000428	-0.716797	-0.226807	0.515869	-0.157409	-0.736286	0.099502	-0.650541
23667		9.701248	0.962280	-1.031152	0.008745	-0.009001	-0.001605	-0.712891	-0.234375	0.509521	-0.157185	-0.736381	0.099444	-0.650498
23668		9.696785	1.033042	-1.020895	0.007189	-0.004674	-0.001382	-0.722412	-0.232422	0.510742	-0.157275	-0.736375	0.099460	-0.650480
23669		9.709870	1.025491	-1.006944	0.000311	-0.003716	-0.007509	-0.718994	-0.232910	0.513672	-0.157403	-0.736290	0.099498	-0.650539
23670		9.675341	1.006199	-1.020984	-0.010395	-0.001836	-0.008554	-0.710449	-0.230469	0.520508	-0.157608	-0.736241	0.099558	-0.650536
23671		9.730644	0.982188	-1.078726	-0.009172	-0.002620	-0.005305	-0.720703	-0.236572	0.518311	-0.157615	-0.736366	0.099524	-0.650397
23672		9.699545	0.981394	-1.040308	-0.012293	-0.004168	-0.000837	-0.719727	-0.231201	0.517822	-0.157790	-0.736364	0.099644	-0.650340
23673		9.670933	0.948356	-1.028235	-0.012224	-0.001730	-0.001207	-0.720947	-0.229248	0.508301	-0.157834	-0.736350	0.099743	-0.650330
23674		9.666906	0.923157	-1.040135	-0.019174	-0.003200	-0.006960	-0.716797	-0.227783	0.519287	-0.158058	-0.736211	0.099942	-0.650402
23675		9.702008	0.890652	-1.097160	0.009798	0.000717	-0.004074	-0.721924	-0.226318	0.512939	-0.157804	-0.736279	0.099790	-0.650410
23676		9.741247	0.947878	-1.069155	0.012369	-0.007441	-0.001688	-0.721191	-0.229248	0.521973	-0.157549	-0.736289	0.099741	-0.650468
23677		9.727986	0.986122	-1.005853	0.010244	-0.002797	-0.002663	-0.717285	-0.227051	0.512451	-0.157288	-0.736377	0.099604	-0.650452
23678		9.690635	1.044274	-1.004019	0.008409	-0.001195	0.000116	-0.722168	-0.227051	0.522461	-0.157117	-0.736355	0.099590	-0.650521
23679		9.646145	1.020643	-1.060715	0.000895	-0.004270	0.005645	-0.719238	-0.232422	0.515869	-0.156826	-0.736423	0.099600	-0.650512
23680		9.691197	0.979390	-1.035010	0.001673	-0.001541	0.007481	-0.716309	-0.228271	0.513428	-0.156762	-0.736401	0.099695	-0.650539
23681		9.699476	0.968681	-1.041777	0.013148	-0.001948	0.002970	-0.723877	-0.228516	0.514160	-0.156569	-0.736408	0.099662	-0.650582
23682		9.683088	1.091130	-1.047845	0.009590	-0.006589	-0.002964	-0.715088	-0.227783	0.514404	-0.156449	-0.736399	0.099638	-0.650625
23683		9.692530	1.141168	-1.017062	-0.010868	-0.003170	-0.004336	-0.721924	-0.236328	0.511963	-0.156523	-0.736402	0.099715	-0.650592
23684		9.687680	0.990558	-1.010721	-0.023279	-0.000339	-0.008976	-0.718262	-0.226807	0.515137	-0.157000	-0.736264	0.099929	-0.650600
23685		9.709429	0.878534	-1.025046	-0.018974	0.001343	-0.010883	-0.719971	-0.228760	0.514160	-0.157146	-0.736212	0.099990	-0.650614
23686		9.704068	0.914989	-1.052123	-0.006736	-0.005446	-0.006192	-0.726074	-0.238525	0.513916	-0.157185	-0.736207	0.100033	-0.650604
23687		9.707074	0.920991	-1.040399	-0.002211	-0.002227	-0.002898	-0.716553	-0.239014	0.517090	-0.157404	-0.736115	0.100129	-0.650640
23688		9.695047	0.919091	-1.006359	0.000490	-0.001250	-0.002996	-0.724854	-0.232910	0.515137	-0.157576	-0.736138	0.100138	-0.650571
23689		9.701870	0.901648	-1.016740	0.002752	-0.001019	-0.002760	-0.719238	-0.234619	0.518555	-0.157572	-0.736082	0.100143	-0.650635
23690		9.686971	0.922374	-1.081586	0.007637	-0.000743	-0.006818	-0.719238	-0.228760	0.514160	-0.157570	-0.736122	0.100034	-0.650607
23691		9.691897	0.959300	-1.066598	0.020776	-0.001183	-0.008418	-0.709961	-0.227539	0.511475	-0.157358	-0.736149	0.099814	-0.650661
23692		9.684081	0.991353	-1.062628	0.019711	-0.005546	-0.004347	-0.710938	-0.228760	0.512695	-0.157138	-0.736246	0.099640	-0.650631
23693		9.728207	1.034761	-1.053923	0.012309	-0.003925	-0.003593	-0.718994	-0.231201	0.519043	-0.157009	-0.736316	0.099534	-0.650599
23694		9.711192	1.046574	-1.001516	-0.004097	-0.001393	-0.000276	-0.718994	-0.232910	0.522949	-0.156990	-0.736335	0.099569	-0.650578
23695		9.670538	0.981013	-1.034308	-0.008462	0.000426	-0.000272	-0.724365	-0.228027	0.511719	-0.157014	-0.736371	0.099612	-0.650524
23696		9.676768	0.976448	-1.048996	-0.015440	-0.001641	-0.002142	-0.725342	-0.233154	0.516602	-0.157110	-0.736251	0.099782	-0.650611
23697		9.678981	0.930555	-1.115508	0.005542	-0.000191	-0.002011	-0.721191	-0.229004	0.514648	-0.157078	-0.736205	0.099762	-0.650673
23698		9.735447	0.971212	-1.054695	0.012414	-0.002402	-0.003278	-0.719727	-0.228271	0.510010	-0.156918	-0.736209	0.099665	-0.650722
23699		9.726725	1.007891	-1.013746	-0.001705	0.000534	0.004314	-0.708984	-0.228760	0.517334	-0.156872	-0.736112	0.099778	-0.650826
23700		9.696510	0.977207	-1.009474	0.002444	0.002688	0.004748	-0.725586	-0.224365	0.517578	-0.156738	-0.736168	0.099774	-0.650796
23701		9.666145	0.966656	-1.050460	-0.007891	0.002868	0.003748	-0.725830	-0.229004	0.512695	-0.156575	-0.736089	0.099859	-0.650912
23702		9.677623	0.945863	-1.083520	-0.003670	0.000021	0.010654	-0.717773	-0.229736	0.515137	-0.156489	-0.735973	0.100048	-0.651034
23703		9.694350	1.009183	-1.067881	0.003999	-0.004809	0.009620	-0.721436	-0.232178	0.520020	-0.156340	-0.736000	0.100135	-0.651025
23704		9.683307	1.041943	-0.995083	0.003514	0.000035	-0.000395	-0.716309	-0.224365	0.511719	-0.156288	-0.736023	0.100105	-0.651017
23705		9.696595	0.999532	-0.974037	-0.010824	0.001851	-0.005920	-0.716309	-0.229736	0.517334	-0.156334	-0.735966	0.100157	-0.651063
23706		9.707675	0.932066	-1.040916	-0.018253	0.002883	-0.001286	-0.716797	-0.224609	0.517090	-0.156473	-0.735935	0.100286	-0.651044
23707		9.691661	0.873775	-1.097225	-0.003022	0.001473	0.000221	-0.712646	-0.231445	0.516113	-0.156331	-0.735946	0.100283	-0.651067
23708		9.686787	0.902499	-1.038931	0.009983	-0.003840	-0.000641	-0.718994	-0.229492	0.520996	-0.156253	-0.736036	0.100212	-0.650995
23709		9.719801	0.964321	-0.996179	0.004828	-0.003661	0.000878	-0.720459	-0.232178	0.520996	-0.156101	-0.736120	0.100160	-0.650944
23710		9.707042	0.959996	-1.006908	0.000207	0.000287	-0.002185	-0.718262	-0.227295	0.514648	-0.156084	-0.736151	0.100126	-0.650918
23711		9.690284	0.915018	-1.068478	0.003555	0.002299	-0.004803	-0.733154	-0.225098	0.514160	-0.156031	-0.736128	0.100072	-0.650965
23712		9.676866	0.924184	-1.083596	0.003745	-0.002264	-0.001364	-0.718750	-0.227295	0.513428	-0.155882	-0.736035	0.100089	-0.651103
23713		9.702329	0.913122	-1.018392	0.002902	-0.004669	-0.000008	-0.716797	-0.227051	0.509033	-0.155807	-0.736049	0.100111	-0.651102
23714		9.702274	0.947581	-1.024732	-0.001990	-0.000686	0.002304	-0.721191	-0.230957	0.520508	-0.155816	-0.735984	0.100223	-0.651156
23715		9.724248	0.971877	-1.062511	-0.000944	-0.000751	-0.004057	-0.717529	-0.224609	0.511475	-0.155812	-0.736017	0.100187	-0.651125
23716		9.703322	0.992658	-1.027226	-0.004811	-0.004441	-0.005300	-0.716309	-0.235840	0.519287	-0.155819	-0.736012	0.100224	-0.651123
23717		9.680329	0.933461	-1.029131	-0.006423	-0.000881	-0.005235	-0.720215	-0.226562	0.514893	-0.156003	-0.736050	0.100246	-0.651033
23718		9.698545	0.912335	-1.032751	-0.015183	-0.000588	-0.004165	-0.716553	-0.229004	0.517090	-0.156094	-0.736007	0.100353	-0.651044
23719		9.672861	0.855650	-1.087534	-0.006657	-0.001337	-0.007086	-0.714355	-0.226807	0.516602	-0.156161	-0.736034	0.100349	-0.650998
23720		9.716975	0.900262	-1.077866	0.014506	-0.002948	-0.008089	-0.723389	-0.229248	0.517578	-0.155997	-0.736128	0.100157	-0.650960
23721		9.730198	0.942641	-1.029701	0.005823	-0.004482	-0.005643	-0.719971	-0.229980	0.511230	-0.155922	-0.736162	0.100083	-0.650951
23722		9.707833	0.939579	-1.038414	0.005308	-0.000646	-0.003864	-0.721680	-0.229980	0.527588	-0.155937	-0.736119	0.100076	-0.650997
23723		9.683638	0.940671	-1.054683	0.002610	0.004309	-0.006040	-0.718994	-0.234375	0.518799	-0.155821	-0.736182	0.099927	-0.650976
23724		9.660523	0.936417	-1.106891	0.012323	0.000935	-0.009221	-0.721191	-0.227783	0.518555	-0.155821	-0.736222	0.099756	-0.650957
23725		9.667284	0.969646	-1.083500	0.020951	-0.004216	-0.009548	-0.713379	-0.231934	0.521240	-0.155609	-0.736311	0.099510	-0.650945
23726		9.702577	1.016806	-1.027495	0.018185	-0.001693	-0.011353	-0.718262	-0.226807	0.518799	-0.155511	-0.736443	0.099244	-0.650860
23727		9.711328	1.011867	-0.989322	0.003238	0.000914	-0.010848	-0.723877	-0.229980	0.513428	-0.155473	-0.736472	0.099117	-0.650856
23728		9.693426	0.973975	-1.014384	-0.009808	0.003938	-0.005581	-0.716309	-0.220947	0.516602	-0.155621	-0.736357	0.099196	-0.650938
23729		9.698877	0.934022	-1.067522	-0.008426	-0.000075	-0.007495	-0.720459	-0.224609	0.515381	-0.155575	-0.736365	0.099193	-0.650941
23730		9.693041	0.928294	-1.048301	-0.000700	-0.004129	-0.008370	-0.717529	-0.220703	0.523682	-0.155534	-0.736383	0.099154	-0.650936
23731		9.680230	0.940662	-1.019144	0.002114	0.000050	-0.008682	-0.710449	-0.234375	0.518311	-0.155318	-0.736471	0.098994	-0.650912
23732		9.702748	0.968924	-1.012129	-0.004759	-0.000504	-0.010233	-0.718506	-0.229492	0.513672	-0.155493	-0.736531	0.098938	-0.650811
23733		9.703792	0.930573	-1.042321	-0.007510	0.000507	-0.007474	-0.718262	-0.229736	0.514648	-0.155626	-0.736485	0.098980	-0.650825
23734		9.701254	0.879624	-1.044530	0.005115	-0.002006	-0.005025	-0.715088	-0.231201	0.524170	-0.155607	-0.736493	0.098937	-0.650827
23735		9.702625	0.931453	-1.087771	0.007672	-0.001631	-0.006128	-0.719727	-0.224609	0.522217	-0.155502	-0.736608	0.098777	-0.650746
23736		9.665608	0.977364	-1.081213	0.009237	-0.003192	-0.003533	-0.711426	-0.230957	0.519775	-0.155264	-0.736693	0.098649	-0.650726
23737		9.736193	1.024017	-1.087200	0.011611	0.000242	-0.003511	-0.721924	-0.228271	0.512695	-0.155156	-0.736774	0.098509	-0.650682
23738		9.707152	1.019152	-1.039856	0.007489	-0.001325	-0.007820	-0.715576	-0.218994	0.512207	-0.155145	-0.736741	0.098449	-0.650731
23739		9.651913	1.003683	-1.057376	0.004412	0.002133	-0.004942	-0.715332	-0.227295	0.523926	-0.155003	-0.736708	0.098414	-0.650807
23740		9.647989	1.012531	-1.074154	-0.008451	0.002080	-0.000800	-0.712402	-0.227539	0.511963	-0.154956	-0.736748	0.098422	-0.650772
23741		9.721826	0.937969	-1.048413	-0.014379	-0.000485	-0.001113	-0.710205	-0.229736	0.527344	-0.155109	-0.736706	0.098593	-0.650757
23742		9.735839	0.901933	-1.068067	0.003808	0.002937	0.001082	-0.722900	-0.235107	0.517822	-0.154939	-0.736818	0.098479	-0.650688
23743		9.730911	0.915421	-1.048825	-0.004870	0.001380	0.003527	-0.714111	-0.231689	0.521973	-0.155002	-0.736763	0.098573	-0.650721
23744		9.670239	0.924280	-1.052095	0.007043	0.001336	0.006590	-0.719482	-0.226562	0.519775	-0.154844	-0.736815	0.098548	-0.650704
23745		9.682208	0.975332	-1.052111	0.012180	0.002682	0.000507	-0.721680	-0.229004	0.520020	-0.154634	-0.736826	0.098451	-0.650755
23746		9.681000	0.966535	-1.055519	0.006429	0.002993	-0.003209	-0.724121	-0.229736	0.524170	-0.154543	-0.736818	0.098367	-0.650800
23747		9.685531	0.930941	-1.072685	0.014696	0.003973	-0.001284	-0.725586	-0.222412	0.515381	-0.154323	-0.736838	0.098195	-0.650855
23748		9.713343	0.957863	-1.044828	0.028677	-0.002705	-0.004774	-0.720703	-0.222412	0.519287	-0.153994	-0.736862	0.097983	-0.650938
23749		9.707138	0.993403	-0.950856	0.012874	0.001732	-0.004668	-0.713379	-0.225098	0.514404	-0.153786	-0.736877	0.097847	-0.650990
23750		9.706342	0.992000	-0.994876	-0.008298	0.004358	-0.000333	-0.719727	-0.223389	0.519043	-0.153848	-0.736821	0.097952	-0.651023
23751		9.691865	0.941873	-1.047052	-0.009003	0.000888	0.002561	-0.725586	-0.228027	0.516846	-0.153801	-0.736796	0.098058	-0.651046
23752		9.668641	0.893767	-1.053081	0.004897	-0.001210	0.000510	-0.719727	-0.234131	0.523926	-0.153721	-0.736768	0.098062	-0.651096
23753		9.690224	0.925424	-1.010188	0.005050	0.001075	0.000983	-0.710938	-0.221436	0.517822	-0.153649	-0.736810	0.097983	-0.651078
23754		9.724093	0.966467	-1.043066	-0.001336	-0.005590	0.002067	-0.727783	-0.228027	0.514404	-0.153536	-0.736888	0.098040	-0.651007
23755		9.722084	0.970520	-1.052275	-0.002391	0.000825	-0.001771	-0.713379	-0.232666	0.517822	-0.153573	-0.736800	0.098105	-0.651089
23756		9.688009	0.964252	-1.025584	-0.008125	-0.000373	-0.000922	-0.716553	-0.223633	0.516846	-0.153700	-0.736811	0.098173	-0.651036
23757		9.677836	0.928231	-1.062285	-0.012036	-0.002079	0.000496	-0.717773	-0.226807	0.512695	-0.153734	-0.736804	0.098310	-0.651015
23758		9.668292	0.929192	-1.059966	-0.009264	0.000262	-0.003322	-0.719238	-0.222412	0.517334	-0.153858	-0.736749	0.098419	-0.651032
23759		9.773128	0.948127	-1.085995	-0.003359	-0.000518	-0.001947	-0.717041	-0.228271	0.510254	-0.153804	-0.736742	0.098455	-0.651047
23760		9.725702	0.965176	-1.035034	-0.009633	-0.003984	-0.001080	-0.728027	-0.229980	0.517578	-0.153952	-0.736703	0.098615	-0.651032
23761		9.653366	0.903350	-0.992242	-0.019472	0.004864	0.002847	-0.714600	-0.231201	0.518066	-0.154094	-0.736573	0.098816	-0.651114
23762		9.664504	0.904550	-1.070300	-0.021150	0.000478	-0.002350	-0.717773	-0.222900	0.518799	-0.154324	-0.736553	0.098983	-0.651058
23763		9.683507	0.870968	-1.068913	-0.006928	-0.000891	-0.009621	-0.721680	-0.225830	0.513184	-0.154350	-0.736575	0.098962	-0.651030
23764		9.734718	0.862786	-1.062937	0.018701	0.002773	-0.004672	-0.712402	-0.229736	0.514160	-0.154186	-0.736547	0.098816	-0.651123
23765		9.746869	0.861094	-1.012075	0.009108	-0.002120	-0.005064	-0.718018	-0.234863	0.516357	-0.154175	-0.736591	0.098749	-0.651086
23766		9.678266	0.902531	-1.010669	0.016945	0.002542	-0.000518	-0.722412	-0.223633	0.518066	-0.154099	-0.736593	0.098641	-0.651118
23767		9.700094	0.976073	-1.014066	0.010113	0.001067	-0.001381	-0.725586	-0.229736	0.519531	-0.153915	-0.736593	0.098561	-0.651173
23768		9.670808	0.975530	-1.051718	-0.000701	0.001382	-0.002735	-0.725586	-0.227295	0.515625	-0.153908	-0.736565	0.098550	-0.651209
23769		9.691051	0.950717	-1.046594	0.002656	-0.000428	-0.011513	-0.720215	-0.228027	0.517334	-0.153939	-0.736542	0.098457	-0.651242
23770		9.702003	0.983794	-1.046187	0.016760	0.000527	-0.012934	-0.720947	-0.232422	0.523193	-0.153860	-0.736576	0.098227	-0.651255
23771		9.706544	0.930948	-1.018367	0.007819	0.001092	-0.013560	-0.725830	-0.225830	0.520752	-0.153878	-0.736627	0.098028	-0.651224
23772		9.726247	0.885195	-1.012144	-0.011023	0.000443	-0.007081	-0.718018	-0.232178	0.505615	-0.153938	-0.736601	0.098054	-0.651235
23773		9.705908	0.878146	-1.011658	-0.003855	-0.003704	-0.001240	-0.718750	-0.222168	0.513916	-0.154098	-0.736539	0.098185	-0.651247
23774		9.699204	0.903553	-1.043149	0.002406	-0.001904	-0.001576	-0.723633	-0.219238	0.518066	-0.154005	-0.736537	0.098195	-0.651271
23775		9.695010	0.962013	-1.026801	-0.000220	-0.001537	-0.005195	-0.715820	-0.224121	0.515869	-0.153885	-0.736541	0.098161	-0.651300
23776		9.682090	0.959235	-1.037708	0.004509	-0.003517	-0.009723	-0.720215	-0.224121	0.516602	-0.153859	-0.736591	0.098077	-0.651262
23777		9.710260	0.960664	-1.045133	0.001879	-0.000396	-0.010527	-0.725342	-0.221680	0.513916	-0.153852	-0.736597	0.097993	-0.651270
23778		9.698770	0.932748	-1.046213	0.000039	-0.003236	-0.010035	-0.713623	-0.230469	0.516113	-0.153830	-0.736582	0.097943	-0.651299
23779		9.700892	0.953683	-1.038628	-0.003957	0.001737	-0.015619	-0.723633	-0.222900	0.515869	-0.154025	-0.736587	0.097875	-0.651257
23780		9.670889	0.949272	-1.035333	-0.004169	-0.000228	-0.012904	-0.721680	-0.234375	0.512695	-0.154067	-0.736565	0.097815	-0.651282
23781		9.758162	0.895628	-1.081906	-0.000306	-0.004132	-0.008854	-0.717285	-0.225830	0.516357	-0.154216	-0.736558	0.097813	-0.651255
23782		9.717967	0.918335	-1.042341	-0.005530	-0.003233	-0.012057	-0.720215	-0.232178	0.516357	-0.154307	-0.736585	0.097785	-0.651206
23783		9.673475	0.927208	-1.018280	-0.008760	0.002358	-0.007371	-0.723145	-0.231689	0.509033	-0.154471	-0.736539	0.097827	-0.651213
23784		9.644444	0.950335	-1.056803	-0.011021	-0.002308	-0.009889	-0.716064	-0.228271	0.518066	-0.154704	-0.736469	0.097908	-0.651225
23785		9.681474	0.874268	-1.058616	-0.004251	-0.001139	-0.017092	-0.719482	-0.235840	0.510498	-0.154841	-0.736505	0.097817	-0.651165
23786		9.716341	0.893664	-1.081416	0.010500	0.000446	-0.013126	-0.715576	-0.230957	0.515381	-0.154952	-0.736482	0.097695	-0.651183
23787		9.761977	0.950852	-1.023137	0.004051	-0.002730	-0.013949	-0.715576	-0.228271	0.519531	-0.155036	-0.736525	0.097594	-0.651129
23788		9.693251	0.959938	-1.016040	0.008815	0.001565	-0.012691	-0.725098	-0.228027	0.515381	-0.155008	-0.736569	0.097430	-0.651111
23789		9.679511	0.971323	-1.031022	0.004633	0.000306	-0.013809	-0.715088	-0.226074	0.523193	-0.155012	-0.736551	0.097289	-0.651151
23790		9.682325	0.964478	-1.058525	-0.000617	-0.001074	-0.012606	-0.724121	-0.224121	0.517090	-0.155015	-0.736624	0.097186	-0.651084
23791		9.678013	0.975532	-1.076326	0.007318	-0.002045	-0.012847	-0.716553	-0.227783	0.514893	-0.154925	-0.736646	0.097020	-0.651105
23792		9.704902	1.040259	-1.054660	0.015117	-0.001945	-0.014621	-0.726562	-0.227295	0.521484	-0.154866	-0.736698	0.096810	-0.651092
23793		9.700539	1.025313	-0.986035	-0.000834	-0.000924	-0.018327	-0.723389	-0.230713	0.515625	-0.154905	-0.736717	0.096644	-0.651086
23794		9.691047	0.980167	-1.017749	-0.007530	0.000933	-0.015372	-0.716797	-0.221436	0.511719	-0.155074	-0.736677	0.096598	-0.651097
23795		9.718819	0.946235	-1.063304	-0.005429	-0.000029	-0.012266	-0.723877	-0.230713	0.527100	-0.155119	-0.736652	0.096567	-0.651119
23796		9.686492	0.923427	-1.068362	0.002363	-0.003274	-0.012979	-0.709229	-0.234863	0.518799	-0.155086	-0.736736	0.096408	-0.651056
23797		9.686020	0.997483	-1.036057	0.003647	-0.003302	-0.009578	-0.715332	-0.228271	0.516113	-0.155167	-0.736818	0.096348	-0.650953
23798		9.686362	1.043552	-1.038840	-0.000965	-0.003643	-0.010892	-0.715820	-0.224121	0.525391	-0.155217	-0.736857	0.096303	-0.650904
23799		9.699950	0.989111	-1.058093	-0.008107	0.001256	-0.016567	-0.715820	-0.231445	0.521240	-0.155269	-0.736906	0.096194	-0.650851
23800		9.672724	0.968578	-1.041238	-0.002322	0.000504	-0.020070	-0.714355	-0.228271	0.523682	-0.155408	-0.736948	0.096044	-0.650793
23801		9.690065	0.949166	-1.089737	0.006047	-0.001374	-0.020115	-0.718994	-0.232910	0.518799	-0.155415	-0.737042	0.095810	-0.650719
23802		9.707141	0.936854	-1.057544	0.003279	0.000679	-0.014018	-0.714111	-0.229736	0.514404	-0.155471	-0.737056	0.095681	-0.650709
23803		9.745395	0.982582	-1.068706	0.003510	-0.000544	-0.011639	-0.717285	-0.228516	0.518311	-0.155513	-0.737069	0.095602	-0.650696
23804		9.701054	1.013307	-1.046094	0.007702	-0.002014	-0.013332	-0.719482	-0.230713	0.517822	-0.155477	-0.737117	0.095448	-0.650673
23805		9.669117	1.012067	-1.051832	0.004856	0.002474	-0.012484	-0.719482	-0.232666	0.518066	-0.155487	-0.737109	0.095320	-0.650699
23806		9.672876	0.992586	-1.073815	-0.002680	0.002349	-0.016075	-0.715576	-0.237549	0.513184	-0.155615	-0.737092	0.095221	-0.650701
23807		9.669687	0.935381	-1.079102	0.015081	0.003006	-0.020233	-0.720215	-0.236084	0.524170	-0.155710	-0.737093	0.094980	-0.650713
23808		9.703676	1.005185	-1.067729	0.024117	0.000672	-0.018231	-0.723145	-0.229736	0.512695	-0.155598	-0.737178	0.094620	-0.650695
23809		9.723335	1.031572	-1.029243	0.005429	-0.002864	-0.009689	-0.712646	-0.228027	0.524414	-0.155579	-0.737168	0.094543	-0.650723
23810		9.712372	1.040190	-0.991095	0.008983	0.003001	-0.011522	-0.720215	-0.234375	0.508301	-0.155490	-0.737226	0.094362	-0.650704
23811		9.683946	1.050534	-1.024767	0.005147	0.000955	-0.013286	-0.720459	-0.235840	0.516602	-0.155597	-0.737170	0.094284	-0.650754
23812		9.674310	1.038528	-1.061741	-0.001848	0.004308	-0.009532	-0.718750	-0.229248	0.526855	-0.155702	-0.737117	0.094248	-0.650794
23813		9.674132	1.040371	-1.061564	0.002337	-0.002792	-0.005756	-0.712402	-0.231934	0.516357	-0.155600	-0.737195	0.094168	-0.650741
23814		9.695038	1.073861	-1.019512	0.005990	-0.003785	-0.004617	-0.716309	-0.229248	0.523193	-0.155566	-0.737246	0.094137	-0.650696
23815		9.706132	1.049224	-1.012504	-0.008296	0.000486	-0.006481	-0.717041	-0.229004	0.516357	-0.155604	-0.737262	0.094153	-0.650666
23816		9.688920	1.010930	-1.037192	-0.014986	0.004594	-0.007934	-0.716797	-0.228027	0.518799	-0.155755	-0.737192	0.094233	-0.650699
23817		9.683455	0.975665	-1.096887	-0.003465	-0.003270	-0.009624	-0.714355	-0.238525	0.518555	-0.155776	-0.737227	0.094203	-0.650659
23818		9.700434	0.954627	-1.024214	0.007487	-0.001221	-0.007803	-0.710693	-0.238525	0.517090	-0.155801	-0.737267	0.094119	-0.650619
23819		9.702649	0.995945	-1.017923	0.005753	-0.000878	-0.007527	-0.718018	-0.236572	0.518799	-0.155861	-0.737303	0.094068	-0.650571
23820		9.697543	1.017810	-1.040670	0.005496	-0.002553	-0.001632	-0.714355	-0.233643	0.525391	-0.155820	-0.737331	0.094052	-0.650552
23821		9.682953	1.039524	-1.061336	0.007335	-0.002436	-0.004933	-0.718506	-0.235596	0.520508	-0.155737	-0.737415	0.093968	-0.650489
23822		9.684771	1.036824	-1.053245	0.000943	-0.001538	-0.006659	-0.723389	-0.240479	0.514893	-0.155760	-0.737438	0.093932	-0.650462
23823		9.675069	1.038733	-1.051207	0.000414	-0.000459	-0.007701	-0.715332	-0.233154	0.509521	-0.155854	-0.737404	0.093903	-0.650482
23824		9.690536	1.013550	-1.067242	-0.002235	0.000968	-0.007975	-0.713135	-0.237793	0.522461	-0.155960	-0.737353	0.093922	-0.650512
23825		9.734674	1.009525	-1.091189	0.003153	-0.000363	-0.007113	-0.713623	-0.229248	0.518066	-0.156000	-0.737399	0.093876	-0.650457
23826		9.697708	1.057283	-1.039643	0.001610	-0.002009	-0.004615	-0.716309	-0.227539	0.519775	-0.155964	-0.737429	0.093869	-0.650432
23827		9.660519	1.046520	-1.025619	-0.008253	0.001243	-0.006322	-0.718018	-0.234131	0.523682	-0.156004	-0.737416	0.093905	-0.650432
23828		9.687747	1.002180	-1.074143	-0.017885	0.004947	-0.006181	-0.716064	-0.230469	0.514648	-0.156175	-0.737368	0.094005	-0.650432
23829		9.673952	0.953526	-1.125838	-0.006292	0.003033	-0.005282	-0.719727	-0.231689	0.515869	-0.156239	-0.737317	0.094052	-0.650467
23830		9.702475	0.990568	-1.093022	0.006148	0.003685	-0.001714	-0.718994	-0.233887	0.525635	-0.156152	-0.737276	0.094019	-0.650539
23831		9.733842	1.024764	-1.007381	-0.000338	-0.000909	0.001179	-0.720215	-0.232666	0.519287	-0.156077	-0.737310	0.094047	-0.650514
23832		9.712953	1.028429	-1.011044	0.001554	0.004532	0.004338	-0.720703	-0.233154	0.509277	-0.155980	-0.737263	0.094096	-0.650584
23833		9.667070	1.044534	-1.035561	-0.002902	0.003716	0.000687	-0.715088	-0.224609	0.513672	-0.156003	-0.737164	0.094184	-0.650678
23834		9.664350	1.046824	-1.087797	-0.000586	0.005349	-0.002792	-0.715576	-0.233887	0.517578	-0.155952	-0.737106	0.094200	-0.650754
23835		9.664386	1.047011	-1.087302	0.013754	0.000175	-0.000240	-0.718750	-0.238770	0.518311	-0.155813	-0.737131	0.094134	-0.650768
23836		9.715695	1.052869	-1.042171	0.014873	-0.002283	-0.001338	-0.719238	-0.236328	0.514893	-0.155704	-0.737172	0.094055	-0.650759
23837		9.700404	1.038774	-0.979346	0.001489	0.004241	-0.003717	-0.718750	-0.236572	0.522461	-0.155738	-0.737117	0.094056	-0.650813
23838		9.689108	1.028147	-1.024734	-0.005791	0.002400	0.002965	-0.717773	-0.236084	0.520996	-0.155755	-0.737097	0.094160	-0.650817
23839		9.707142	1.017485	-1.033169	0.002717	-0.002809	0.008861	-0.716309	-0.237549	0.512451	-0.155644	-0.737124	0.094265	-0.650798
23840		9.694372	1.004144	-1.002798	-0.000697	0.000923	0.005166	-0.716064	-0.231689	0.514160	-0.155653	-0.737079	0.094387	-0.650828
23841		9.709249	0.988699	-1.023921	-0.002560	-0.002696	0.005503	-0.718506	-0.229736	0.523682	-0.155612	-0.737071	0.094521	-0.650828
23842		9.691534	0.981902	-1.056115	0.005191	-0.003310	0.003577	-0.718018	-0.232422	0.517822	-0.155458	-0.737126	0.094543	-0.650800
23843		9.696690	0.981981	-1.035559	0.006005	-0.000888	0.002219	-0.715088	-0.228271	0.520996	-0.155358	-0.737135	0.094562	-0.650810
23844		9.682975	0.967735	-1.050209	0.009814	-0.002335	0.001021	-0.716064	-0.234375	0.515381	-0.155197	-0.737189	0.094537	-0.650791
23845		9.695965	1.015163	-1.042790	0.007588	-0.002444	0.004814	-0.726807	-0.232910	0.510742	-0.155098	-0.737204	0.094586	-0.650791
23846		9.685574	1.027002	-1.046406	0.005194	-0.004984	0.004110	-0.716064	-0.227783	0.516846	-0.154983	-0.737182	0.094628	-0.650837
23847		9.679012	1.009601	-1.031355	-0.000338	-0.000908	0.001180	-0.723145	-0.229492	0.521484	-0.154927	-0.737181	0.094690	-0.650842
23848		9.760367	1.029974	-1.029464	-0.007625	0.000611	0.006799	-0.718018	-0.226074	0.522461	-0.154869	-0.737149	0.094833	-0.650872
23849		9.675830	0.957683	-1.041972	-0.016445	-0.004541	0.016514	-0.714600	-0.230225	0.517822	-0.154794	-0.737150	0.095153	-0.650841
23850		9.659533	0.971582	-1.029397	-0.023371	0.003074	0.023388	-0.719482	-0.228027	0.514648	-0.154805	-0.737054	0.095609	-0.650881
23851		9.700706	0.927948	-1.023112	-0.023481	0.000348	0.015711	-0.713379	-0.223389	0.518311	-0.154850	-0.736962	0.095989	-0.650918
23852		9.669613	0.968037	-1.114925	0.013750	0.009742	0.019579	-0.721436	-0.224609	0.522217	-0.154500	-0.736898	0.096082	-0.651060
23853		9.686469	0.991635	-0.844797	-0.018309	-0.038906	0.030291	-0.717773	-0.225342	0.516113	-0.154274	-0.737152	0.096600	-0.650750
23854		10.081222	0.814556	-0.828074	-0.051015	-0.056549	0.037476	-0.719482	-0.223389	0.524170	-0.154317	-0.737453	0.097515	-0.650261
23855		9.635659	0.722614	-1.090904	-0.086809	-0.041003	0.076151	-0.715332	-0.229492	0.516357	-0.154343	-0.737540	0.099015	-0.649930
23856		9.443176	0.969422	-1.541155	0.069668	-0.048018	0.033006	-0.712891	-0.230957	0.517334	-0.153371	-0.738009	0.098911	-0.649644
23857		9.568500	1.176323	-1.145348	0.066841	-0.060352	-0.005318	-0.717285	-0.224609	0.518311	-0.152757	-0.738623	0.098516	-0.649150
23858		9.681739	1.095326	-0.845442	0.038561	0.003445	-0.031884	-0.723877	-0.226562	0.517822	-0.152629	-0.738683	0.097954	-0.649197
23859		9.681438	1.002185	-1.157818	-0.015387	-0.010169	-0.039895	-0.717285	-0.228271	0.519775	-0.153043	-0.738738	0.097767	-0.649065
23860		9.744382	0.939145	-1.136491	-0.037178	0.026707	-0.010750	-0.713867	-0.224854	0.519287	-0.153492	-0.738442	0.097971	-0.649265
23861		9.766869	0.841210	-0.825369	-0.098975	0.048299	0.001250	-0.724365	-0.229980	0.521973	-0.154416	-0.737850	0.098744	-0.649602
23862		9.702436	0.721261	-0.986638	-0.079815	0.031636	0.014516	-0.722656	-0.235596	0.515625	-0.155020	-0.737404	0.099489	-0.649851
23863		9.652338	0.759861	-1.356063	0.009838	0.017661	0.024888	-0.719238	-0.230957	0.514404	-0.154768	-0.737211	0.099666	-0.650103
23864		9.655800	0.815960	-1.349295	0.066173	-0.005190	0.008400	-0.707520	-0.227295	0.516357	-0.154083	-0.737341	0.099281	-0.650177
23865		9.717490	0.874198	-0.941218	0.065970	0.000198	-0.009981	-0.718262	-0.223877	0.519043	-0.153575	-0.737488	0.098747	-0.650212
23866		9.766966	0.985683	-0.790877	0.033194	0.012438	-0.005261	-0.713379	-0.229248	0.515137	-0.153268	-0.737449	0.098446	-0.650374
23867		9.726231	0.999612	-1.080193	-0.003188	0.013015	0.002714	-0.720947	-0.228760	0.524414	-0.153321	-0.737320	0.098562	-0.650491
23868		9.687472	0.891893	-1.184402	-0.020028	0.011897	-0.011544	-0.722168	-0.225098	0.514404	-0.153583	-0.737207	0.098641	-0.650544
23869		9.652391	0.816625	-1.111448	0.002224	0.008474	-0.021566	-0.723389	-0.229492	0.520020	-0.153697	-0.737135	0.098447	-0.650629
23870		9.747166	0.949409	-1.062761	0.035762	0.000685	-0.024958	-0.722656	-0.224121	0.518311	-0.153542	-0.737215	0.097969	-0.650647
23871		9.725936	0.980649	-1.067893	0.017134	0.003565	-0.021704	-0.726562	-0.229980	0.514404	-0.153491	-0.737227	0.097651	-0.650693
23872		9.639344	0.914021	-1.001679	-0.003110	0.011186	-0.011028	-0.716797	-0.235840	0.524902	-0.153599	-0.737096	0.097597	-0.650824
23873		9.697458	0.830995	-1.042316	-0.016564	-0.000537	-0.008389	-0.724365	-0.222656	0.516846	-0.153864	-0.737101	0.097743	-0.650734
23874		9.715316	0.846289	-1.051600	-0.013380	-0.000757	-0.011477	-0.725586	-0.230713	0.515869	-0.153982	-0.737069	0.097762	-0.650739
23875		9.716528	0.865378	-1.087595	0.005271	0.008267	-0.014413	-0.716797	-0.229004	0.515381	-0.154035	-0.736993	0.097616	-0.650835
23876		9.716191	0.846214	-1.085475	0.006612	0.002296	-0.008733	-0.718018	-0.220459	0.512207	-0.154044	-0.736983	0.097551	-0.650854
23877		9.683013	0.857059	-0.974419	0.020405	-0.000753	-0.003895	-0.716309	-0.227295	0.522461	-0.153803	-0.737006	0.097386	-0.650910
23878		9.701309	0.905730	-0.945174	0.017532	0.002507	0.004694	-0.718994	-0.228516	0.515137	-0.153574	-0.737030	0.097341	-0.650943
23879		9.726993	0.911481	-0.924064	0.003375	0.005100	0.023356	-0.726074	-0.224121	0.513672	-0.153350	-0.736944	0.097588	-0.651055
23880		9.671950	0.797543	-0.937295	0.011954	-0.002537	0.049611	-0.712646	-0.224365	0.520996	-0.152759	-0.736885	0.097978	-0.651203
23881		9.621101	0.594912	-0.845163	0.029236	0.001904	0.108531	-0.722900	-0.225586	0.516357	-0.151590	-0.736812	0.098812	-0.651433
23882		9.876539	0.452513	-0.701459	-0.041396	-0.013230	0.186477	-0.724609	-0.221436	0.519287	-0.150424	-0.736583	0.100956	-0.651633
23883		9.820221	0.190710	-0.998739	-0.095479	-0.030204	0.255875	-0.725098	-0.214600	0.526123	-0.149146	-0.736308	0.104200	-0.651727
23884		9.731582	-0.327463	-1.006287	-0.064499	-0.010059	0.333142	-0.720947	-0.210938	0.517334	-0.146934	-0.735844	0.107847	-0.652160
23885		9.560387	-0.802201	-1.286217	-0.040884	-0.022950	0.450056	-0.720459	-0.199463	0.514893	-0.143591	-0.735329	0.112448	-0.652708
23886		9.822354	-1.326200	-1.185763	0.068102	-0.092724	0.589429	-0.724365	-0.192627	0.520996	-0.137987	-0.735345	0.117568	-0.652997
23887		9.411496	-2.049533	-1.065140	0.106770	-0.073124	0.804276	-0.734131	-0.180420	0.520752	-0.130325	-0.734900	0.124330	-0.653819
23888		8.937037	-2.571782	-1.012367	0.227296	0.007883	1.048296	-0.732910	-0.150879	0.524902	-0.119685	-0.733475	0.132206	-0.655905
23889		7.849960	-3.138513	-1.645468	0.505295	0.059525	1.292117	-0.738037	-0.113037	0.522949	-0.104506	-0.731487	0.139941	-0.659107
23890		7.791834	-2.661816	-0.670975	0.567718	0.247601	1.488739	-0.751465	-0.090088	0.519287	-0.087359	-0.727414	0.148648	-0.664185
23891		6.861992	-2.215960	-0.474256	0.095274	0.408455	1.647187	-0.754883	-0.053955	0.516113	-0.073565	-0.720854	0.162523	-0.669735
23892		5.233685	-1.590626	-0.041917	0.263614	0.620056	1.967925	-0.777344	-0.014160	0.497559	-0.055942	-0.711637	0.177625	-0.677416
23893		6.609885	2.354111	1.730379	0.189517	0.299519	1.983086	-0.769531	0.038086	0.498291	-0.038055	-0.704526	0.193481	-0.681733
23894		9.499084	-1.173677	-5.145412	-0.817977	0.416176	1.246542	-0.779053	0.053955	0.483887	-0.035482	-0.697414	0.211306	-0.683889
23895		11.373406	-5.981759	-3.477336	0.324290	0.071453	1.056772	-0.772949	0.084961	0.486816	-0.023596	-0.694026	0.217704	-0.685840
23896		8.324066	-3.250558	0.379684	0.998942	0.021848	1.222794	-0.779053	0.106934	0.492188	-0.004251	-0.690622	0.219794	-0.688995
23897		12.544147	2.162059	-0.383027	0.681453	0.406100	0.918227	-0.779541	0.132080	0.484131	0.008508	-0.684527	0.221966	-0.694321
23898		16.463966	-0.285341	-0.003638	0.118780	0.117219	-0.069244	-0.778076	0.128662	0.468506	0.008665	-0.683673	0.220519	-0.695620
23899		16.245413	-4.421201	-0.195939	0.162484	-0.064457	-0.161651	-0.782227	0.134277	0.479980	0.008892	-0.684615	0.217731	-0.695569
23900		18.732135	0.220017	0.477206	0.048578	0.021758	-0.695431	-0.778076	0.125000	0.474609	0.003325	-0.686271	0.211438	-0.695927
23901		24.014054	-0.382934	-0.588839	-0.066417	-0.029555	-1.566393	-0.782471	0.093018	0.479492	-0.010634	-0.690517	0.198601	-0.695436
23902		24.500563	2.656557	-1.681701	-0.264479	-0.380188	-2.402992	-0.779297	0.039062	0.479980	-0.032709	-0.699430	0.180199	-0.690837
23903		20.661110	-1.438627	0.799300	-0.331000	-0.565134	-2.965886	-0.774414	-0.030273	0.495850	-0.059780	-0.710341	0.157167	-0.683476
23904		14.797425	-5.655011	1.896086	-0.492764	-0.362334	-2.501342	-0.770996	-0.077881	0.490234	-0.084723	-0.717635	0.139300	-0.677065
23905		8.953081	-1.537284	-0.170815	-0.825564	-0.145138	-1.861538	-0.756836	-0.136475	0.493652	-0.107426	-0.720929	0.129442	-0.672284
23906		2.020823	-1.576727	-2.698050	-0.945466	-0.296847	-1.316181	-0.750977	-0.157715	0.493896	-0.126517	-0.724107	0.125744	-0.666221
23907		-0.215877	-3.290779	-3.597429	-0.610952	-0.537731	-0.900818	-0.749512	-0.183594	0.497559	-0.138554	-0.728899	0.123406	-0.659000
23908		1.097449	-6.457364	1.709580	0.340181	0.139329	-0.189456	-0.742432	-0.187988	0.496826	-0.137057	-0.728519	0.118386	-0.660652
23909		0.388445	-2.433580	0.406946	0.701903	-0.211946	0.267588	-0.742920	-0.173096	0.502686	-0.128089	-0.730966	0.115282	-0.660297
23910		0.283930	2.113054	-0.342356	0.058578	-0.003049	0.282392	-0.739258	-0.162598	0.499512	-0.125158	-0.730584	0.117273	-0.660931
23911		0.291347	0.495998	-0.721885	-0.068062	-0.052892	0.436040	-0.747559	-0.160400	0.497070	-0.122031	-0.730173	0.121821	-0.661147
23912		-0.320801	-1.139760	-0.466346	0.044007	-0.022982	0.364485	-0.742676	-0.146973	0.503662	-0.118531	-0.729740	0.124607	-0.661742
23913		0.075006	-1.128871	-0.409774	0.385344	0.033056	0.411158	-0.749512	-0.139648	0.497803	-0.111579	-0.729306	0.125076	-0.663339
23914		0.420345	-0.864603	0.297008	0.209239	0.130672	0.616924	-0.755371	-0.128662	0.513428	-0.104725	-0.727403	0.128617	-0.665865
23915		0.621315	-1.127997	0.767850	-0.025808	0.296601	0.898144	-0.761963	-0.108887	0.496094	-0.097912	-0.723376	0.136597	-0.669688
23916		0.893135	-2.628330	-0.654210	-0.276298	0.544025	1.237426	-0.770264	-0.090576	0.494873	-0.090909	-0.716171	0.149292	-0.675683
23917		10.394845	-5.625942	-0.687786	0.682131	0.779668	2.028261	-0.779297	-0.043213	0.481201	-0.069057	-0.706248	0.160767	-0.686002
23918		22.935179	-0.650227	-0.357796	0.503717	0.504654	1.476639	-0.778564	-0.007080	0.472900	-0.052944	-0.699206	0.169123	-0.692607
23919		32.961385	1.073729	-2.583717	0.335837	0.234776	1.256885	-0.789551	0.027344	0.477051	-0.039628	-0.694629	0.177222	-0.696069
23920		36.910521	1.074618	-0.654110	-0.548415	0.029977	0.267590	-0.787598	0.024414	0.471924	-0.042026	-0.693500	0.184471	-0.695171
23921		32.820183	8.950964	1.856349	-0.828349	-0.014758	-1.299891	-0.791992	-0.013428	0.470215	-0.060374	-0.696070	0.180447	-0.692301
23922		23.589378	1.319728	-1.897208	-1.823707	-0.309024	-2.383295	-0.777832	-0.084961	0.475586	-0.096010	-0.702255	0.175462	-0.683252
23923		12.733770	-6.553006	-0.296361	-1.139766	-0.522712	-2.385048	-0.770264	-0.135986	0.476318	-0.125143	-0.710220	0.164745	-0.672893
23924		4.081756	-1.968584	-2.263608	-1.390915	-0.435181	-1.713113	-0.756348	-0.182617	0.468018	-0.150806	-0.714929	0.161706	-0.663314
23925		-1.611285	-4.758756	-3.873159	-1.427082	-0.417412	-0.875636	-0.750488	-0.218750	0.469482	-0.169810	-0.717216	0.166229	-0.655083
23926		1.732098	-11.838856	1.344044	0.391304	0.031332	0.331548	-0.751221	-0.205078	0.467529	-0.163551	-0.716993	0.165718	-0.657046
23927		0.196829	-1.880459	-2.341730	0.456131	-0.493026	0.606099	-0.755127	-0.193115	0.488281	-0.153371	-0.720555	0.168268	-0.654953
23928		0.017746	3.405623	-0.769079	0.375573	0.074092	0.141279	-0.755127	-0.190186	0.484131	-0.148899	-0.720284	0.166230	-0.656801
23929		0.338624	-1.140084	0.441442	0.111870	-0.068710	0.270231	-0.762451	-0.184326	0.487305	-0.145518	-0.720396	0.167735	-0.657054
23930		0.089037	-1.791023	1.521514	-0.312508	-0.044853	0.392649	-0.751953	-0.175781	0.488525	-0.144974	-0.719254	0.173734	-0.656866
23931		0.106225	-0.625004	0.177591	-0.006834	0.088283	0.551812	-0.760498	-0.162354	0.479004	-0.140643	-0.717242	0.178565	-0.658710
23932		0.157034	0.089952	0.007507	0.016244	0.280697	0.734491	-0.749512	-0.151611	0.480225	-0.135002	-0.713165	0.184379	-0.662702
23933		-0.102184	0.749952	-0.782447	-0.049426	0.514996	0.843866	-0.778076	-0.140381	0.472656	-0.129632	-0.706785	0.191522	-0.668558
23934		2.179637	2.017921	2.044108	0.016602	0.929307	1.133328	-0.787109	-0.118652	0.451660	-0.122197	-0.696148	0.199785	-0.678625
23935		9.597430	-5.546945	-1.268626	-0.631703	0.516764	1.069597	-0.797363	-0.104248	0.446045	-0.119903	-0.687964	0.213564	-0.683169
23936		24.747309	-8.409888	-5.357534	0.547730	0.503250	1.467022	-0.808594	-0.072998	0.442383	-0.103970	-0.680388	0.220714	-0.691048
23937		29.528295	-3.040899	-5.685469	0.184391	-0.217761	1.016835	-0.797607	-0.044678	0.445557	-0.093039	-0.679626	0.228124	-0.690950
23938		33.336250	-3.146654	0.426006	1.224424	-0.483827	0.078699	-0.797607	-0.027344	0.461182	-0.080557	-0.684902	0.218923	-0.690284
23939		31.809705	8.385092	2.223088	-0.045322	-0.620645	-1.677451	-0.789062	-0.063477	0.479004	-0.093643	-0.694639	0.205685	-0.682936
23940		27.053568	-4.106529	1.727135	-0.124617	-0.523293	-2.776983	-0.771973	-0.117188	0.482666	-0.116961	-0.705718	0.183250	-0.674316
23941		17.349386	-6.120559	1.618257	1.037246	-0.144308	-2.580461	-0.765869	-0.150879	0.481689	-0.129094	-0.713966	0.151943	-0.671194
23942		6.864124	-0.740691	-0.321530	0.197714	-0.207376	-1.476499	-0.760254	-0.183594	0.494141	-0.139200	-0.718675	0.137405	-0.667270
23943		-1.606075	-1.528226	-3.365703	-0.743052	-0.336252	-0.391862	-0.748291	-0.199219	0.472656	-0.148502	-0.720828	0.140678	-0.662242
23944		-0.942013	-4.137732	0.331034	-0.110248	-0.008290	0.278496	-0.756348	-0.189209	0.482422	-0.147187	-0.720087	0.143920	-0.662645
23945		0.553387	-3.871484	0.008887	0.887341	-0.020407	0.383048	-0.748779	-0.174072	0.485107	-0.135892	-0.721072	0.139975	-0.664828
23946		0.947324	2.400623	-1.485684	1.061573	-0.046139	0.139507	-0.743408	-0.160889	0.487061	-0.125065	-0.722894	0.132495	-0.666504
23947		-0.023993	2.736323	0.669239	0.199244	-0.011935	-0.016734	-0.749756	-0.158691	0.487305	-0.123428	-0.723278	0.130715	-0.666744
23948		-0.247484	-0.330306	0.839097	-0.489843	-0.003055	-0.028360	-0.751465	-0.162109	0.489258	-0.128095	-0.722506	0.134463	-0.665955
23949		-0.056394	-1.540898	0.149015	-0.402006	0.067241	-0.006213	-0.754639	-0.168213	0.492188	-0.131850	-0.721246	0.137604	-0.665946
23950		0.403249	-3.307164	0.567493	0.032582	0.194512	0.168137	-0.763672	-0.170410	0.479736	-0.130449	-0.719354	0.138541	-0.668071
23951		0.451101	-3.630978	-2.305692	0.247707	0.429774	0.552087	-0.762451	-0.148682	0.474365	-0.124365	-0.715085	0.140589	-0.673366
23952		4.080223	-3.525766	-0.987202	1.131590	0.638892	0.998478	-0.775879	-0.112061	0.469727	-0.106906	-0.709497	0.138983	-0.682546
23953		13.749160	1.156330	-2.291655	1.879665	0.242466	0.519674	-0.774414	-0.088867	0.480713	-0.086102	-0.708768	0.127261	-0.688504
23954		19.766970	-1.103616	-2.962030	1.008390	-0.183383	0.628212	-0.775391	-0.061279	0.494629	-0.071494	-0.710373	0.124562	-0.689016
23955		30.844510	-21.132184	-7.764374	1.112945	-0.565814	2.058055	-0.760986	-0.010254	0.497070	-0.042980	-0.712759	0.134044	-0.687139
23956		21.521329	12.267521	6.134291	3.480730	0.449060	2.261784	-0.778809	0.084473	0.485352	0.006643	-0.706020	0.124335	-0.697161
23957		13.847404	31.053078	2.521228	-2.254157	0.101955	-0.176665	-0.782227	0.046387	0.482422	-0.014870	-0.705289	0.142584	-0.694274
23958		15.884078	-2.254387	-7.266145	-4.231935	-0.413314	-1.235780	-0.771729	-0.025879	0.500488	-0.062048	-0.709199	0.168098	-0.681857
23959		10.136657	-15.518824	-4.739877	0.126974	-0.291275	-1.460390	-0.757324	-0.057129	0.506836	-0.072684	-0.714773	0.154361	-0.678225
23960		8.768921	-0.078890	-0.736412	2.894038	-0.268766	-1.542927	-0.755371	-0.048828	0.516846	-0.059395	-0.722132	0.116480	-0.679286
23961		5.753538	7.455258	2.059653	0.275393	-0.252715	-1.460569	-0.756592	-0.074219	0.522461	-0.068980	-0.726562	0.101417	-0.676066
23962		6.020891	0.003514	1.731143	-1.620213	-0.246647	-1.092957	-0.750244	-0.112549	0.520508	-0.092616	-0.728473	0.105498	-0.670536
23963		7.915863	-5.172494	0.151159	-0.878592	0.010150	-0.442621	-0.741943	-0.136230	0.508545	-0.104310	-0.727940	0.108922	-0.668849
23964		9.111523	-4.368523	-2.811283	0.254196	-0.088534	-0.171017	-0.739502	-0.133545	0.513184	-0.103340	-0.729251	0.105382	-0.668138
23965		11.841963	-2.053469	-0.233028	0.561622	0.065390	0.104920	-0.748047	-0.125977	0.519043	-0.097456	-0.729298	0.101697	-0.669541
23966		10.571490	-0.298229	0.294206	0.136909	-0.139607	0.122840	-0.744629	-0.122559	0.529297	-0.095027	-0.730498	0.101978	-0.668538
23967		10.004536	0.179133	1.065790	-0.167454	-0.039531	0.106823	-0.750244	-0.118164	0.520996	-0.095698	-0.730557	0.104708	-0.667956
23968		10.253672	-0.730232	0.369065	-0.238852	0.063804	0.027379	-0.742188	-0.129150	0.515381	-0.097691	-0.729695	0.106955	-0.668253
23969		9.694287	-0.821945	-0.805891	-0.093852	0.109888	-0.022321	-0.750732	-0.122070	0.514893	-0.098949	-0.728703	0.107460	-0.669069
23970		9.113327	-0.604521	-1.764590	-0.013399	-0.029233	-0.081446	-0.749756	-0.134521	0.516357	-0.099671	-0.729031	0.106941	-0.668688
23971		9.172239	-0.692317	-1.363434	-0.117516	-0.156419	-0.121095	-0.744385	-0.135498	0.520508	-0.101601	-0.730354	0.107029	-0.666937
23972		9.687305	-0.398253	-0.673790	-0.144739	-0.157177	-0.091010	-0.740723	-0.126953	0.517090	-0.103536	-0.731615	0.107732	-0.665142
23973		10.353187	-0.895032	-1.357446	-0.206831	0.034318	-0.056270	-0.745361	-0.139648	0.519043	-0.105880	-0.731122	0.109009	-0.665107
23974		9.455405	-0.716102	-1.657737	-0.129038	0.113198	-0.079417	-0.742432	-0.142578	0.517090	-0.107878	-0.730109	0.109266	-0.665856
23975		9.014053	-0.547274	-2.650185	-0.080924	0.031467	-0.134023	-0.742676	-0.144043	0.515137	-0.109813	-0.729926	0.108818	-0.665813
23976		9.621897	-1.116306	-2.375205	-0.031099	-0.069017	-0.130056	-0.731689	-0.154541	0.521240	-0.111101	-0.730634	0.108124	-0.664936
23977		10.188768	0.008203	-1.696912	0.070590	-0.045813	-0.121035	-0.729492	-0.150879	0.523438	-0.111585	-0.731323	0.106851	-0.664303
23978		10.224676	1.052464	-1.214380	-0.008943	-0.002025	-0.114105	-0.736572	-0.156250	0.521729	-0.112789	-0.731527	0.106333	-0.663958
23979		9.580629	0.814222	-0.965871	-0.418500	-0.039652	-0.058951	-0.735596	-0.154053	0.515869	-0.117181	-0.731355	0.109585	-0.662857
23980		9.682491	0.012129	-1.940656	-0.673093	-0.057689	-0.004781	-0.739990	-0.162109	0.515869	-0.123307	-0.730829	0.115391	-0.661340
23981		9.720270	-0.772688	-2.475871	-0.347090	-0.029286	0.019654	-0.732666	-0.179199	0.522461	-0.126260	-0.730493	0.118641	-0.660577
23982		9.691774	0.362333	-1.163088	0.040745	0.025189	0.000003	-0.738037	-0.171387	0.516113	-0.126156	-0.730381	0.118672	-0.660715
23983		9.987217	0.657074	0.299448	-0.147980	0.073383	-0.015844	-0.737305	-0.168213	0.511475	-0.127815	-0.729565	0.119838	-0.661088
23984		10.229864	0.172907	-0.239470	-0.219233	0.079383	0.101041	-0.740479	-0.167480	0.516113	-0.129105	-0.728398	0.122620	-0.661614
23985		9.697002	-0.536412	-0.850591	-0.218083	0.003592	0.330212	-0.744141	-0.167725	0.503174	-0.128439	-0.727504	0.127779	-0.661751
23986		9.521674	-1.456460	-0.555000	-0.226858	-0.084997	0.540823	-0.738770	-0.159668	0.514404	-0.125808	-0.726937	0.134658	-0.661515
23987		10.054870	-1.040508	-0.491287	-0.098024	-0.072617	0.597227	-0.747314	-0.154297	0.516357	-0.121752	-0.726356	0.141389	-0.661508
23988		10.520376	0.342627	-0.089367	0.258201	-0.102393	0.444930	-0.750732	-0.136963	0.517090	-0.115657	-0.726782	0.143734	-0.661629
23989		9.083510	1.814751	-0.428107	0.057173	-0.180920	0.132547	-0.743164	-0.136230	0.515869	-0.113726	-0.728098	0.144911	-0.660257
23990		7.538961	1.624410	-2.710759	-0.409678	-0.519768	-0.170083	-0.739502	-0.143066	0.522461	-0.117915	-0.732072	0.147589	-0.654511
23991		8.219071	0.794827	-1.766361	-0.012516	-0.470651	-0.302450	-0.729736	-0.145752	0.540771	-0.119566	-0.736426	0.145607	-0.649753
23992		11.392364	-0.158385	2.349034	0.402771	0.070205	-0.345021	-0.724609	-0.152832	0.534180	-0.118857	-0.737059	0.139389	-0.650528
23993		12.305328	0.598300	2.289466	-0.029841	0.413929	-0.525789	-0.735840	-0.162109	0.521484	-0.124188	-0.734533	0.134354	-0.653443
23994		9.238102	-0.176399	-2.868919	-0.325900	0.052680	-0.530493	-0.730469	-0.176514	0.522217	-0.131504	-0.734444	0.131939	-0.652603
23995		8.040939	0.047233	-4.573110	0.004715	-0.289030	-0.593595	-0.723389	-0.184326	0.531250	-0.135816	-0.737751	0.126974	-0.648965
23996		9.354495	-0.388076	-0.475136	0.348891	-0.077136	-0.540592	-0.726074	-0.194092	0.531738	-0.136892	-0.739797	0.119480	-0.647832
23997		10.611308	-0.437897	1.028218	0.434288	-0.023794	-0.375175	-0.720459	-0.191650	0.534912	-0.135853	-0.741255	0.112532	-0.647628
23998		10.298985	0.616929	-0.657060	0.073762	-0.109703	-0.237503	-0.721924	-0.208252	0.537842	-0.136932	-0.742585	0.110014	-0.646308
23999		9.467833	1.220814	-2.561064	-0.061005	-0.118484	-0.170130	-0.712158	-0.197021	0.546875	-0.138767	-0.743650	0.109130	-0.644840
24000		9.004124	1.236454	-3.195554	-0.097140	-0.080538	-0.160245	-0.718018	-0.204590	0.534668	-0.140975	-0.744352	0.108947	-0.643582
24001		9.662461	0.693515	-2.061109	-0.084664	-0.049655	-0.183893	-0.716309	-0.209717	0.540527	-0.143060	-0.744824	0.107853	-0.642759
24002		9.875093	0.176945	-1.066165	-0.045152	0.017003	-0.202735	-0.707764	-0.211426	0.540039	-0.145108	-0.744859	0.106319	-0.642514
24003		9.903510	0.285555	-1.214647	0.048440	0.077392	-0.253163	-0.704590	-0.212402	0.545898	-0.146819	-0.744653	0.103589	-0.642810
24004		9.895459	0.889223	-1.114583	-0.034949	0.065639	-0.243257	-0.705811	-0.217529	0.536865	-0.149316	-0.744385	0.101895	-0.642816
24005		9.715258	1.021207	-1.870557	-0.027015	0.020673	-0.193599	-0.716309	-0.222656	0.537109	-0.151160	-0.744410	0.100431	-0.642587
24006		9.628264	0.561960	-1.937355	0.078822	-0.005530	-0.102257	-0.701660	-0.226074	0.537842	-0.151175	-0.744709	0.098857	-0.642481
24007		9.834995	0.695100	-1.399254	0.118020	0.006890	-0.016824	-0.706543	-0.217285	0.546875	-0.150298	-0.744900	0.097965	-0.642602
24008		9.788722	0.982710	-1.277353	-0.027381	0.031006	-0.006019	-0.710938	-0.222900	0.536865	-0.150753	-0.744614	0.098476	-0.642749
24009		9.720246	1.129240	-1.378547	-0.080717	0.008349	-0.051220	-0.707520	-0.223633	0.540771	-0.151900	-0.744444	0.098697	-0.642642
24010		9.421686	0.948576	-1.461858	-0.013466	-0.002293	-0.057825	-0.706055	-0.224609	0.539307	-0.152551	-0.744505	0.098518	-0.642444
24011		9.633887	0.922018	-1.531862	0.086851	0.036984	-0.040698	-0.704834	-0.228516	0.536377	-0.152167	-0.744421	0.097592	-0.642774
24012		9.660392	1.018678	-1.465514	0.062843	0.066344	-0.030171	-0.703613	-0.228027	0.545654	-0.151957	-0.744040	0.096843	-0.643378
24013		9.618476	1.002928	-1.462431	0.025997	0.049304	-0.043062	-0.707031	-0.226318	0.531006	-0.152356	-0.743755	0.096632	-0.643645
24014		9.605866	0.993229	-1.273764	0.071422	0.023325	-0.056941	-0.708984	-0.223145	0.537354	-0.152136	-0.743762	0.095507	-0.643857
24015		9.698762	1.093051	-1.144075	0.102828	0.046753	-0.066023	-0.712646	-0.229248	0.532715	-0.151797	-0.743654	0.094166	-0.644259
24016		9.742116	1.217731	-1.159082	0.097475	0.084262	-0.056422	-0.710205	-0.222656	0.538086	-0.151415	-0.743208	0.092705	-0.645075
24017		9.627349	1.267253	-1.314891	0.083519	0.069914	-0.051288	-0.705322	-0.220947	0.536621	-0.151198	-0.742858	0.091666	-0.645677
24018		9.573359	1.215825	-1.240131	0.125281	0.048482	-0.067091	-0.703125	-0.229736	0.528809	-0.150720	-0.742785	0.090237	-0.646074
24019		9.651828	1.314784	-0.961251	0.087362	0.077644	-0.063603	-0.707520	-0.214111	0.522705	-0.150550	-0.742392	0.088902	-0.646750
24020		9.686157	1.305295	-0.930228	0.019825	0.065981	-0.034319	-0.716797	-0.214111	0.532715	-0.150506	-0.741927	0.088161	-0.647395
24021		9.667600	1.084179	-1.114198	-0.014363	0.055742	-0.001013	-0.707520	-0.220947	0.523193	-0.150632	-0.741441	0.088245	-0.647911
24022		9.734768	1.063241	-1.200605	-0.058174	0.054848	0.024662	-0.716309	-0.224609	0.522949	-0.150940	-0.740854	0.088824	-0.648431
24023		9.686947	0.999218	-1.025580	-0.104307	0.038517	0.031155	-0.710693	-0.227051	0.529297	-0.151590	-0.740292	0.089807	-0.648786
24024		9.711323	0.910505	-1.044437	-0.114979	0.039538	0.023813	-0.718994	-0.228516	0.528809	-0.152584	-0.739727	0.091098	-0.649018
24025		9.748812	0.849693	-1.130622	-0.079639	0.051869	0.017059	-0.721680	-0.233398	0.526855	-0.153282	-0.739122	0.091948	-0.649422
24026		9.698899	0.957124	-1.243843	-0.063555	0.036604	0.013800	-0.709473	-0.226074	0.528076	-0.153851	-0.738670	0.092641	-0.649703
24027		9.697701	1.069195	-1.120858	-0.064383	0.018741	0.003201	-0.710693	-0.234863	0.534424	-0.154563	-0.738398	0.093473	-0.649724
24028		9.708935	1.001516	-0.948720	-0.103090	0.029034	0.007779	-0.720215	-0.226562	0.521973	-0.155790	-0.737962	0.094852	-0.649727
24029		9.717984	0.967350	-0.989464	-0.102364	0.021637	0.019052	-0.712891	-0.226807	0.527832	-0.156568	-0.737551	0.095885	-0.649854
24030		9.754656	0.915912	-1.001809	-0.089907	0.016796	0.024097	-0.716797	-0.232666	0.532715	-0.157365	-0.737213	0.097163	-0.649856
24031		9.666700	0.890057	-1.071748	-0.087661	0.016764	0.017163	-0.715820	-0.229248	0.514404	-0.158331	-0.736878	0.098512	-0.649797
24032		9.685979	0.943602	-0.947949	-0.079032	0.011676	0.008852	-0.718994	-0.231934	0.511963	-0.158903	-0.736610	0.099185	-0.649860
24033		9.723757	0.993069	-0.996443	-0.059102	0.006077	0.013276	-0.711670	-0.234619	0.511963	-0.159210	-0.736415	0.099670	-0.649931
24034		9.685182	0.902556	-0.949434	-0.021299	-0.003012	-0.002952	-0.714600	-0.227295	0.516846	-0.159379	-0.736398	0.099838	-0.649884
24035		9.659520	0.903937	-0.887458	-0.016824	0.013264	-0.020506	-0.713379	-0.230713	0.516846	-0.159677	-0.736281	0.099852	-0.649941
24036		9.643630	1.054119	-0.944906	-0.002381	0.023940	-0.016892	-0.721924	-0.238770	0.519775	-0.159867	-0.736101	0.099796	-0.650106
24037		9.651131	1.082922	-1.075157	-0.014097	0.001959	-0.017882	-0.719727	-0.230713	0.511963	-0.160219	-0.736063	0.099911	-0.650046
24038		9.703197	1.089304	-1.065091	-0.002172	-0.000671	-0.021644	-0.710449	-0.239502	0.511230	-0.160282	-0.736080	0.099662	-0.650049
24039		9.688025	1.036805	-0.878336	0.002134	0.003051	-0.016049	-0.720459	-0.238037	0.520996	-0.160392	-0.736076	0.099547	-0.650043
24040		9.677553	1.045067	-0.960691	-0.020943	0.002404	-0.012078	-0.713135	-0.242676	0.517822	-0.160777	-0.736016	0.099811	-0.649976
24041		9.716968	1.101531	-1.042502	-0.028433	0.012446	-0.005955	-0.718018	-0.233643	0.516113	-0.161227	-0.735858	0.100188	-0.649985
24042		9.678693	1.034302	-1.117428	-0.027354	0.000151	-0.009564	-0.715576	-0.230957	0.513184	-0.161539	-0.735806	0.100412	-0.649933
24043		9.680373	1.018815	-1.027129	-0.021438	-0.006048	-0.003588	-0.715820	-0.236816	0.516846	-0.161675	-0.735813	0.100584	-0.649864
24044		9.730444	1.011264	-0.945242	-0.015213	-0.004762	-0.000066	-0.720215	-0.231934	0.513184	-0.161845	-0.735814	0.100864	-0.649777
24045		9.694251	1.095792	-1.008944	-0.012320	-0.005064	-0.001811	-0.719727	-0.239502	0.514893	-0.161859	-0.735822	0.100934	-0.649753
24046		9.667370	1.114335	-0.994505	-0.022935	-0.000407	-0.002212	-0.716797	-0.241943	0.505859	-0.162084	-0.735768	0.101171	-0.649722
24047		9.672836	1.101797	-1.013450	-0.026759	-0.007364	-0.003227	-0.710449	-0.243652	0.520020	-0.162223	-0.735764	0.101254	-0.649679
24048		9.675658	1.054922	-1.003731	-0.034343	-0.006169	0.003718	-0.713135	-0.236328	0.518066	-0.162673	-0.735737	0.101885	-0.649498
24049		9.714794	0.989179	-1.011728	-0.033454	-0.013541	0.008708	-0.716797	-0.245361	0.513916	-0.162951	-0.735766	0.102456	-0.649306
24050		9.694297	0.941586	-0.975349	-0.030466	-0.010894	0.003578	-0.713867	-0.229736	0.525879	-0.163229	-0.735773	0.102863	-0.649164
24051		9.704842	0.974584	-0.931637	-0.009790	-0.007029	-0.002541	-0.716797	-0.242432	0.506592	-0.163458	-0.735814	0.103272	-0.648994
24052		9.626204	1.021703	-1.047282	0.014420	-0.010272	-0.003942	-0.717285	-0.238037	0.507324	-0.163214	-0.735920	0.103023	-0.648975
24053		9.660752	1.063350	-1.028882	0.009843	-0.009907	-0.005087	-0.714355	-0.242676	0.524902	-0.162995	-0.736017	0.102791	-0.648958
24054		9.682600	1.048807	-1.023199	0.009479	-0.013719	-0.014747	-0.711182	-0.239014	0.521240	-0.163213	-0.736158	0.102963	-0.648715
24055		9.774902	1.028997	-1.017009	0.021404	-0.013241	-0.022761	-0.719238	-0.230713	0.512451	-0.163308	-0.736335	0.102875	-0.648504
24056		9.702551	1.076542	-0.982572	0.016130	-0.011677	-0.011563	-0.716797	-0.237061	0.515869	-0.163068	-0.736470	0.102565	-0.648461
24057		9.651051	1.101555	-1.029030	-0.003860	-0.018487	-0.003019	-0.720947	-0.233398	0.517578	-0.163067	-0.736606	0.102656	-0.648292
24058		9.637857	1.098678	-1.043295	-0.020999	-0.018062	-0.012392	-0.711670	-0.237061	0.515625	-0.163267	-0.736712	0.102774	-0.648103
24059		9.672024	1.051953	-1.111307	-0.003074	-0.011505	-0.012299	-0.718750	-0.242676	0.524414	-0.163352	-0.736811	0.102773	-0.647969
24060		9.682623	1.019643	-1.111684	0.008074	-0.018657	-0.007189	-0.713379	-0.239014	0.511230	-0.163439	-0.736971	0.102928	-0.647740
24061		9.725675	0.994135	-1.062250	0.000728	-0.014303	-0.009804	-0.717529	-0.245117	0.518799	-0.163382	-0.737094	0.102800	-0.647635
24062		9.690436	1.038550	-1.081814	0.005790	-0.014815	-0.008313	-0.710449	-0.241455	0.517334	-0.163426	-0.737218	0.102832	-0.647478
24063		9.672888	1.049766	-1.153336	0.007302	-0.010328	-0.003988	-0.712158	-0.239014	0.515869	-0.163398	-0.737315	0.102866	-0.647368
24064		9.671539	0.996866	-1.081381	0.012897	-0.011257	-0.005321	-0.716309	-0.233887	0.517334	-0.163268	-0.737433	0.102775	-0.647282
24065		9.660790	0.988723	-1.085807	0.022623	-0.009181	-0.006080	-0.718262	-0.240967	0.527832	-0.163009	-0.737552	0.102557	-0.647246
24066		9.690198	1.067163	-1.127088	0.028000	-0.011193	-0.005394	-0.711914	-0.241699	0.514648	-0.162918	-0.737690	0.102572	-0.647109
24067		9.698019	1.073760	-1.097109	0.027026	-0.013301	-0.005720	-0.709717	-0.242920	0.518555	-0.162652	-0.737850	0.102342	-0.647030
24068		9.696088	1.088433	-1.105250	0.031228	-0.007707	-0.015724	-0.712891	-0.238037	0.518066	-0.162519	-0.737988	0.102079	-0.646947
24069		9.668366	1.078559	-1.095817	0.021201	-0.006854	-0.017855	-0.717773	-0.231201	0.524170	-0.162423	-0.738100	0.101801	-0.646887
24070		9.676002	1.042363	-1.107421	0.020633	-0.009619	-0.014812	-0.710693	-0.240723	0.533691	-0.162314	-0.738228	0.101608	-0.646799
24071		9.678533	1.003927	-1.139927	0.028528	-0.004253	-0.009331	-0.713623	-0.232422	0.521484	-0.162365	-0.738325	0.101707	-0.646661
24072		9.659769	0.982683	-1.136429	0.026462	-0.008713	-0.003791	-0.724121	-0.236572	0.521484	-0.162092	-0.738447	0.101528	-0.646617
24073		9.710158	1.018336	-1.136618	0.027237	-0.015636	0.003547	-0.706055	-0.238770	0.523682	-0.161733	-0.738600	0.101388	-0.646555
24074		9.696828	1.078862	-1.109557	0.041567	-0.013099	0.004069	-0.711182	-0.233154	0.520264	-0.161377	-0.738782	0.101303	-0.646449
24075		9.664728	1.139349	-1.076445	0.031713	-0.003615	0.001950	-0.708008	-0.241455	0.523193	-0.161004	-0.738868	0.101099	-0.646476
24076		9.628606	1.095117	-1.143461	0.011800	-0.006252	-0.000556	-0.707275	-0.235352	0.519043	-0.160974	-0.738934	0.101187	-0.646394
24077		9.655705	1.092786	-1.197153	0.009365	-0.006873	0.001396	-0.707764	-0.232666	0.522461	-0.160823	-0.739005	0.101172	-0.646353
24078		9.751407	1.095318	-1.178194	0.007833	-0.006890	0.003361	-0.705811	-0.243896	0.525391	-0.160699	-0.739071	0.101236	-0.646298
24079		9.629017	1.018232	-1.148986	-0.005396	-0.003251	0.007106	-0.709961	-0.233887	0.527832	-0.160836	-0.739069	0.101601	-0.646209
24080		9.657777	1.010817	-1.115741	-0.012918	-0.002734	0.003712	-0.716797	-0.229736	0.519043	-0.161003	-0.739053	0.101947	-0.646131
24081		9.669015	0.976358	-1.113199	-0.006208	-0.007847	-0.002191	-0.713623	-0.233398	0.527344	-0.160921	-0.739097	0.101913	-0.646107
24082		9.681541	0.920113	-1.186836	0.011716	-0.003284	0.005400	-0.716797	-0.229980	0.530518	-0.160813	-0.739129	0.102035	-0.646078
24083		9.706842	0.974103	-1.125503	0.002610	-0.006354	0.011232	-0.713379	-0.231689	0.520752	-0.160749	-0.739157	0.102316	-0.646017
24084		9.716169	1.024170	-1.128349	0.005840	-0.009831	0.009215	-0.715088	-0.232666	0.523682	-0.160526	-0.739228	0.102370	-0.645982
24085		9.645606	1.074433	-1.088948	0.010972	-0.008802	0.011007	-0.715332	-0.233643	0.524658	-0.160297	-0.739295	0.102463	-0.645949
24086		9.690499	1.044637	-1.114222	-0.009998	-0.007125	0.017097	-0.708008	-0.237549	0.529541	-0.160241	-0.739296	0.102805	-0.645907
24087		9.668286	1.004911	-1.126257	-0.011942	-0.008923	0.016078	-0.716309	-0.222168	0.520996	-0.160359	-0.739314	0.103336	-0.645772
24088		9.682325	1.031820	-1.151534	0.015836	-0.007568	0.007096	-0.712402	-0.233398	0.527344	-0.159963	-0.739393	0.103184	-0.645804
24089		9.680236	1.117907	-1.158291	0.016057	-0.008538	-0.001575	-0.710938	-0.229736	0.519043	-0.159869	-0.739485	0.103215	-0.645717
24090		9.662425	1.068084	-1.111500	-0.003738	0.000824	-0.005134	-0.707520	-0.230957	0.526611	-0.159826	-0.739473	0.103142	-0.645753
24091		9.680386	1.007748	-1.122359	-0.001809	-0.007095	-0.002582	-0.709473	-0.225342	0.518555	-0.159885	-0.739528	0.103282	-0.645653
24092		9.701024	0.973327	-1.122358	-0.010732	-0.003940	0.003641	-0.708496	-0.229736	0.522461	-0.159784	-0.739535	0.103312	-0.645665
24093		9.718680	0.933800	-1.133692	-0.032725	-0.000642	0.001322	-0.719238	-0.230225	0.518555	-0.160021	-0.739471	0.103620	-0.645630
24094		9.675515	0.917988	-1.184906	-0.014575	-0.002946	-0.002333	-0.709961	-0.234375	0.515869	-0.160028	-0.739452	0.103642	-0.645647
24095		9.659537	0.960715	-1.206984	0.009603	-0.007470	-0.000105	-0.711914	-0.228271	0.529785	-0.159821	-0.739523	0.103528	-0.645635
24096		9.688409	0.999820	-1.132575	-0.006119	-0.006971	0.001982	-0.710693	-0.231934	0.527344	-0.159879	-0.739560	0.103746	-0.645544
24097		9.706697	0.998538	-1.061711	-0.026151	-0.006347	0.008640	-0.718994	-0.231445	0.529053	-0.160071	-0.739540	0.104179	-0.645449
24098		9.660014	0.997078	-1.127568	-0.032025	-0.008012	0.011700	-0.708984	-0.233154	0.531494	-0.160289	-0.739507	0.104689	-0.645351
24099		9.681673	0.970234	-1.123713	-0.032644	-0.007030	0.006651	-0.706787	-0.235596	0.530029	-0.160631	-0.739484	0.105247	-0.645201
24100		9.671760	0.924668	-1.164594	-0.016455	-0.003208	-0.003038	-0.710449	-0.236084	0.524658	-0.160916	-0.739475	0.105582	-0.645085
24101		9.745012	0.930963	-1.192935	-0.003709	-0.001855	-0.007922	-0.708252	-0.227295	0.522949	-0.161038	-0.739483	0.105659	-0.645033
24102		9.684685	0.980570	-1.189866	0.001742	-0.004392	-0.013590	-0.713379	-0.229492	0.518799	-0.161044	-0.739541	0.105534	-0.644986
24103		9.662141	0.993871	-1.158152	-0.009012	-0.000374	-0.014939	-0.709229	-0.231445	0.528564	-0.161108	-0.739538	0.105399	-0.644995
24104		9.662725	0.954588	-1.155852	-0.016924	0.000163	-0.017824	-0.708008	-0.236572	0.525391	-0.161442	-0.739522	0.105508	-0.644912
24105		9.679375	0.843211	-1.212342	0.001787	0.002648	-0.017894	-0.716064	-0.229736	0.531738	-0.161610	-0.739521	0.105454	-0.644880
24106		9.722769	0.962529	-1.193806	0.015351	-0.004578	-0.014912	-0.711426	-0.242920	0.520508	-0.161626	-0.739595	0.105359	-0.644806
24107		9.692215	1.045939	-1.151122	0.008131	-0.004530	-0.015764	-0.715820	-0.229980	0.526611	-0.161684	-0.739652	0.105247	-0.644745
24108		9.625838	1.094492	-1.091410	-0.002695	0.006274	-0.015230	-0.711182	-0.236084	0.530029	-0.161805	-0.739603	0.105176	-0.644782
24109		9.652598	1.012603	-1.146835	-0.008740	0.001832	-0.009618	-0.705078	-0.239990	0.521240	-0.162051	-0.739572	0.105347	-0.644728
24110		9.659065	0.943219	-1.202627	-0.004364	0.003237	-0.013878	-0.709717	-0.238281	0.529053	-0.162212	-0.739551	0.105334	-0.644714
24111		9.685158	0.996392	-1.175067	0.002959	0.003035	-0.012183	-0.714600	-0.240479	0.529785	-0.162382	-0.739537	0.105394	-0.644678
24112		9.674919	1.019921	-1.173892	0.010001	-0.003611	-0.004695	-0.716064	-0.233154	0.520508	-0.162442	-0.739571	0.105505	-0.644605
24113		9.670528	1.037247	-1.110778	0.002122	0.002529	-0.008183	-0.713867	-0.235107	0.520752	-0.162384	-0.739553	0.105374	-0.644662
24114		9.674661	1.000267	-1.095726	0.000697	0.002345	-0.005374	-0.710693	-0.229248	0.530029	-0.162348	-0.739530	0.105317	-0.644707
24115		9.697568	1.000796	-1.123901	0.002433	-0.000391	-0.005280	-0.711426	-0.238281	0.523926	-0.162386	-0.739540	0.105373	-0.644676
24116		9.693973	1.050013	-1.134691	-0.002007	-0.000479	-0.008735	-0.712646	-0.237061	0.523926	-0.162486	-0.739539	0.105412	-0.644646
24117		9.642440	1.037961	-1.138823	-0.002006	0.000937	-0.012438	-0.714600	-0.236572	0.518066	-0.162602	-0.739530	0.105396	-0.644630
24118		9.682863	1.015758	-1.138440	-0.013288	0.000489	-0.010210	-0.714355	-0.234863	0.527832	-0.162703	-0.739499	0.105374	-0.644644
24119		9.690659	0.948510	-1.150416	-0.002176	-0.002836	-0.013210	-0.717529	-0.241699	0.522461	-0.162853	-0.739520	0.105402	-0.644577
24120		9.697755	0.986268	-1.159057	-0.002250	-0.000902	-0.010571	-0.706299	-0.235107	0.520508	-0.162964	-0.739512	0.105418	-0.644555
24121		9.689291	1.059256	-1.147358	-0.003638	-0.001346	-0.010933	-0.715820	-0.239258	0.522461	-0.163015	-0.739529	0.105359	-0.644532
24122		9.659437	1.023246	-1.146497	-0.003257	0.002919	-0.022530	-0.715576	-0.239258	0.519287	-0.163213	-0.739509	0.105241	-0.644524
24123		9.672080	0.966116	-1.177763	0.010213	0.000747	-0.021144	-0.712891	-0.240479	0.520752	-0.163225	-0.739534	0.104976	-0.644537
24124		9.728215	0.985846	-1.153044	0.016882	-0.003469	-0.013544	-0.719238	-0.235107	0.521484	-0.163146	-0.739598	0.104779	-0.644515
24125		9.687473	1.075116	-1.147960	0.008747	0.001829	-0.011841	-0.710205	-0.239746	0.523438	-0.163081	-0.739596	0.104598	-0.644564
24126		9.616719	1.146045	-1.142756	-0.006379	-0.001485	-0.011499	-0.713379	-0.241943	0.511230	-0.163237	-0.739598	0.104642	-0.644514
24127		9.628503	1.093597	-1.138267	-0.024393	-0.001675	-0.016800	-0.708496	-0.244141	0.531982	-0.163451	-0.739566	0.104607	-0.644503
24128		9.683074	1.005793	-1.204836	-0.014937	0.006312	-0.023884	-0.716797	-0.238281	0.525635	-0.163943	-0.739505	0.104756	-0.644423
24129		9.717982	0.986134	-1.224859	0.011906	0.002575	-0.028979	-0.718994	-0.237061	0.522949	-0.164073	-0.739527	0.104484	-0.644409
24130		9.694164	1.007855	-1.156165	0.016793	0.004194	-0.025706	-0.709961	-0.240234	0.527100	-0.164078	-0.739540	0.104140	-0.644448
24131		9.662694	1.076785	-1.074189	0.007135	0.005596	-0.017958	-0.707031	-0.237305	0.523438	-0.164210	-0.739523	0.104049	-0.644449
24132		9.676922	1.074505	-1.135017	-0.007265	0.003953	-0.019134	-0.709473	-0.240967	0.525146	-0.164408	-0.739499	0.103980	-0.644437
24133		9.631049	1.050446	-1.156305	-0.001420	0.009114	-0.019241	-0.714111	-0.243896	0.525146	-0.164613	-0.739438	0.103913	-0.644466
24134		9.661003	1.010582	-1.157834	-0.018029	0.019328	-0.004317	-0.716797	-0.241211	0.530762	-0.164887	-0.739231	0.104124	-0.644599
24135		9.689679	0.981650	-1.164108	-0.010799	0.008832	-0.002106	-0.710693	-0.235107	0.524170	-0.165115	-0.739120	0.104381	-0.644627
24136		9.686793	0.955342	-1.096864	0.022710	0.007627	-0.011061	-0.714844	-0.230469	0.526855	-0.164962	-0.739115	0.104126	-0.644712
24137		9.690867	1.049049	-1.111059	0.033274	0.005434	-0.015085	-0.711426	-0.236816	0.522705	-0.164730	-0.739152	0.103745	-0.644790
24138		9.698159	1.111542	-1.075106	0.020887	0.005088	-0.021583	-0.703857	-0.239746	0.520508	-0.164674	-0.739175	0.103411	-0.644833
24139		9.637049	1.154544	-1.150848	0.024952	0.011234	-0.025258	-0.711914	-0.239502	0.520752	-0.164624	-0.739170	0.102998	-0.644917
24140		9.634318	1.133214	-1.160685	0.026460	0.008094	-0.026993	-0.711914	-0.239258	0.516602	-0.164564	-0.739183	0.102560	-0.644987
24141		9.664244	1.088575	-1.123833	0.006587	0.004272	-0.018605	-0.712402	-0.241211	0.521484	-0.164556	-0.739175	0.102304	-0.645039
24142		9.715839	1.037602	-1.082221	-0.012040	0.010707	0.001977	-0.711914	-0.230225	0.519287	-0.164647	-0.739048	0.102468	-0.645135
24143		9.708456	0.953377	-1.158497	-0.002500	0.009677	0.010773	-0.718018	-0.242676	0.521484	-0.164446	-0.738949	0.102493	-0.645296
24144		9.682174	1.046001	-1.173790	0.015970	0.004244	0.002862	-0.722412	-0.239258	0.520996	-0.164282	-0.738921	0.102480	-0.645372
24145		9.615762	1.136619	-1.148980	0.029680	0.000211	-0.007706	-0.710938	-0.240479	0.518066	-0.164034	-0.738962	0.102230	-0.645428
24146		9.627970	1.235300	-1.130710	0.019197	0.006092	-0.006936	-0.716064	-0.235596	0.519043	-0.163870	-0.738950	0.102032	-0.645515
24147		9.713024	1.239114	-1.151546	-0.004296	0.000897	-0.009487	-0.713623	-0.247559	0.519531	-0.163901	-0.738931	0.101977	-0.645537
24148		9.657701	1.165794	-1.136795	-0.008594	0.005579	-0.008861	-0.709717	-0.235840	0.516602	-0.164094	-0.738858	0.102084	-0.645555
24149		9.633798	1.129478	-1.113156	-0.008186	0.007773	-0.012899	-0.717041	-0.240234	0.522461	-0.164175	-0.738790	0.101983	-0.645628
24150		9.620549	1.087871	-1.127390	-0.023634	0.008319	-0.012167	-0.711670	-0.242920	0.523193	-0.164498	-0.738671	0.102134	-0.645658
24151		9.687035	1.052545	-1.225334	-0.010724	0.005447	-0.001068	-0.716553	-0.238037	0.524414	-0.164641	-0.738596	0.102319	-0.645678
24152		9.745731	1.042857	-1.112393	0.003226	-0.000005	0.000925	-0.710449	-0.232666	0.520752	-0.164600	-0.738587	0.102390	-0.645687
24153		9.709572	1.114728	-1.047970	-0.002375	0.007922	-0.002050	-0.709961	-0.240967	0.508789	-0.164556	-0.738521	0.102358	-0.645779
24154		9.639873	1.177258	-1.076950	-0.013379	0.008998	-0.004882	-0.708984	-0.242188	0.513672	-0.164596	-0.738414	0.102346	-0.645893
24155		9.635382	1.101113	-1.140881	-0.004706	0.009971	-0.006660	-0.718506	-0.243896	0.519531	-0.164639	-0.738323	0.102317	-0.645991
24156		9.662011	1.014810	-1.162186	-0.001672	0.012061	-0.003941	-0.707031	-0.248779	0.520996	-0.164709	-0.738203	0.102373	-0.646101
24157		9.678059	1.096519	-1.128741	0.008466	0.001305	-0.003458	-0.716064	-0.245850	0.521729	-0.164728	-0.738209	0.102427	-0.646082
24158		9.661773	1.140856	-1.027618	0.014133	0.005145	-0.004703	-0.712646	-0.230225	0.518555	-0.164691	-0.738183	0.102405	-0.646124
24159		9.662771	1.089176	-1.027865	0.000921	0.008429	-0.004137	-0.712158	-0.232178	0.527100	-0.164597	-0.738120	0.102287	-0.646238
24160		9.685392	1.050255	-1.060866	-0.010403	0.005375	-0.005572	-0.703125	-0.238770	0.520752	-0.164717	-0.738066	0.102358	-0.646258
24161		9.689108	1.088565	-1.121512	0.001219	0.001972	-0.008182	-0.704834	-0.238525	0.523193	-0.164746	-0.738073	0.102312	-0.646250
24162		9.679038	1.104865	-1.078342	0.007871	0.007263	-0.005251	-0.712646	-0.243896	0.514160	-0.164716	-0.738047	0.102250	-0.646298
24163		9.693060	1.098419	-1.062112	-0.005291	0.003232	-0.003550	-0.713379	-0.240967	0.521729	-0.164760	-0.737998	0.102305	-0.646333
24164		9.679860	1.085255	-1.075263	-0.019500	0.000437	-0.003239	-0.712646	-0.237793	0.519531	-0.164972	-0.737949	0.102523	-0.646300
24165		9.697638	1.115334	-1.121147	-0.010843	0.002420	-0.001690	-0.715576	-0.240723	0.512451	-0.165043	-0.737903	0.102627	-0.646318
24166		9.796741	1.201501	-1.117768	-0.027134	0.003759	0.013513	-0.712891	-0.245361	0.514893	-0.165111	-0.737780	0.102973	-0.646386
24167		9.968777	1.410900	-1.051900	-0.088820	0.006358	0.045772	-0.715088	-0.248291	0.519531	-0.165556	-0.737470	0.104177	-0.646434
24168		9.832840	1.245580	-0.887504	-0.173722	0.034112	0.092886	-0.718262	-0.233154	0.524902	-0.166507	-0.736693	0.106515	-0.646694
24169		9.868607	1.239583	-0.947334	-0.216361	0.049133	0.153404	-0.707031	-0.244873	0.515625	-0.167297	-0.735634	0.109625	-0.647176
24170		9.677725	1.352608	-1.228044	-0.258322	0.045167	0.197781	-0.711426	-0.239990	0.511230	-0.168145	-0.734456	0.113519	-0.647622
24171		9.480698	1.515230	-1.335519	-0.256920	0.048062	0.225861	-0.717285	-0.242432	0.507812	-0.168694	-0.733203	0.117592	-0.648173
24172		9.461825	1.750233	-1.338888	-0.278783	0.025106	0.254164	-0.719971	-0.237793	0.509033	-0.169202	-0.732022	0.122179	-0.648527
24173		9.515643	1.755688	-1.311014	-0.395784	0.027012	0.278577	-0.724609	-0.235840	0.498291	-0.170575	-0.730523	0.127918	-0.648751
24174		9.566112	1.563659	-1.298823	-0.473476	0.030465	0.280295	-0.732666	-0.233643	0.494873	-0.172564	-0.728789	0.134215	-0.648902
24175		9.614274	1.308408	-1.286305	-0.564382	0.041767	0.277399	-0.735596	-0.240234	0.491943	-0.175397	-0.726724	0.141183	-0.648980
24176		9.659330	0.943628	-1.191977	-0.535641	0.033077	0.267526	-0.727051	-0.237061	0.489014	-0.178082	-0.724761	0.147900	-0.648948
24177		9.705404	0.470303	-1.121682	-0.501827	0.047376	0.282147	-0.728271	-0.238281	0.484375	-0.180303	-0.722722	0.154359	-0.649105
24178		9.850842	0.151591	-0.963803	-0.419332	0.050831	0.342793	-0.731689	-0.237305	0.485107	-0.181284	-0.720689	0.160682	-0.649557
24179		9.901571	-0.031956	-0.695362	-0.408179	0.039584	0.445730	-0.735352	-0.241211	0.475586	-0.181324	-0.718532	0.167886	-0.650114
24180		10.073076	-0.224314	-0.374529	-0.355301	0.024937	0.560766	-0.745850	-0.231689	0.472900	-0.179955	-0.716308	0.175768	-0.650864
24181		9.972951	-0.782572	0.107702	-0.288841	0.018434	0.677769	-0.748535	-0.220459	0.483398	-0.176998	-0.713960	0.184163	-0.651933
24182		10.239696	-1.093931	0.146243	-0.264940	0.027278	0.792476	-0.749756	-0.212891	0.472900	-0.172922	-0.711282	0.193360	-0.653290
24183		10.465600	-0.923174	0.008918	-0.337031	0.008767	0.899104	-0.752441	-0.198730	0.471924	-0.168550	-0.708241	0.204111	-0.654465
24184		10.034666	-1.212336	-0.249554	-0.389697	-0.008114	0.955865	-0.762695	-0.190430	0.466064	-0.164097	-0.704980	0.215783	-0.655372
24185		9.944179	-1.543755	-0.416929	-0.269955	-0.004849	0.924131	-0.768799	-0.168213	0.471191	-0.158889	-0.701880	0.226218	-0.656463
24186		9.650796	-1.590733	-0.586165	-0.089215	-0.033111	0.839626	-0.770508	-0.148193	0.467529	-0.152641	-0.699532	0.234424	-0.657571
24187		9.380561	-1.010806	-0.790740	0.145305	-0.035338	0.713506	-0.774902	-0.133301	0.466553	-0.145296	-0.697955	0.239535	-0.659068
24188		9.160232	-0.037846	-0.574433	0.323518	-0.035535	0.481676	-0.776611	-0.124268	0.461914	-0.138306	-0.697335	0.241154	-0.660636
24189		9.170186	0.610366	0.024773	0.228015	0.017661	0.237678	-0.776855	-0.115723	0.470459	-0.134347	-0.696801	0.241351	-0.661943
24190		8.756931	0.202459	0.355731	0.023597	0.015389	-0.013857	-0.771484	-0.113525	0.472412	-0.134245	-0.696717	0.241041	-0.662165
24191		8.759318	-0.125207	0.237703	-0.012837	0.052663	-0.246938	-0.784180	-0.128174	0.472656	-0.136460	-0.696992	0.238888	-0.662203
24192		8.678761	-0.181833	0.010464	0.047892	0.033910	-0.458840	-0.774414	-0.131348	0.470215	-0.139991	-0.698088	0.234540	-0.661866
24193		9.074208	0.455772	-0.410769	0.064809	0.041489	-0.617494	-0.773926	-0.141846	0.463379	-0.144612	-0.699619	0.228555	-0.661349
24194		9.802333	1.028146	-0.118135	-0.086387	0.020147	-0.828513	-0.767578	-0.150879	0.467041	-0.152212	-0.701580	0.221978	-0.659805
24195		9.952284	-0.227788	-0.296590	-0.486257	-0.102218	-0.945195	-0.769043	-0.175781	0.463379	-0.163834	-0.704046	0.217807	-0.655772
24196		11.815537	-1.456428	-1.263450	-0.818612	-0.284172	-0.880678	-0.759766	-0.206787	0.470215	-0.177361	-0.706965	0.217297	-0.649250
24197		10.647759	-1.818369	-2.324075	-0.682229	-0.542500	-0.659509	-0.750244	-0.229492	0.476074	-0.187198	-0.711547	0.218195	-0.641131
24198		9.689755	-1.570959	-0.930048	0.372581	-0.268475	-0.606915	-0.743896	-0.246338	0.486572	-0.187983	-0.716151	0.210465	-0.638353
24199		9.430412	-1.051950	-0.428557	0.281528	0.046015	-0.540774	-0.738281	-0.246582	0.492920	-0.189975	-0.717802	0.203372	-0.638209
24200		9.275055	0.281867	-1.932982	-0.229162	-0.051687	-0.364371	-0.740479	-0.261719	0.486328	-0.194814	-0.718573	0.202111	-0.636279
24201		9.844727	2.209650	-2.721634	-0.256316	-0.264653	-0.375417	-0.727051	-0.265625	0.487305	-0.199511	-0.720931	0.201539	-0.632325
24202		9.897581	0.540860	-3.007491	-0.003209	-0.233898	-0.304989	-0.728271	-0.274170	0.505371	-0.201354	-0.723508	0.199434	-0.629459
24203		10.205218	-1.438352	-2.327535	0.026774	-0.045713	-0.071521	-0.729004	-0.270508	0.495605	-0.201614	-0.724100	0.198797	-0.628897
24204		10.256851	-1.042999	-2.168895	-0.384689	-0.104006	0.112454	-0.722412	-0.274170	0.495605	-0.203957	-0.723615	0.203185	-0.627295
24205		10.055423	-0.600512	-1.935064	-0.393829	-0.044083	0.201678	-0.729004	-0.270508	0.498291	-0.205826	-0.722411	0.208278	-0.626402
24206		9.774426	-0.981206	-1.720578	-0.145925	0.025538	0.244575	-0.727783	-0.276611	0.484131	-0.205271	-0.721167	0.211646	-0.626888
24207		9.412237	-1.180262	-1.572047	-0.170423	0.013810	0.240486	-0.724854	-0.272705	0.483398	-0.205003	-0.719921	0.215225	-0.627189
24208		9.527699	-0.734168	-1.756280	-0.157450	0.059227	0.258422	-0.734619	-0.278076	0.488525	-0.204570	-0.718313	0.218717	-0.627965
24209		9.740867	0.215759	-1.671424	0.071667	0.022250	0.259232	-0.743408	-0.253174	0.480225	-0.202085	-0.717548	0.220616	-0.628979
24210		9.486122	0.131539	-1.284671	0.270043	-0.040048	0.201846	-0.730713	-0.253418	0.485596	-0.197899	-0.717905	0.220488	-0.629947
24211		9.879941	-0.646869	-0.398154	0.350471	0.021758	0.172179	-0.742188	-0.239746	0.484619	-0.193439	-0.718086	0.219288	-0.631543
24212		9.919154	-0.743833	-0.480204	0.152998	0.032665	0.244037	-0.740967	-0.231445	0.488281	-0.190169	-0.717458	0.220269	-0.632907
24213		9.593133	-0.083519	-2.008239	-0.027573	-0.003083	0.255566	-0.737793	-0.238037	0.486572	-0.188304	-0.716665	0.222843	-0.633461
24214		9.332131	-0.144695	-2.708836	0.131999	0.009804	0.200682	-0.748779	-0.228760	0.491943	-0.185583	-0.716288	0.223680	-0.634395
24215		10.070603	-1.273564	-2.086528	0.500737	0.020782	0.245144	-0.747314	-0.221191	0.491455	-0.179229	-0.716516	0.221995	-0.636554
24216		10.168268	-2.278493	-1.948199	0.616917	-0.029731	0.510448	-0.748291	-0.200439	0.509766	-0.169592	-0.716615	0.221863	-0.639123
24217		10.154136	-2.584026	-1.335498	0.628544	0.057988	0.944090	-0.762939	-0.174316	0.510742	-0.156595	-0.714768	0.225316	-0.643286
24218		10.240956	-3.042814	-0.482638	0.619274	0.253224	1.387887	-0.768311	-0.135498	0.492432	-0.140655	-0.709833	0.232422	-0.649872
24219		11.253386	-3.308328	-0.205604	0.522531	0.366764	1.675136	-0.774902	-0.103516	0.484863	-0.123401	-0.702640	0.242464	-0.657481
24220		11.935207	-2.858169	0.675529	0.372443	0.558963	1.810145	-0.788086	-0.055664	0.476318	-0.106928	-0.692837	0.254513	-0.666158
24221		12.481307	-1.808994	2.050887	-0.104326	0.712585	1.896746	-0.794434	-0.023193	0.469727	-0.094213	-0.680411	0.270887	-0.674377
24222		12.171928	-2.211870	1.878634	-1.132617	0.799825	1.981572	-0.812988	0.009277	0.449219	-0.089798	-0.665248	0.296353	-0.679379
24223		10.798995	-4.459661	-0.911959	-1.015481	0.798849	2.075150	-0.816895	0.037842	0.427734	-0.083490	-0.649208	0.321315	-0.684335
24224		10.707514	-4.865025	-2.841074	0.458657	1.008269	1.945616	-0.816895	0.085449	0.411133	-0.067083	-0.632869	0.332085	-0.696201
24225		10.504020	-4.596707	0.088916	0.973582	0.893127	1.826774	-0.835205	0.129150	0.388428	-0.047031	-0.618003	0.337248	-0.708607
24226		9.069467	-2.168661	2.621635	0.403037	1.025313	1.700353	-0.828125	0.176025	0.367432	-0.033184	-0.601626	0.346234	-0.719074
24227		8.805415	-0.992474	1.366895	-0.155880	0.975107	1.606249	-0.833984	0.215576	0.343506	-0.023959	-0.585573	0.359274	-0.726260
24228		9.077841	-3.487794	0.327706	-0.319050	0.901165	1.607941	-0.837402	0.241699	0.322266	-0.015498	-0.569753	0.373607	-0.731819
24229		8.963893	-4.765123	0.383263	-0.076934	0.873675	1.506902	-0.832031	0.273682	0.301270	-0.006200	-0.554365	0.384816	-0.737941
24230		8.822272	-4.416156	0.766530	0.120794	0.824003	1.379677	-0.829834	0.300781	0.279297	0.003583	-0.539815	0.393120	-0.744341
24231		8.598491	-4.347938	0.838645	0.208139	0.795388	1.296599	-0.830322	0.331787	0.265381	0.013272	-0.525715	0.399873	-0.750699
24232		7.955857	-4.842966	0.743420	0.216251	0.732325	1.188234	-0.825195	0.361328	0.239258	0.022270	-0.512593	0.405724	-0.756399
24233		7.317072	-4.850483	0.484451	0.152258	0.656109	1.069155	-0.815674	0.378662	0.231689	0.030132	-0.500689	0.411246	-0.761104
24234		7.019006	-5.320146	0.987621	0.169837	0.581896	0.978487	-0.805908	0.407471	0.214844	0.037567	-0.489941	0.415951	-0.765200
24235		6.558495	-5.965877	0.742830	0.346300	0.518267	0.862107	-0.804199	0.427002	0.198975	0.045326	-0.480237	0.418147	-0.769721
24236		6.015752	-5.451695	0.702872	0.596026	0.451044	0.715057	-0.799805	0.448730	0.183594	0.053504	-0.471753	0.416933	-0.775083
24237		5.810904	-5.484333	1.211046	0.678707	0.374354	0.534451	-0.800049	0.459229	0.169678	0.060811	-0.464838	0.413742	-0.780414
24238		5.497400	-4.912158	1.156735	0.425415	0.242520	0.352841	-0.785156	0.463623	0.153809	0.065533	-0.460294	0.411832	-0.783728
24239		4.948897	-5.009539	1.438255	0.298696	0.103945	0.133761	-0.783691	0.469727	0.153564	0.068089	-0.458319	0.409775	-0.785743
24240		5.088739	-5.585677	1.656843	0.177846	0.012266	-0.037248	-0.793457	0.469482	0.146973	0.068757	-0.458228	0.407839	-0.786745
24241		5.286059	-5.977774	2.232181	0.076617	-0.103548	-0.135803	-0.791748	0.474854	0.149902	0.068441	-0.459849	0.406240	-0.786653
24242		5.237635	-6.280229	1.449935	-0.105271	-0.169468	-0.210401	-0.794922	0.466797	0.152588	0.066707	-0.462660	0.405933	-0.785312
24243		5.651844	-7.115286	1.891226	-0.007157	-0.194593	-0.263264	-0.794434	0.460205	0.152832	0.065130	-0.465890	0.404338	-0.784357
24244		5.806768	-7.188741	2.196596	0.079732	-0.298031	-0.266118	-0.799561	0.449219	0.162109	0.064544	-0.470062	0.401789	-0.783225
24245		6.046452	-6.306179	2.713884	0.096117	-0.298355	-0.293902	-0.806152	0.450928	0.166748	0.063768	-0.474345	0.398916	-0.782174
24246		6.531903	-6.489527	2.466174	0.014044	-0.266545	-0.327681	-0.792969	0.439941	0.174805	0.062025	-0.478540	0.396655	-0.780908
24247		7.171437	-6.438672	2.373286	-0.103470	-0.270453	-0.228595	-0.798828	0.435791	0.195801	0.060585	-0.482372	0.396112	-0.778937
24248		6.660495	-6.658893	2.046363	-0.001256	-0.266957	-0.179687	-0.799561	0.432861	0.195801	0.060239	-0.485857	0.394854	-0.777435
24249		5.985955	-6.571477	2.263216	-0.011644	-0.300814	-0.251240	-0.805176	0.427002	0.195068	0.059294	-0.490015	0.393227	-0.775720
24250		5.931356	-5.691478	2.296935	-0.055667	-0.406995	-0.374876	-0.806396	0.424316	0.214844	0.057377	-0.495812	0.391181	-0.773211
24251		5.956878	-4.989812	1.799378	0.018157	-0.386093	-0.523118	-0.811768	0.410156	0.213867	0.054413	-0.502069	0.387494	-0.771242
24252		6.086451	-4.372907	2.325833	-0.126199	-0.324931	-0.688874	-0.815430	0.402100	0.220459	0.048619	-0.508584	0.384163	-0.769023
24253		7.981180	-6.998166	2.189521	-0.185450	-0.339543	-0.753400	-0.822998	0.381348	0.230469	0.041915	-0.515538	0.380938	-0.766388
24254		9.267222	-9.400062	1.619488	-0.178083	-0.319209	-0.424419	-0.829102	0.363037	0.244385	0.038293	-0.520685	0.379745	-0.763685
24255		9.413101	-11.381198	2.174792	0.060656	-0.194481	0.071513	-0.825928	0.374756	0.246582	0.040340	-0.522155	0.379566	-0.762664
24256		6.438123	-5.207251	1.947016	0.222720	-0.106254	0.056949	-0.822266	0.372803	0.243896	0.042907	-0.522761	0.377797	-0.762987
24257		6.171621	-3.855747	1.914918	-0.023574	-0.252614	-0.362417	-0.824219	0.364502	0.250000	0.040544	-0.526862	0.375550	-0.761403
24258		8.053517	-7.062696	0.673625	-0.190985	-0.641501	-0.553979	-0.828857	0.356934	0.265869	0.037079	-0.535612	0.373406	-0.756514
24259		10.353236	-8.072545	0.659460	0.403760	-0.628443	-0.370728	-0.826416	0.357666	0.266113	0.039270	-0.543046	0.366832	-0.754317
24260		8.696923	-4.597538	1.198435	0.180436	-0.627374	-0.367146	-0.828369	0.347900	0.288574	0.039974	-0.550503	0.362348	-0.751034
24261		7.872466	-4.839085	0.134191	0.132960	-0.640256	-0.437320	-0.824219	0.343994	0.302734	0.039746	-0.558384	0.357790	-0.747404
24262		8.819506	-6.349300	0.622231	0.398306	-0.608476	-0.321190	-0.828125	0.340576	0.304688	0.042327	-0.565269	0.351537	-0.745051
24263		8.441127	-4.614566	0.365087	0.395738	-0.546755	-0.231146	-0.822021	0.333008	0.312988	0.045436	-0.571127	0.345944	-0.743016
24264		8.078737	-5.016120	0.187315	0.143922	-0.421632	-0.261377	-0.823242	0.326172	0.326172	0.045914	-0.576061	0.342529	-0.740756
24265		7.905487	-5.763620	0.086190	0.200416	-0.335235	-0.196820	-0.819824	0.324463	0.334473	0.047022	-0.579866	0.339098	-0.739295
24266		7.525297	-5.433842	0.193114	0.313634	-0.318475	-0.100519	-0.820312	0.336182	0.337158	0.049775	-0.583025	0.335318	-0.738354
24267		7.575475	-5.003206	0.489148	0.381836	-0.225304	-0.040185	-0.814697	0.334717	0.333984	0.053211	-0.585016	0.331385	-0.738315
24268		7.856638	-4.857060	1.070132	0.166724	-0.121299	0.005980	-0.812256	0.322998	0.338379	0.055060	-0.585985	0.329838	-0.738104
24269		7.962697	-5.219626	1.086451	0.127350	-0.023399	0.047395	-0.813232	0.328857	0.345459	0.056571	-0.585897	0.329038	-0.738416
24270		7.983415	-4.703525	1.082135	0.114786	0.072879	0.087831	-0.813232	0.339844	0.336182	0.057982	-0.584767	0.328716	-0.739346
24271		8.312379	-4.767671	0.603478	-0.012596	0.134064	0.142236	-0.814209	0.340576	0.339844	0.058728	-0.582939	0.329996	-0.740159
24272		8.447333	-5.393257	0.310855	-0.133288	0.164347	0.155380	-0.821045	0.345947	0.327393	0.058590	-0.580863	0.332511	-0.740676
24273		9.427288	-5.990170	0.164593	-0.123192	0.109194	0.143723	-0.811768	0.343750	0.323486	0.058638	-0.579330	0.334793	-0.740846
24274		9.449009	-5.485650	0.100149	-0.048696	0.079726	0.083668	-0.816650	0.351074	0.324219	0.058787	-0.578261	0.335934	-0.741152
24275		9.682307	-6.137453	-0.659310	-0.056589	0.085796	-0.051918	-0.818604	0.343506	0.336182	0.057609	-0.577715	0.336167	-0.741565
24276		8.824315	-6.404833	-0.233180	0.174314	0.110157	-0.044856	-0.818359	0.343994	0.324219	0.058056	-0.576747	0.334342	-0.743107
24277		7.542677	-5.929979	0.906695	0.342612	0.042414	0.017949	-0.813721	0.350586	0.324463	0.060577	-0.576013	0.331348	-0.744814
24278		7.043815	-5.762823	1.273743	0.424344	-0.010990	0.043859	-0.816895	0.346191	0.312744	0.064162	-0.575596	0.327737	-0.746432
24279		7.508685	-5.770601	1.313181	0.508209	0.008231	0.091776	-0.807861	0.353516	0.309570	0.068685	-0.574706	0.323692	-0.748478
24280		7.814289	-4.976337	1.742697	0.493169	0.084664	0.166912	-0.815430	0.364258	0.309570	0.073502	-0.572787	0.320386	-0.750910
24281		8.774615	-5.904443	2.056406	0.274922	0.109416	0.252299	-0.817139	0.374023	0.306152	0.077461	-0.570477	0.319752	-0.752538
24282		9.395487	-6.867587	2.063571	0.202162	0.121530	0.407704	-0.812500	0.386475	0.295166	0.082316	-0.567487	0.320910	-0.753790
24283		8.701912	-6.699139	2.220525	0.266854	0.160406	0.594652	-0.807129	0.399414	0.290039	0.089235	-0.563283	0.322798	-0.755348
24284		6.799894	-5.238525	1.356914	0.195394	0.153909	0.584926	-0.790039	0.410889	0.284912	0.095577	-0.559220	0.325266	-0.756532
24285		5.647306	-4.498109	1.164544	0.248117	0.101704	0.372922	-0.791260	0.417725	0.282471	0.100495	-0.556421	0.325690	-0.757775
24286		6.481379	-5.168413	1.277444	0.249519	0.019933	0.157237	-0.786865	0.420654	0.274658	0.103702	-0.555260	0.324488	-0.758709
24287		6.664235	-5.141833	1.723016	0.319196	-0.042127	0.046274	-0.793213	0.428955	0.271729	0.106587	-0.555038	0.321762	-0.759632
24288		6.711382	-4.450114	1.998221	0.284800	-0.123166	-0.058974	-0.796631	0.430908	0.273926	0.108565	-0.556046	0.318508	-0.759986
24289		6.868353	-4.076511	2.059103	-0.093335	-0.205292	-0.202442	-0.794189	0.425293	0.286377	0.106880	-0.558914	0.317732	-0.758445
24290		7.071913	-4.268288	0.893027	-0.162407	-0.357497	-0.344672	-0.796631	0.415527	0.291992	0.103964	-0.563868	0.316430	-0.755723
24291		7.411211	-4.685475	1.406752	-0.066031	-0.379618	-0.479273	-0.795654	0.405273	0.301758	0.100537	-0.569412	0.313202	-0.753370
24292		8.286958	-5.148992	2.338840	0.155188	-0.400648	-0.483349	-0.798584	0.400391	0.310791	0.098723	-0.574858	0.307826	-0.751689
24293		9.911418	-6.657589	2.715074	0.097741	-0.301310	-0.237878	-0.801514	0.393799	0.308105	0.098425	-0.578471	0.304868	-0.750160
24294		8.996363	-6.512812	2.539283	-0.070811	-0.226257	-0.011000	-0.792236	0.393799	0.312500	0.098742	-0.580715	0.305173	-0.748258
24295		7.814647	-6.192328	2.098921	-0.277309	-0.141203	0.082394	-0.796387	0.392334	0.315186	0.098111	-0.582049	0.308209	-0.746057
24296		7.100342	-5.581258	1.691445	-0.085010	-0.088361	0.034622	-0.797607	0.395264	0.319580	0.098226	-0.582836	0.309135	-0.745043
24297		7.046293	-5.033968	1.462635	0.031416	-0.148047	-0.053902	-0.797607	0.391846	0.337158	0.098598	-0.584376	0.308264	-0.744148
24298		7.713315	-5.153988	1.024776	0.048080	-0.219021	-0.112912	-0.798584	0.393799	0.330566	0.098805	-0.586782	0.306781	-0.742839
24299		8.141585	-5.439434	1.554724	-0.037160	-0.303296	-0.086316	-0.801270	0.384033	0.341797	0.098969	-0.589964	0.306123	-0.740565
24300		8.133942	-5.862656	1.289045	-0.198529	-0.360614	-0.014184	-0.796387	0.386230	0.341797	0.098808	-0.593597	0.307409	-0.737143
24301		8.141658	-6.608185	1.275236	-0.200660	-0.351055	0.065001	-0.783936	0.383789	0.359619	0.099333	-0.596818	0.309278	-0.733681
24302		7.942069	-6.143905	0.976562	-0.068408	-0.409456	-0.021106	-0.784424	0.387451	0.365479	0.100267	-0.600721	0.309288	-0.730357
24303		7.969988	-5.060070	1.210563	0.104807	-0.432221	-0.123128	-0.786377	0.387451	0.376953	0.101666	-0.604990	0.306891	-0.727646
24304		8.710058	-5.707577	0.467465	-0.157177	-0.524980	-0.220970	-0.776367	0.387939	0.383057	0.100546	-0.610788	0.306007	-0.723318
24305		9.358062	-6.319503	0.289105	-0.148941	-0.560472	-0.234509	-0.773926	0.373047	0.392822	0.099512	-0.616905	0.304886	-0.718728
24306		9.161392	-5.650461	0.401640	-0.087456	-0.527334	-0.293025	-0.768311	0.367432	0.412842	0.098275	-0.622841	0.302757	-0.714667
24307		9.183248	-5.428689	0.613780	-0.020989	-0.523594	-0.363249	-0.772705	0.359131	0.417969	0.096908	-0.628888	0.299525	-0.710910
24308		9.685744	-4.840997	0.745217	-0.272756	-0.493923	-0.385832	-0.770752	0.347656	0.426514	0.093243	-0.635024	0.298314	-0.706441
24309		9.657558	-5.557692	0.079257	-0.398225	-0.385306	-0.464339	-0.775635	0.335938	0.450439	0.087474	-0.640593	0.297669	-0.702412
24310		9.320365	-5.864361	-0.534972	-0.225908	-0.306729	-0.575984	-0.772217	0.318359	0.448975	0.081807	-0.645651	0.294722	-0.699700
24311		8.978886	-4.806183	-0.852785	-0.229904	-0.341231	-0.632006	-0.774414	0.307617	0.456299	0.075730	-0.651168	0.291271	-0.696712
24312		8.915857	-4.960195	-1.314895	-0.264476	-0.394510	-0.651859	-0.770996	0.285156	0.465332	0.069394	-0.657190	0.287876	-0.693119
24313		9.073241	-5.234165	-1.412752	-0.129701	-0.443869	-0.727292	-0.772461	0.277832	0.478760	0.063664	-0.663723	0.282627	-0.689594
24314		8.954724	-4.902809	-0.897495	0.024231	-0.458447	-0.792011	-0.775146	0.268066	0.480957	0.058716	-0.670404	0.275491	-0.686452
24315		8.856909	-4.043799	-0.789379	0.063894	-0.473756	-0.801922	-0.769775	0.243164	0.496338	0.054070	-0.677129	0.267847	-0.683250
24316		8.551753	-3.619289	-1.132698	0.037444	-0.534793	-0.821820	-0.767822	0.232422	0.508545	0.049203	-0.684368	0.260220	-0.679341
24317		8.630458	-4.088470	-1.616075	0.074759	-0.634623	-0.834028	-0.762451	0.221680	0.517334	0.044881	-0.692361	0.252079	-0.674595
24318		8.884945	-4.094766	-1.007608	0.144660	-0.650983	-0.852789	-0.761475	0.201660	0.530273	0.041060	-0.700387	0.243130	-0.669821
24319		8.888411	-3.363683	-0.596433	0.170921	-0.573182	-0.864848	-0.755615	0.188721	0.537598	0.037108	-0.707663	0.233841	-0.665699
24320		9.000370	-3.195849	-0.686711	0.168550	-0.521290	-0.868463	-0.756592	0.173096	0.541016	0.032950	-0.714398	0.224521	-0.661922
24321		9.331044	-2.441679	-0.953160	0.159730	-0.463838	-0.869660	-0.756592	0.157715	0.552002	0.028527	-0.720545	0.215209	-0.658548
24322		9.641703	-2.186999	-1.029407	-0.005532	-0.417003	-0.921210	-0.745850	0.139893	0.553467	0.022057	-0.726393	0.206774	-0.655065
24323		9.639656	-2.289423	-1.324177	-0.073562	-0.358957	-0.932957	-0.752930	0.125732	0.568848	0.014716	-0.731697	0.198778	-0.651836
24324		9.350221	-1.679922	-1.837823	-0.207047	-0.308892	-0.955113	-0.740967	0.105469	0.574463	0.005865	-0.736558	0.191643	-0.648630
24325		9.124330	-1.878141	-2.422700	-0.282958	-0.350017	-1.028491	-0.733398	0.078369	0.582031	-0.004178	-0.741808	0.184444	-0.644736
24326		8.875673	-1.920134	-2.665966	-0.218087	-0.465520	-1.069614	-0.736328	0.052734	0.584473	-0.013696	-0.747938	0.176324	-0.639774
24327		8.946519	-0.819646	-2.081449	-0.363726	-0.468981	-1.103667	-0.724365	0.031250	0.598877	-0.024861	-0.753957	0.168955	-0.634338
24328		9.067441	-0.536855	-1.513872	-0.621487	-0.376549	-1.137640	-0.726562	-0.000244	0.603516	-0.038887	-0.759050	0.163277	-0.629024
24329		9.063535	-0.764728	-1.761201	-0.850978	-0.300237	-1.158500	-0.720947	-0.039062	0.599854	-0.055411	-0.763225	0.159076	-0.623788
24330		8.590922	-0.833711	-2.336906	-0.879907	-0.230014	-1.104115	-0.712158	-0.081543	0.614990	-0.071952	-0.766455	0.155494	-0.619024
24331		8.389822	-0.239421	-2.391458	-0.513125	-0.105341	-1.099782	-0.715576	-0.093750	0.611572	-0.085201	-0.768865	0.149015	-0.615940
24332		8.119361	-0.274254	-1.930533	-0.299854	-0.036377	-1.120043	-0.709961	-0.116943	0.608887	-0.096587	-0.770812	0.140555	-0.613811
24333		8.542676	-0.648176	-2.268944	-0.099988	-0.044116	-1.018034	-0.707031	-0.143066	0.607910	-0.105231	-0.772733	0.131531	-0.611972
24334		9.096624	-1.768935	-2.859376	0.066441	-0.098748	-0.716616	-0.696289	-0.152588	0.615723	-0.109908	-0.774692	0.124202	-0.610201
24335		9.604700	-1.868522	-1.937454	0.053048	-0.089257	-0.214408	-0.693359	-0.163574	0.611084	-0.110869	-0.775780	0.121864	-0.609116
24336		9.859690	-2.599244	-1.582464	-0.298091	-0.062210	0.271163	-0.691406	-0.158447	0.609619	-0.111654	-0.775402	0.126871	-0.608432
24337		9.723015	-2.858730	-2.454602	-0.669440	-0.049728	0.590612	-0.700195	-0.154297	0.615234	-0.113586	-0.773845	0.137784	-0.607682
24338		9.218853	-1.985035	-3.015689	-0.369869	-0.022003	0.731156	-0.700684	-0.154297	0.609863	-0.111539	-0.772175	0.147735	-0.607848
24339		9.119016	-1.145009	-3.470045	0.073037	-0.011172	0.599028	-0.697754	-0.138184	0.610107	-0.106302	-0.771211	0.153033	-0.608699
24340		9.314703	-0.868334	-3.617220	0.361704	-0.078044	0.400564	-0.706787	-0.122070	0.618164	-0.099621	-0.771493	0.154315	-0.609148
24341		9.901550	0.865360	-1.792929	0.668474	-0.031149	0.194529	-0.699951	-0.117676	0.614746	-0.091594	-0.772144	0.151196	-0.610364
24342		9.656819	0.349180	-2.704766	0.303655	0.004011	-0.001019	-0.702393	-0.114014	0.611328	-0.088734	-0.772443	0.148939	-0.610962
24343		9.539846	0.047133	-2.571159	0.295793	-0.033369	-0.021393	-0.693604	-0.108887	0.618164	-0.086050	-0.773026	0.146570	-0.611182
24344		9.494368	0.126970	-1.902657	0.427390	-0.028253	0.100956	-0.699707	-0.101562	0.620117	-0.081146	-0.773514	0.144402	-0.611751
24345		9.505368	-0.732617	-2.511066	0.156560	-0.003148	0.103144	-0.707031	-0.086426	0.625977	-0.078894	-0.773501	0.144282	-0.612090
24346		9.215623	-1.099463	-2.668081	0.191258	-0.082362	0.105986	-0.698242	-0.090332	0.620850	-0.076035	-0.774115	0.143975	-0.611748
24347		9.176715	-0.715098	-1.951674	0.504918	0.021061	0.261943	-0.703613	-0.072998	0.628174	-0.069220	-0.773932	0.142700	-0.613086
24348		9.022604	-1.843620	-2.441329	0.243657	0.064627	0.355457	-0.707520	-0.063965	0.620605	-0.064238	-0.773000	0.144286	-0.614431
24349		8.938399	-2.013645	-2.615500	0.357537	0.024414	0.468691	-0.705811	-0.045654	0.628662	-0.057228	-0.772202	0.146098	-0.615698
24350		8.713462	-2.768657	-3.857254	0.553991	0.043881	0.560114	-0.707275	-0.031006	0.625977	-0.047602	-0.771202	0.147284	-0.617486
24351		8.492754	-1.636230	-1.910919	0.935501	0.055089	0.667165	-0.701660	0.006592	0.617920	-0.033524	-0.770019	0.146538	-0.620059
24352		8.925200	-1.415144	-1.321522	0.728808	0.313222	0.822439	-0.716553	0.017822	0.618164	-0.020598	-0.766297	0.148721	-0.624697
24353		9.102037	-1.323737	-1.450684	0.384947	0.406583	0.922879	-0.720459	0.045898	0.609375	-0.010489	-0.761416	0.154526	-0.629490
24354		9.167022	-1.097386	-1.737598	0.318585	0.574479	0.949417	-0.727783	0.065186	0.596924	-0.001073	-0.755002	0.161037	-0.635639
24355		8.481012	-0.818438	-0.855843	-0.342840	0.531124	1.052518	-0.733643	0.089844	0.590576	0.002983	-0.748544	0.173738	-0.639912
24356		8.011939	-0.741711	-2.116547	-0.432910	0.434206	1.025380	-0.734131	0.097168	0.590820	0.006284	-0.742757	0.186841	-0.642933
24357		9.210897	-2.866115	-2.725924	-0.205870	0.322237	0.943234	-0.736328	0.118164	0.584717	0.011249	-0.737933	0.197357	-0.645273
24358		9.656805	-3.494463	-1.522335	-0.071296	0.279475	0.833506	-0.746094	0.126465	0.581543	0.016729	-0.733595	0.205726	-0.647484
24359		9.062315	-3.316833	-1.665234	0.209719	0.308700	0.901664	-0.744141	0.151123	0.572266	0.025195	-0.728674	0.212424	-0.650596
24360		7.958035	-1.886201	-1.643941	0.202072	0.341323	0.969381	-0.740723	0.170166	0.562988	0.034092	-0.723188	0.219766	-0.653865
24361		9.201130	-1.677921	-1.995534	-0.062262	0.141291	0.819106	-0.741455	0.187988	0.559570	0.039906	-0.719764	0.227800	-0.654565
24362		10.258029	-5.181103	-2.338643	0.179417	0.133282	0.696133	-0.741699	0.204102	0.558350	0.046929	-0.716556	0.232698	-0.655893
24363		8.656275	-3.727678	-1.519242	0.291286	0.130684	0.797764	-0.741699	0.217529	0.553223	0.055789	-0.712938	0.237573	-0.657393
24364		7.786339	-0.997994	-0.399051	0.025405	0.168367	0.852754	-0.743164	0.230469	0.554688	0.062566	-0.708945	0.245121	-0.658330
24365		11.695591	-5.031678	-2.571802	-0.315630	0.174761	0.349221	-0.733887	0.239502	0.557129	0.062124	-0.706663	0.251003	-0.658609
24366		11.475257	-6.798663	-2.684090	0.447823	0.127252	0.369215	-0.747559	0.251465	0.551025	0.068799	-0.704102	0.250764	-0.660776
24367		7.674106	-2.246215	-0.595383	0.482708	0.118197	0.471011	-0.738281	0.268066	0.542969	0.076614	-0.701197	0.251063	-0.662888
24368		8.076614	-3.259398	-0.256901	-0.091656	-0.033340	0.540896	-0.734375	0.275146	0.541016	0.080465	-0.699840	0.256580	-0.661752
24369		10.000123	-4.956010	-1.692697	-0.011875	0.059141	0.356446	-0.728027	0.288330	0.542725	0.083178	-0.698199	0.259892	-0.661858
24370		10.795566	-5.970815	-1.590167	0.227489	0.110095	0.132492	-0.728516	0.296143	0.538574	0.086006	-0.696609	0.259336	-0.663388
24371		8.488504	-4.440174	-0.967166	0.497862	0.124843	0.217140	-0.728516	0.300293	0.529785	0.091850	-0.694307	0.257278	-0.665814
24372		7.161354	-3.495869	-0.718971	0.324051	-0.012243	0.283859	-0.739502	0.315430	0.531738	0.097136	-0.693102	0.257075	-0.666398
24373		8.431794	-4.614854	-1.118323	0.142529	-0.023140	0.283718	-0.729248	0.313477	0.529541	0.100894	-0.692188	0.258324	-0.666307
24374		9.326855	-5.332594	-1.338740	0.180595	0.130190	0.162696	-0.726318	0.327881	0.521484	0.103433	-0.690340	0.258435	-0.667790
24375		8.889738	-5.299841	-1.001316	0.305396	0.183640	0.151547	-0.724854	0.326416	0.523926	0.106834	-0.687895	0.257455	-0.670152
24376		7.461241	-4.219133	-0.217645	0.344569	0.195997	0.241312	-0.729004	0.339355	0.516113	0.111235	-0.685009	0.256986	-0.672568
24377		8.087871	-4.385500	-0.945362	-0.114294	0.046556	0.249591	-0.730225	0.338867	0.512451	0.112270	-0.683966	0.260206	-0.672219
24378		9.064333	-5.650494	-0.955808	-0.070668	0.122788	0.183755	-0.729248	0.346191	0.509277	0.112855	-0.682423	0.262576	-0.672767
24379		8.500070	-5.333386	-0.681316	0.124814	0.174973	0.228265	-0.732666	0.355713	0.511963	0.115333	-0.680006	0.263745	-0.674336
24380		7.537343	-3.597349	-0.169854	0.307485	0.177230	0.267575	-0.728760	0.352295	0.498779	0.119695	-0.677169	0.263723	-0.676436
24381		8.413073	-5.254018	-0.508308	0.316377	0.184243	0.225638	-0.730957	0.366943	0.504395	0.123700	-0.674375	0.263265	-0.678681
24382		8.397579	-5.179261	-0.461746	0.427532	0.193196	0.331828	-0.728516	0.378662	0.493408	0.129531	-0.670969	0.262805	-0.681143
24383		8.580542	-4.338912	-0.559579	-0.163531	0.124804	0.367263	-0.727051	0.389160	0.493408	0.130929	-0.668953	0.267542	-0.681014
24384		9.804733	-4.968010	-1.122108	-0.260313	0.209226	0.287814	-0.729736	0.380859	0.483887	0.130580	-0.666622	0.272560	-0.681377
24385		10.377504	-5.818377	-1.167838	-0.209302	0.207985	0.277432	-0.722900	0.385498	0.484863	0.130525	-0.664231	0.277000	-0.681932
24386		9.596581	-5.239892	-0.801900	0.011747	0.228936	0.233151	-0.729980	0.398926	0.483887	0.131865	-0.661444	0.279252	-0.683463
24387		9.084121	-5.051849	-0.401264	0.078504	0.181634	0.049712	-0.720703	0.396484	0.476562	0.132384	-0.659583	0.279316	-0.685133
24388		9.082016	-6.392752	-0.040966	0.071259	0.167151	-0.046059	-0.727051	0.389893	0.470703	0.132064	-0.658189	0.278652	-0.686804
24389		7.925394	-5.481116	0.486037	0.222168	0.228731	-0.009127	-0.728760	0.399170	0.459717	0.133058	-0.655882	0.277075	-0.689452
24390		6.967811	-4.665436	0.598818	-0.045975	0.203644	0.026756	-0.742432	0.393555	0.463867	0.132278	-0.654096	0.278033	-0.690911
24391		6.949469	-5.361441	0.274787	-0.368775	0.174719	0.050039	-0.740234	0.392090	0.464600	0.129124	-0.653014	0.281915	-0.690958
24392		7.118596	-6.080343	-0.109802	-0.272548	0.200190	0.115592	-0.735352	0.396973	0.461426	0.127237	-0.651309	0.285554	-0.691423
24393		6.987652	-5.502868	-0.225716	-0.099369	0.156717	0.181865	-0.738281	0.392822	0.461914	0.127512	-0.649449	0.288175	-0.692034
24394		7.522687	-5.522701	-0.314558	-0.049415	0.126972	0.161350	-0.738281	0.401855	0.459961	0.128092	-0.647841	0.290156	-0.692607
24395		8.130029	-6.447311	-0.047501	-0.052116	0.037278	0.126571	-0.742676	0.395752	0.461182	0.128697	-0.647133	0.291729	-0.692496
24396		8.134125	-6.526203	0.542767	-0.012268	0.016096	0.136333	-0.737549	0.404785	0.466064	0.129752	-0.646512	0.292995	-0.692344
24397		7.746766	-5.173937	1.243052	0.000544	0.042285	0.112524	-0.735107	0.404785	0.459717	0.130629	-0.645727	0.294043	-0.692468
24398		7.640627	-5.248247	0.544039	-0.159588	-0.006691	0.010430	-0.729492	0.410889	0.462158	0.129507	-0.645996	0.295545	-0.691787
24399		7.952351	-6.057735	0.269629	-0.092415	-0.036868	-0.075909	-0.732910	0.395752	0.461182	0.128320	-0.646729	0.295741	-0.691240
24400		8.010137	-5.450439	0.637715	-0.014688	-0.069541	-0.035940	-0.727539	0.397217	0.467041	0.128183	-0.647477	0.295514	-0.690662
24401		7.815023	-5.361095	0.591125	-0.224320	-0.134348	-0.100529	-0.733643	0.393799	0.468994	0.126036	-0.649354	0.296512	-0.688865
24402		7.881841	-5.468798	-0.033226	-0.158475	-0.108528	-0.184062	-0.734619	0.387207	0.473877	0.123611	-0.651208	0.296254	-0.687665
24403		8.226828	-5.851838	-0.079188	-0.017731	-0.142216	-0.297482	-0.735352	0.389404	0.478271	0.121474	-0.653546	0.293812	-0.686874
24404		9.170831	-6.025728	-0.277283	-0.022858	-0.229327	-0.372738	-0.746338	0.378174	0.489258	0.118992	-0.656897	0.290669	-0.685448
24405		9.036541	-5.437615	-0.524180	-0.180549	-0.295473	-0.375680	-0.747803	0.371094	0.486572	0.115405	-0.661048	0.288735	-0.682883
24406		8.604030	-5.005547	-0.754381	-0.165665	-0.325965	-0.382539	-0.746094	0.357910	0.499023	0.112003	-0.665428	0.286492	-0.680135
24407		8.786476	-5.216678	-0.515319	-0.153168	-0.369878	-0.411420	-0.735840	0.346436	0.496582	0.108593	-0.670241	0.283865	-0.677056
24408		8.807855	-5.045942	-0.543145	-0.115659	-0.252944	-0.401139	-0.738770	0.340820	0.509033	0.105167	-0.673938	0.281137	-0.675063
24409		9.317780	-4.864322	-0.776131	-0.247884	-0.156060	-0.399572	-0.745117	0.324219	0.516357	0.100299	-0.676963	0.279681	-0.673379
24410		9.666290	-4.740575	-1.288778	-0.257552	-0.120606	-0.409453	-0.741211	0.318604	0.516113	0.095119	-0.679717	0.278246	-0.671949
24411		10.094557	-4.770867	-1.595035	-0.310924	-0.112083	-0.443157	-0.742676	0.306885	0.521484	0.089188	-0.682545	0.276969	-0.670422
24412		10.339343	-4.621847	-1.381063	-0.309416	-0.082054	-0.464805	-0.750977	0.295654	0.527100	0.082981	-0.685163	0.275519	-0.669145
24413		10.350176	-4.248151	-1.128287	-0.268452	-0.012216	-0.570068	-0.745850	0.286865	0.528564	0.076003	-0.687480	0.272863	-0.668685
24414		10.389086	-3.983126	-0.864484	-0.336588	0.045267	-0.643449	-0.755127	0.258789	0.520020	0.067641	-0.689581	0.270209	-0.668498
24415		10.145942	-3.570601	-1.192319	-0.413614	0.074472	-0.699385	-0.755859	0.246582	0.527588	0.058015	-0.691627	0.267647	-0.668319
24416		10.093256	-3.461082	-1.712247	-0.440979	0.104878	-0.731135	-0.758301	0.228760	0.520508	0.047794	-0.693472	0.265078	-0.668241
24417		9.762633	-2.900990	-1.860062	-0.557880	0.096063	-0.802174	-0.768799	0.199707	0.529053	0.035998	-0.695600	0.262800	-0.667669
24418		9.259140	-2.995240	-1.990584	-0.661561	0.017364	-0.868132	-0.773193	0.179443	0.534668	0.022982	-0.698538	0.260751	-0.665977
24419		8.805370	-3.163464	-2.364047	-0.602551	-0.058402	-0.887836	-0.775391	0.152588	0.532227	0.010575	-0.702028	0.257977	-0.663696
24420		8.111906	-2.887220	-2.590651	-0.475724	-0.107315	-0.922554	-0.784180	0.125488	0.528809	-0.000857	-0.705892	0.253771	-0.661298
24421		8.226834	-3.455614	-2.506205	-0.357848	-0.220249	-0.937910	-0.778564	0.100098	0.545654	-0.011028	-0.710612	0.248362	-0.658198
24422		8.779905	-3.278514	-1.922154	-0.165095	-0.308097	-0.928867	-0.774658	0.077393	0.539795	-0.019147	-0.715954	0.241499	-0.654768
24423		9.160891	-2.006432	-0.779481	-0.107721	-0.323168	-0.985040	-0.766113	0.058838	0.549072	-0.027176	-0.721473	0.233588	-0.651287
24424		9.270918	-1.653783	-0.620067	-0.376880	-0.215865	-1.067814	-0.768799	0.035645	0.554199	-0.038608	-0.726139	0.227073	-0.647819
24425		8.762569	-1.970889	-1.394857	-0.432650	-0.184532	-1.026381	-0.764648	0.000977	0.563477	-0.050285	-0.730255	0.221308	-0.644377
24426		8.436774	-1.770872	-1.866871	-0.463876	-0.264034	-0.912265	-0.764648	-0.017578	0.562012	-0.061127	-0.734551	0.216878	-0.640049
24427		8.316825	-1.338606	-2.212284	-0.405117	-0.291318	-0.897090	-0.768066	-0.039551	0.565674	-0.071210	-0.738929	0.212065	-0.635564
24428		8.511513	-1.825855	-1.854750	-0.551961	-0.339046	-0.943251	-0.751709	-0.066406	0.572998	-0.082879	-0.743529	0.207967	-0.630115
24429		8.174143	-1.771990	-1.962139	-0.504577	-0.373057	-0.869948	-0.739746	-0.084717	0.578613	-0.093430	-0.748126	0.204218	-0.624398
24430		8.727195	-1.471710	-1.931438	-0.601947	-0.330246	-0.796155	-0.734131	-0.113525	0.575684	-0.104389	-0.751959	0.201849	-0.618803
24431		9.235404	-0.593156	-1.746723	-0.489699	-0.260559	-0.740299	-0.729492	-0.131836	0.590088	-0.114056	-0.755128	0.198996	-0.614145
24432		8.619174	-0.962984	-1.989790	-0.558254	-0.226206	-0.719353	-0.722656	-0.157471	0.590820	-0.124254	-0.757800	0.196820	-0.609558
24433		8.411280	-1.501293	-2.538062	-0.190607	-0.287539	-0.713613	-0.708008	-0.176025	0.586182	-0.130785	-0.761407	0.191973	-0.605228
24434		8.582606	-1.940662	-2.115007	0.015754	-0.245372	-0.652639	-0.699707	-0.188721	0.598389	-0.135010	-0.764812	0.186064	-0.601843
24435		9.821444	-2.303016	-2.192122	0.230493	-0.083554	-0.493302	-0.695312	-0.177734	0.596680	-0.136344	-0.766965	0.179809	-0.600703
24436		9.870499	-2.562600	-1.790317	0.421326	-0.025830	-0.327025	-0.700195	-0.180664	0.606689	-0.134645	-0.768592	0.173591	-0.600836
24437		9.781700	-1.350981	-1.663632	0.387486	-0.021851	-0.102989	-0.699463	-0.178955	0.610352	-0.131602	-0.769621	0.169778	-0.601281
24438		9.576229	-0.373589	-2.229081	-0.165863	0.022635	0.042403	-0.703613	-0.185791	0.597900	-0.132893	-0.769087	0.171453	-0.601206
24439		9.703597	-1.059079	-2.739794	-0.127727	0.083103	0.083223	-0.705322	-0.184570	0.600586	-0.133680	-0.768040	0.173122	-0.601890
24440		9.462108	-0.277644	-2.670821	0.192275	-0.000630	0.081648	-0.697510	-0.177734	0.607666	-0.131208	-0.768169	0.172517	-0.602444
24441		9.350117	0.562867	-2.615743	0.325748	-0.034177	-0.074543	-0.696045	-0.183105	0.603271	-0.128535	-0.769121	0.169471	-0.602670
24442		9.678120	1.361770	-2.661753	0.078635	-0.010202	-0.165906	-0.702393	-0.181885	0.593506	-0.129024	-0.769667	0.167373	-0.602454
24443		9.743480	0.631817	-2.158160	-0.028630	0.086239	-0.151887	-0.699219	-0.182129	0.596924	-0.130638	-0.769253	0.166043	-0.603004
24444		9.002621	-0.138030	-2.904059	-0.080987	0.031222	-0.064574	-0.697998	-0.188965	0.603027	-0.131960	-0.769001	0.166037	-0.603038
24445		9.204299	0.339446	-2.403152	0.081218	-0.067010	-0.010292	-0.703613	-0.190186	0.606445	-0.131117	-0.769657	0.165505	-0.602531
24446		9.575173	-0.262499	-2.755082	-0.050020	-0.049448	0.020461	-0.699707	-0.184814	0.603516	-0.131347	-0.769895	0.166227	-0.601979
24447		9.461596	0.319571	-2.556417	0.102440	-0.031143	0.015257	-0.701660	-0.186035	0.603027	-0.130165	-0.770254	0.165715	-0.601918
24448		9.358736	0.007374	-2.102293	0.092436	-0.010987	-0.001611	-0.703125	-0.180420	0.599609	-0.129261	-0.770473	0.165087	-0.602004
24449		9.696557	0.184947	-2.173653	-0.020833	0.041968	0.058422	-0.707764	-0.173340	0.602539	-0.129092	-0.769980	0.165796	-0.602477
24450		9.423230	-0.151607	-2.311748	-0.128919	0.045887	0.130396	-0.707275	-0.175049	0.605469	-0.129399	-0.769134	0.167993	-0.602882
24451		9.227111	-0.499030	-2.598368	-0.027109	-0.045258	0.162993	-0.706543	-0.181885	0.610352	-0.128296	-0.769076	0.169887	-0.602661
24452		9.422443	-0.376320	-2.320880	-0.040408	-0.079525	0.168302	-0.702881	-0.173340	0.609619	-0.127239	-0.769245	0.172004	-0.602069
24453		9.711947	-0.349378	-2.191220	0.076468	-0.014153	0.209145	-0.705322	-0.173096	0.605469	-0.124868	-0.769016	0.173520	-0.602422
24454		9.345254	-0.648131	-2.137393	0.029221	0.033504	0.256506	-0.705322	-0.162842	0.600586	-0.122721	-0.768234	0.175780	-0.603205
24455		9.632659	-0.831772	-2.249917	0.001533	0.062452	0.300278	-0.706543	-0.160400	0.605469	-0.120556	-0.767082	0.178616	-0.604275
24456		9.210305	-2.394335	-2.550610	-0.208919	0.156412	0.383592	-0.718750	-0.159668	0.607422	-0.119991	-0.764706	0.183700	-0.605872
24457		8.478716	-2.104743	-3.653150	0.130636	0.144857	0.530185	-0.715088	-0.143066	0.597900	-0.115046	-0.762556	0.187633	-0.608331
24458		8.564188	0.153091	-1.654090	0.989848	0.004192	0.772883	-0.718750	-0.119629	0.604004	-0.099706	-0.762026	0.187522	-0.611727
24459		8.796229	-0.086000	-1.686876	0.314955	0.067712	0.601276	-0.724365	-0.098145	0.603516	-0.092259	-0.760452	0.190834	-0.613827
24460		9.437742	-1.224103	-2.828027	0.239908	0.092451	0.578486	-0.723633	-0.082275	0.599121	-0.085729	-0.758600	0.194450	-0.615926
24461		9.497027	-0.930142	-2.298595	0.743002	0.117473	0.717526	-0.729004	-0.061035	0.592529	-0.073405	-0.756668	0.195460	-0.619565
24462		8.959708	-0.724091	-1.134669	0.275231	0.321062	0.742085	-0.734375	-0.045654	0.594482	-0.065820	-0.752551	0.200114	-0.623930
24463		8.702645	-0.163110	-1.232302	-0.163560	0.276311	0.860063	-0.743652	-0.027100	0.589111	-0.061325	-0.748044	0.209315	-0.626782
24464		8.421177	-2.109739	-2.379547	-0.142334	0.239447	0.876000	-0.740967	-0.018311	0.579346	-0.056384	-0.743697	0.218483	-0.629286
24465		9.158271	-2.070228	-3.169885	0.578104	0.196026	0.877307	-0.743652	0.008545	0.578613	-0.044630	-0.740078	0.222005	-0.633251
24466		8.541198	-3.136399	-3.089495	0.667350	0.161332	0.701893	-0.752686	0.039062	0.574463	-0.033326	-0.737153	0.223179	-0.636934
24467		8.509191	-3.769705	-2.007792	0.672051	0.158619	0.813340	-0.753906	0.065674	0.572754	-0.021053	-0.733811	0.225296	-0.640563
24468		9.137228	-2.041866	-1.039506	0.430758	0.168860	0.913366	-0.754150	0.091797	0.571045	-0.010211	-0.729917	0.230224	-0.643517
24469		9.854200	-1.544304	-0.608683	0.160392	0.148611	0.696404	-0.751953	0.106934	0.572021	-0.003509	-0.726689	0.235316	-0.645397
24470		9.997061	-2.372632	-2.105665	-0.067662	0.156800	0.494541	-0.750244	0.113770	0.564941	-0.000530	-0.723941	0.240398	-0.646620
24471		9.808626	-4.490062	-2.103720	0.104823	0.110503	0.499345	-0.752930	0.118164	0.564697	0.004182	-0.721520	0.244117	-0.647919
24472		8.931012	-3.536976	-1.778417	0.420986	0.110575	0.580958	-0.748291	0.143311	0.559570	0.012376	-0.718786	0.246013	-0.650131
24473		8.220756	-2.618546	-0.541672	0.270710	0.080158	0.540749	-0.753906	0.148682	0.566895	0.019021	-0.716397	0.248734	-0.651571
24474		9.696459	-2.758144	-1.335703	0.078797	0.132548	0.447488	-0.751709	0.163330	0.551270	0.022987	-0.713890	0.252204	-0.652859
24475		9.660189	-3.141373	-1.658090	0.313390	0.263628	0.467816	-0.755859	0.187012	0.554932	0.028816	-0.710132	0.253942	-0.656045
24476		8.676462	-2.735160	-2.374247	-0.088706	0.196999	0.480720	-0.762939	0.185303	0.555176	0.031430	-0.706999	0.259047	-0.657312
24477		9.289117	-4.246897	-2.247246	0.022346	0.174821	0.341784	-0.761475	0.187988	0.549316	0.033913	-0.704431	0.262008	-0.658771
24478		9.481178	-4.591073	-2.239783	0.265951	0.026385	0.395160	-0.757080	0.203857	0.546875	0.039450	-0.702785	0.263369	-0.659677
24479		8.745820	-3.220384	-1.083410	0.448572	-0.009619	0.443939	-0.755371	0.216309	0.540039	0.047129	-0.701150	0.263620	-0.660811
24480		8.941263	-3.018488	-1.415884	-0.006872	-0.018312	0.383141	-0.749512	0.231689	0.540527	0.050331	-0.700020	0.267076	-0.660386
24481		9.547866	-5.094580	-1.936459	-0.125192	-0.023149	0.243188	-0.755615	0.230225	0.541016	0.051390	-0.699462	0.270266	-0.659598
24482		8.859507	-4.539177	-1.801253	0.164370	-0.007659	0.313133	-0.748535	0.239258	0.552979	0.055480	-0.698336	0.271684	-0.659876
24483		8.820252	-3.602792	-1.321688	0.333237	0.042523	0.367222	-0.749512	0.247070	0.546631	0.061326	-0.696494	0.272238	-0.661076
24484		9.671765	-4.956290	-1.752407	0.321232	0.010818	0.200726	-0.755615	0.265381	0.537842	0.065782	-0.695464	0.271403	-0.662075
24485		9.615886	-4.975486	-1.259142	0.506563	-0.012002	0.217970	-0.748535	0.261475	0.538818	0.072094	-0.694371	0.269121	-0.663494
24486		8.525121	-2.974487	-0.304275	0.380373	-0.019773	0.273193	-0.739990	0.272949	0.541992	0.077745	-0.693254	0.268381	-0.664324
24487		9.202851	-4.386782	-1.130440	-0.005123	-0.058584	0.219799	-0.740723	0.279297	0.538086	0.079750	-0.693008	0.270351	-0.663543
24488		9.677219	-5.551796	-1.424942	0.231721	-0.016667	0.163003	-0.737061	0.284912	0.536133	0.083199	-0.692355	0.269882	-0.663993
24489		8.690291	-4.588021	-1.265644	0.371317	0.000442	0.212737	-0.734375	0.299805	0.530518	0.088209	-0.691231	0.268702	-0.664995
24490		7.534101	-3.265057	-1.201564	0.187492	-0.077512	0.214366	-0.734619	0.310059	0.534424	0.091924	-0.690935	0.268960	-0.664695
24491		8.254321	-4.931139	-1.027492	0.085939	-0.043418	0.141801	-0.736816	0.304932	0.531250	0.094052	-0.690712	0.269470	-0.664423
24492		8.781786	-5.403144	-0.555927	0.204002	0.048895	0.161410	-0.728027	0.319336	0.534424	0.097019	-0.689508	0.269271	-0.665326
24493		8.039578	-4.380769	-0.187692	0.192597	0.079306	0.201493	-0.739990	0.322510	0.530762	0.100149	-0.687929	0.269566	-0.666377
24494		8.710176	-4.736074	-0.831349	0.012042	0.028736	0.114918	-0.731445	0.320557	0.529785	0.101155	-0.687278	0.270533	-0.666505
24495		9.005115	-5.149730	-1.079757	0.110413	0.065266	0.176726	-0.734375	0.334473	0.527832	0.103390	-0.685989	0.271272	-0.667189
24496		8.431921	-4.055800	-0.989539	0.127945	0.118090	0.204855	-0.733643	0.333252	0.527100	0.105854	-0.684132	0.272158	-0.668348
24497		8.849501	-5.164199	-1.122943	0.042825	0.113706	0.146291	-0.738770	0.340820	0.524658	0.107094	-0.682622	0.273256	-0.669245
24498		8.946539	-5.557364	-1.238350	0.137389	0.123630	0.150948	-0.721680	0.345215	0.517578	0.109154	-0.680879	0.273602	-0.670545
24499		8.677624	-4.736348	-0.619578	0.118566	0.091227	0.139877	-0.729492	0.341797	0.513184	0.111082	-0.679468	0.273988	-0.671502
24500		9.280413	-5.066569	-0.734611	-0.006974	0.106312	0.063206	-0.727539	0.348145	0.515381	0.111221	-0.678362	0.274780	-0.672273
24501		9.117436	-5.240875	-0.388280	0.085426	0.156385	0.091819	-0.732178	0.346191	0.513428	0.112227	-0.676609	0.275116	-0.673733
24502		8.359241	-4.512748	-0.479337	0.057094	0.277420	0.103591	-0.730225	0.348389	0.505615	0.112659	-0.673831	0.275956	-0.676097
