// Start Time: Unknown
// Update Rate: 40.0Hz
// Filter Profile: human (46.1)
// Firmware Version: 4.6.0
PacketCounter	SampleTimeFine	Acc_X	Acc_Y	Acc_Z	Gyr_X	Gyr_Y	Gyr_Z	Mag_X	Mag_Y	Mag_Z	Quat_q0	Quat_q1	Quat_q2	Quat_q3
23592		9.755517	0.294168	-1.020572	0.008128	-0.005868	-0.009891	-0.591309	-0.289307	0.650879	-0.160450	-0.726303	0.156351	-0.649841
23593		9.746976	0.331677	-1.016949	0.010771	-0.005551	-0.010903	-0.588135	-0.283691	0.653809	-0.160430	-0.726391	0.156176	-0.649790
23594		9.755627	0.324645	-1.036376	0.009081	-0.006520	-0.006217	-0.593994	-0.282227	0.649658	-0.160378	-0.726478	0.156058	-0.649734
23595		9.763052	0.291359	-1.064708	0.009045	-0.004659	-0.009302	-0.584229	-0.276855	0.638184	-0.160363	-0.726553	0.155908	-0.649690
23596		9.766118	0.331793	-1.008777	0.004650	-0.005115	-0.007335	-0.587646	-0.284424	0.655762	-0.160371	-0.726621	0.155814	-0.649635
23597		9.754323	0.294792	-1.023256	0.006404	-0.004971	-0.008290	-0.588379	-0.283203	0.654053	-0.160373	-0.726692	0.155694	-0.649583
23598		9.763599	0.301186	-1.037997	0.005004	-0.005947	-0.011138	-0.590088	-0.288574	0.656006	-0.160409	-0.726773	0.155562	-0.649515
23599		9.754919	0.316788	-1.012948	0.003242	-0.006912	-0.009994	-0.586670	-0.283936	0.651123	-0.160448	-0.726857	0.155458	-0.649436
23600		9.745086	0.328071	-1.018593	0.007258	-0.006644	-0.008809	-0.578125	-0.288818	0.651611	-0.160444	-0.726943	0.155329	-0.649372
23601		9.743687	0.325790	-1.050920	0.007291	-0.007057	-0.006943	-0.592285	-0.285645	0.651855	-0.160428	-0.727029	0.155215	-0.649308
23602		9.772224	0.299742	-1.040852	0.004670	-0.007169	-0.005090	-0.591797	-0.287598	0.652588	-0.160421	-0.727107	0.155138	-0.649240
23603		9.743608	0.310228	-1.024313	0.008218	-0.008737	-0.003917	-0.585693	-0.286133	0.650391	-0.160367	-0.727204	0.155048	-0.649167
23604		9.771484	0.328143	-1.079560	0.006438	-0.007641	-0.005018	-0.585938	-0.287354	0.649902	-0.160339	-0.727289	0.154961	-0.649099
23605		9.789228	0.263065	-1.060581	0.001130	-0.004774	-0.006454	-0.594971	-0.289062	0.656006	-0.160378	-0.727350	0.154898	-0.649036
23606		9.762328	0.326786	-1.047312	0.002396	-0.006670	-0.008259	-0.583496	-0.284424	0.650146	-0.160406	-0.727430	0.154822	-0.648957
23607		9.723248	0.338525	-1.051758	0.000257	-0.005566	-0.005367	-0.587158	-0.293701	0.653809	-0.160429	-0.727496	0.154786	-0.648887
23608		9.721500	0.309269	-1.070103	-0.000955	0.000655	-0.003675	-0.590576	-0.284424	0.650635	-0.160482	-0.727508	0.154758	-0.648867
23609		9.759005	0.243787	-1.049893	0.010896	0.002513	-0.010114	-0.580078	-0.283936	0.642090	-0.160459	-0.727536	0.154576	-0.648884
23610		9.799951	0.314862	-1.063119	0.009089	0.002580	-0.011863	-0.583252	-0.280273	0.649902	-0.160463	-0.727559	0.154407	-0.648898
23611		9.761495	0.309978	-1.035112	0.005527	0.002500	-0.012656	-0.583984	-0.284180	0.648682	-0.160481	-0.727589	0.154257	-0.648895
23612		9.731947	0.318421	-1.046162	0.006894	0.006164	-0.013088	-0.587158	-0.288086	0.658691	-0.160513	-0.727585	0.154087	-0.648932
23613		9.741003	0.321188	-1.067115	0.009104	0.004237	-0.012246	-0.587402	-0.278564	0.647949	-0.160509	-0.727617	0.153902	-0.648941
23614		9.732275	0.341351	-1.052635	0.009138	0.003825	-0.010379	-0.577637	-0.277344	0.648682	-0.160464	-0.727623	0.153746	-0.648982
23615		9.760991	0.329259	-1.057264	0.008758	0.003630	-0.007224	-0.588379	-0.290527	0.655518	-0.160402	-0.727653	0.153609	-0.648996
23616		9.752630	0.321933	-1.007794	0.001277	0.006558	-0.006419	-0.582031	-0.275146	0.648926	-0.160450	-0.727634	0.153535	-0.649023
23617		9.751717	0.306017	-1.019769	0.004802	0.003969	-0.005891	-0.583984	-0.292725	0.654297	-0.160385	-0.727635	0.153443	-0.649060
23618		9.759662	0.281413	-1.049999	0.004744	0.003357	-0.008407	-0.590088	-0.289307	0.651855	-0.160442	-0.727653	0.153327	-0.649054
23619		9.761352	0.322552	-1.035984	0.007374	0.002036	-0.009041	-0.587402	-0.283203	0.653320	-0.160446	-0.727656	0.153205	-0.649078
23620		9.741010	0.316513	-1.052077	0.007865	0.004906	-0.008386	-0.592285	-0.285400	0.645264	-0.160394	-0.727653	0.153069	-0.649126
23621		9.751392	0.330814	-1.046803	0.004374	0.004811	-0.005635	-0.584473	-0.287842	0.650879	-0.160397	-0.727579	0.153016	-0.649220
23622		9.771013	0.309728	-1.024566	0.000799	0.005342	-0.007459	-0.580078	-0.284912	0.641113	-0.160463	-0.727560	0.152951	-0.649241
23623		9.770507	0.298599	-1.028037	0.008270	0.003044	-0.009291	-0.578369	-0.290039	0.652344	-0.160499	-0.727547	0.152836	-0.649274
23624		9.760553	0.335803	-1.066250	0.005220	0.001490	-0.005768	-0.589600	-0.287109	0.648926	-0.160534	-0.727600	0.152756	-0.649224
23625		9.720897	0.294284	-1.043105	0.004805	0.001708	-0.004481	-0.584717	-0.289551	0.641602	-0.160519	-0.727573	0.152707	-0.649270
23626		9.799351	0.319536	-1.057908	0.007427	0.004103	-0.007748	-0.583984	-0.292725	0.647705	-0.160598	-0.727517	0.152631	-0.649332
23627		9.760825	0.304549	-1.025351	0.000367	0.003088	-0.005599	-0.581055	-0.282471	0.650879	-0.160736	-0.727491	0.152626	-0.649327
23628		9.712299	0.346773	-1.053210	0.003935	0.004006	-0.004997	-0.595459	-0.290283	0.641602	-0.160666	-0.727517	0.152546	-0.649334
23629		9.730406	0.316891	-1.070433	-0.000037	0.004956	-0.004696	-0.586426	-0.276611	0.644531	-0.160778	-0.727358	0.152567	-0.649480
23630		9.762571	0.338290	-1.004124	0.003132	0.008566	-0.003381	-0.588135	-0.281982	0.647461	-0.160621	-0.727281	0.152483	-0.649624
23631		9.759808	0.277981	-1.037533	0.003593	0.007313	-0.001769	-0.586914	-0.289307	0.645996	-0.160524	-0.727211	0.152432	-0.649739
23632		9.780162	0.278134	-1.014659	0.005709	0.006636	-0.006528	-0.586182	-0.281738	0.654297	-0.160599	-0.727146	0.152374	-0.649807
23633		9.752746	0.328604	-1.002760	0.004826	0.009555	-0.008076	-0.587646	-0.286133	0.635498	-0.160481	-0.727143	0.152214	-0.649876
23634		9.761206	0.299520	-1.018728	0.008372	0.007176	-0.006704	-0.591064	-0.282471	0.640381	-0.160574	-0.726984	0.152182	-0.650039
23635		9.721731	0.311041	-1.042168	0.009231	0.005503	-0.007218	-0.587158	-0.291504	0.651611	-0.160513	-0.726865	0.152081	-0.650211
23636		9.753080	0.355119	-1.019340	0.006627	0.008677	-0.006134	-0.583496	-0.281494	0.641602	-0.160588	-0.726831	0.152006	-0.650248
23637		9.761604	0.303199	-1.013810	0.006243	0.006208	-0.001563	-0.588379	-0.279297	0.652344	-0.160501	-0.726773	0.151951	-0.650347
23638		9.761308	0.299264	-1.021514	0.008396	0.002845	-0.003036	-0.588135	-0.295898	0.641357	-0.160221	-0.726813	0.151787	-0.650410
23639		9.762505	0.334229	-1.016444	0.002703	0.001773	0.001309	-0.591797	-0.287598	0.646729	-0.160494	-0.726697	0.151943	-0.650436
23640		9.750747	0.281632	-1.033584	0.004938	0.000879	0.002806	-0.585449	-0.285400	0.643555	-0.160444	-0.726631	0.151976	-0.650514
23641		9.751303	0.294209	-1.028892	0.007552	0.001630	-0.000078	-0.589355	-0.281250	0.656250	-0.160398	-0.726606	0.151960	-0.650557
23642		9.751620	0.289535	-1.015443	0.003138	0.001762	0.000860	-0.584229	-0.290039	0.652344	-0.160130	-0.726670	0.151867	-0.650573
23643		9.741280	0.289727	-1.036282	0.002267	0.004058	0.000341	-0.587646	-0.290283	0.646973	-0.160174	-0.726703	0.151877	-0.650523
23644		9.771558	0.306089	-1.023073	-0.000830	0.003532	0.000965	-0.584717	-0.275635	0.651855	-0.160291	-0.726643	0.151963	-0.650541
23645		9.741867	0.271895	-1.004222	0.002221	0.001998	-0.000951	-0.586914	-0.284180	0.648682	-0.159956	-0.726723	0.151837	-0.650563
23646		9.751791	0.280768	-1.008300	0.003078	0.002593	-0.002878	-0.594482	-0.286621	0.655029	-0.159894	-0.726725	0.151792	-0.650587
23647		9.731157	0.269047	-1.033337	0.004400	0.002761	-0.003385	-0.582764	-0.286377	0.644287	-0.159775	-0.726718	0.151701	-0.650646
23648		9.818989	0.267622	-1.035529	0.010079	0.001358	-0.007152	-0.583252	-0.279541	0.658447	-0.159821	-0.726740	0.151622	-0.650628
23649		9.791481	0.304444	-1.008220	0.003027	-0.000292	-0.003977	-0.589355	-0.288818	0.646729	-0.159532	-0.726924	0.151453	-0.650533
23650		9.731241	0.280821	-1.037201	0.007477	-0.000011	-0.003238	-0.581787	-0.287842	0.647705	-0.159573	-0.726894	0.151434	-0.650561
23651		9.741098	0.290062	-1.041798	0.003032	0.000534	-0.004170	-0.586182	-0.282471	0.644775	-0.159660	-0.726944	0.151423	-0.650486
23652		9.751130	0.264293	-1.007281	0.001705	-0.000459	-0.003470	-0.589355	-0.280273	0.644043	-0.159625	-0.726928	0.151419	-0.650513
23653		9.769810	0.256195	-1.025697	0.010494	-0.001950	-0.006830	-0.589844	-0.283691	0.647705	-0.159470	-0.726911	0.151308	-0.650596
23654		9.789334	0.266049	-1.031197	0.011782	-0.002190	-0.009014	-0.584717	-0.280273	0.648926	-0.159365	-0.726934	0.151161	-0.650631
23655		9.750564	0.295286	-1.043273	0.009158	0.000777	-0.008773	-0.589844	-0.290527	0.637939	-0.159202	-0.727001	0.150990	-0.650635
23656		9.750935	0.279783	-1.012778	0.010006	-0.000276	-0.010316	-0.582031	-0.287842	0.650391	-0.159482	-0.726869	0.151017	-0.650708
23657		9.751054	0.299621	-1.021742	0.009097	-0.001485	-0.010902	-0.589600	-0.281982	0.648193	-0.159539	-0.726989	0.150887	-0.650590
23658		9.751531	0.323549	-1.022161	0.008257	-0.001874	-0.008136	-0.590332	-0.284424	0.643555	-0.159400	-0.727009	0.150751	-0.650633
23659		9.750100	0.294658	-1.039967	0.008301	0.000188	-0.006847	-0.588867	-0.280762	0.653320	-0.159394	-0.726940	0.150694	-0.650726
23660		9.760051	0.291123	-1.027644	0.008313	-0.003527	-0.004201	-0.583984	-0.284424	0.647217	-0.159121	-0.727040	0.150534	-0.650718
23661		9.759847	0.283377	-1.023996	0.005647	-0.001801	-0.005445	-0.595947	-0.278076	0.650879	-0.159116	-0.727088	0.150484	-0.650676
23662		9.759403	0.280351	-1.032973	0.003433	0.000118	-0.006298	-0.591309	-0.276855	0.652588	-0.158844	-0.727049	0.150343	-0.650819
23663		9.738976	0.265365	-1.045505	0.003804	0.000112	-0.010294	-0.593750	-0.280518	0.644775	-0.158573	-0.727091	0.150135	-0.650886
23664		9.740440	0.285021	-1.010423	0.003391	0.001155	-0.009202	-0.589111	-0.282471	0.648438	-0.158532	-0.726989	0.150080	-0.651023
23665		9.749152	0.291879	-1.045861	0.011690	-0.002568	-0.014242	-0.588623	-0.283203	0.654053	-0.158459	-0.727039	0.149878	-0.651032
23666		9.769163	0.294313	-1.025346	0.009063	-0.002703	-0.012389	-0.587158	-0.279785	0.647705	-0.158318	-0.727154	0.149643	-0.650992
23667		9.759809	0.288554	-0.999712	0.008172	-0.003708	-0.012136	-0.581543	-0.286377	0.642090	-0.158218	-0.727212	0.149487	-0.650987
23668		9.769367	0.291022	-1.001176	0.008165	-0.005356	-0.011748	-0.591553	-0.281982	0.643066	-0.158430	-0.727254	0.149478	-0.650890
23669		9.750100	0.346088	-1.028408	0.008219	-0.007835	-0.007617	-0.586670	-0.286865	0.646484	-0.158401	-0.727223	0.149452	-0.650937
23670		9.756695	0.281767	-1.073981	0.002977	-0.004815	-0.004685	-0.579346	-0.283936	0.652832	-0.158505	-0.727236	0.149485	-0.650890
23671		9.795977	0.246896	-1.036677	-0.001860	-0.001391	-0.004073	-0.590332	-0.285889	0.650635	-0.158497	-0.727372	0.149444	-0.650749
23672		9.729138	0.306491	-1.030284	-0.000096	0.000422	-0.005419	-0.588379	-0.284424	0.652344	-0.158519	-0.727350	0.149418	-0.650775
23673		9.727504	0.282025	-1.060904	-0.003261	-0.000937	-0.008146	-0.589355	-0.284180	0.643799	-0.158529	-0.727383	0.149359	-0.650750
23674		9.738326	0.296922	-1.034997	0.002067	0.000992	-0.008698	-0.583008	-0.279297	0.652588	-0.158627	-0.727297	0.149359	-0.650821
23675		9.756397	0.250696	-1.044098	0.005583	0.001319	-0.010613	-0.591553	-0.278320	0.643555	-0.158456	-0.727405	0.149152	-0.650790
23676		9.786907	0.283243	-1.027037	0.008218	0.003116	-0.012858	-0.588867	-0.284668	0.653076	-0.158373	-0.727309	0.149016	-0.650949
23677		9.767024	0.282237	-1.034339	0.008674	0.004138	-0.012664	-0.586182	-0.283936	0.645264	-0.158306	-0.727338	0.148796	-0.650982
23678		9.747506	0.285949	-1.032852	0.010382	0.003693	-0.016138	-0.590088	-0.283936	0.651367	-0.158386	-0.727314	0.148641	-0.651026
23679		9.717159	0.286170	-1.061783	0.013881	0.003000	-0.018698	-0.587402	-0.285400	0.648682	-0.158321	-0.727343	0.148343	-0.651077
23680		9.757862	0.302618	-1.014587	0.017408	0.001068	-0.019192	-0.581299	-0.282227	0.645996	-0.158325	-0.727387	0.148068	-0.651090
23681		9.749084	0.376000	-1.027541	0.012660	-0.000687	-0.011152	-0.590088	-0.281494	0.645996	-0.158302	-0.727452	0.147927	-0.651055
23682		9.747354	0.325154	-1.045184	0.009240	-0.000618	-0.004010	-0.587158	-0.279297	0.645264	-0.158187	-0.727410	0.147864	-0.651144
23683		9.747028	0.329952	-1.058321	-0.000450	0.000630	-0.000585	-0.592285	-0.290527	0.645264	-0.158110	-0.727359	0.147902	-0.651211
23684		9.757999	0.312286	-1.006408	0.000445	-0.002281	0.000976	-0.585693	-0.280762	0.645996	-0.158280	-0.727259	0.148049	-0.651248
23685		9.756881	0.298666	-1.033111	0.004025	-0.001953	0.002609	-0.588135	-0.280762	0.647705	-0.158159	-0.727257	0.148081	-0.651272
23686		9.746561	0.267652	-1.029023	0.004007	-0.002983	0.001966	-0.595459	-0.291504	0.645264	-0.158006	-0.727261	0.148085	-0.651303
23687		9.755925	0.271757	-1.043244	0.002152	-0.003552	-0.002302	-0.584473	-0.291992	0.647705	-0.158194	-0.727153	0.148195	-0.651353
23688		9.736646	0.277674	-1.034772	0.005606	-0.003209	-0.007769	-0.594238	-0.282471	0.646729	-0.158431	-0.727191	0.148220	-0.651248
23689		9.756656	0.270313	-1.009965	0.006493	-0.003022	-0.007829	-0.589600	-0.289551	0.645264	-0.158345	-0.727151	0.148122	-0.651335
23690		9.746583	0.302706	-1.036771	0.012702	-0.003365	-0.007859	-0.585449	-0.282227	0.645020	-0.158447	-0.727137	0.148077	-0.651337
23691		9.744553	0.265272	-1.072356	0.013545	-0.002139	-0.010827	-0.579102	-0.279053	0.644531	-0.158396	-0.727172	0.147928	-0.651344
23692		9.755718	0.302444	-1.047007	0.013097	-0.000681	-0.011608	-0.581787	-0.279541	0.646484	-0.158319	-0.727254	0.147759	-0.651309
23693		9.765670	0.291512	-1.029973	0.005599	-0.000107	-0.009392	-0.588135	-0.283691	0.651855	-0.158266	-0.727306	0.147650	-0.651288
23694		9.746144	0.311595	-1.038268	0.004696	-0.000497	-0.010171	-0.584961	-0.284424	0.651367	-0.158231	-0.727349	0.147520	-0.651279
23695		9.725479	0.292242	-1.059171	0.001201	0.002669	-0.008199	-0.593018	-0.281982	0.645752	-0.158263	-0.727376	0.147450	-0.651257
23696		9.746124	0.315685	-1.037224	0.003429	0.004066	-0.008127	-0.590820	-0.284668	0.647705	-0.158236	-0.727272	0.147372	-0.651397
23697		9.756191	0.303989	-1.019384	0.003908	0.001371	-0.005276	-0.588623	-0.282471	0.649170	-0.158234	-0.727223	0.147334	-0.651461
23698		9.763830	0.269844	-1.067001	0.005702	0.003602	-0.004951	-0.589355	-0.279785	0.642822	-0.158153	-0.727199	0.147246	-0.651527
23699		9.765721	0.301953	-1.026477	0.003903	0.007770	-0.007686	-0.579346	-0.279297	0.648682	-0.158136	-0.727078	0.147182	-0.651681
23700		9.765511	0.299293	-1.033359	0.001693	0.007404	-0.007116	-0.592285	-0.277832	0.646973	-0.158097	-0.727105	0.147093	-0.651680
23701		9.734248	0.266750	-1.078674	0.004743	0.006523	-0.010066	-0.592285	-0.281494	0.645020	-0.157961	-0.727028	0.146926	-0.651836
23702		9.754563	0.286600	-1.064807	0.013102	0.005745	-0.014018	-0.588623	-0.286621	0.649658	-0.157911	-0.726955	0.146725	-0.651976
23703		9.756031	0.333004	-1.042136	0.010935	0.003516	-0.010344	-0.590332	-0.285645	0.650391	-0.157930	-0.726958	0.146583	-0.652000
23704		9.766513	0.343117	-1.024115	0.003073	0.004279	-0.003291	-0.585938	-0.280273	0.645752	-0.157916	-0.726923	0.146543	-0.652051
23705		9.755435	0.290958	-1.039807	0.001391	0.005953	0.001663	-0.584717	-0.287598	0.650879	-0.157844	-0.726863	0.146574	-0.652129
23706		9.755870	0.286437	-1.025605	0.002230	0.003052	-0.000322	-0.583008	-0.279297	0.647949	-0.157889	-0.726880	0.146598	-0.652094
23707		9.755623	0.282299	-1.033394	0.003976	0.004673	-0.002513	-0.579834	-0.286865	0.647217	-0.157788	-0.726892	0.146545	-0.652116
23708		9.746277	0.287303	-1.023528	0.006636	0.002764	-0.002102	-0.586914	-0.286865	0.652100	-0.157877	-0.726925	0.146573	-0.652052
23709		9.756019	0.270331	-1.014544	0.006589	0.001325	-0.004421	-0.590576	-0.287109	0.652588	-0.157866	-0.726966	0.146505	-0.652024
23710		9.756718	0.297703	-1.005768	0.009657	0.000651	-0.006530	-0.585205	-0.283203	0.648926	-0.157818	-0.726998	0.146379	-0.652028
23711		9.765509	0.302941	-1.040783	0.004364	0.001576	-0.004887	-0.599365	-0.281494	0.647217	-0.157802	-0.727020	0.146335	-0.652017
23712		9.745261	0.269462	-1.044089	0.002138	0.001000	-0.005156	-0.588135	-0.282959	0.645264	-0.157700	-0.726923	0.146264	-0.652166
23713		9.755634	0.271109	-1.022383	0.004725	0.000547	-0.009529	-0.587891	-0.281982	0.638428	-0.157744	-0.726908	0.146207	-0.652185
23714		9.755539	0.273140	-1.022745	0.010934	-0.003077	-0.008767	-0.588623	-0.284912	0.653809	-0.157793	-0.726871	0.146184	-0.652219
23715		9.794191	0.287018	-1.041878	0.010109	0.000031	-0.005946	-0.586914	-0.280518	0.645020	-0.157684	-0.726939	0.146040	-0.652202
23716		9.746352	0.301951	-1.014318	0.000407	0.000409	-0.002324	-0.582031	-0.288574	0.649902	-0.157666	-0.726914	0.146071	-0.652227
23717		9.745013	0.276505	-1.044570	0.001687	0.000804	-0.005547	-0.589355	-0.282959	0.645996	-0.157813	-0.726961	0.146097	-0.652134
23718		9.735897	0.286835	-1.026613	0.000800	0.001440	-0.005684	-0.583252	-0.282959	0.646484	-0.157840	-0.726922	0.146090	-0.652172
23719		9.754696	0.270321	-1.040335	0.006544	-0.002583	-0.006148	-0.581543	-0.280029	0.648926	-0.157846	-0.726977	0.146060	-0.652116
23720		9.764030	0.267057	-1.049916	0.010094	-0.001819	-0.006390	-0.589111	-0.281250	0.650879	-0.157740	-0.727072	0.145955	-0.652060
23721		9.773428	0.264026	-1.058856	0.009195	0.002742	-0.008355	-0.589111	-0.284912	0.643799	-0.157622	-0.727090	0.145795	-0.652103
23722		9.745795	0.297142	-1.018257	0.007420	0.003188	-0.008432	-0.588867	-0.285400	0.658936	-0.157693	-0.727031	0.145752	-0.652162
23723		9.744789	0.285898	-1.044129	0.010926	-0.000789	-0.010200	-0.583984	-0.289551	0.648438	-0.157566	-0.727151	0.145529	-0.652108
23724		9.734311	0.296533	-1.070300	0.011407	-0.000179	-0.008135	-0.587646	-0.281738	0.651611	-0.157662	-0.727195	0.145469	-0.652050
23725		9.744653	0.298302	-1.048809	0.010956	0.000451	-0.008723	-0.580566	-0.287842	0.648193	-0.157547	-0.727248	0.145308	-0.652054
23726		9.755314	0.304071	-1.018765	0.009691	-0.001391	-0.004264	-0.586914	-0.280273	0.651367	-0.157617	-0.727312	0.145306	-0.651966
23727		9.764366	0.295938	-1.036834	0.006577	-0.001338	-0.004670	-0.590576	-0.281006	0.644043	-0.157490	-0.727365	0.145220	-0.651957
23728		9.754215	0.275098	-1.036853	0.004817	-0.002343	-0.003511	-0.585449	-0.276611	0.648193	-0.157441	-0.727332	0.145215	-0.652007
23729		9.764220	0.280016	-1.028986	0.006607	-0.001753	-0.002795	-0.589600	-0.280518	0.646240	-0.157274	-0.727372	0.145156	-0.652015
23730		9.753696	0.263409	-1.042638	0.005662	-0.006067	-0.005293	-0.586914	-0.276123	0.649658	-0.157206	-0.727400	0.145122	-0.652009
23731		9.734949	0.303870	-1.030692	0.003057	-0.004998	-0.001956	-0.579102	-0.288330	0.649902	-0.157030	-0.727460	0.145086	-0.651993
23732		9.753093	0.260342	-1.053609	0.001266	-0.002284	-0.003467	-0.588379	-0.283936	0.642578	-0.157178	-0.727528	0.145163	-0.651863
23733		9.752981	0.270120	-1.058732	0.003886	-0.003147	-0.005967	-0.588623	-0.283691	0.647949	-0.157257	-0.727498	0.145198	-0.651871
23734		9.753501	0.272141	-1.037680	0.005151	-0.002953	-0.010030	-0.579590	-0.282715	0.656494	-0.157287	-0.727520	0.145131	-0.651853
23735		9.742615	0.261385	-1.064340	0.010449	-0.003855	-0.011677	-0.588867	-0.277588	0.655029	-0.157231	-0.727690	0.144971	-0.651713
23736		9.733287	0.299190	-1.060786	0.008222	-0.001960	-0.012540	-0.581299	-0.284424	0.651611	-0.157063	-0.727776	0.144754	-0.651706
23737		9.801534	0.274941	-1.049960	0.010012	-0.001366	-0.011825	-0.589600	-0.283203	0.644043	-0.157089	-0.727866	0.144634	-0.651625
23738		9.753243	0.295307	-1.035973	0.004760	-0.001501	-0.007265	-0.583252	-0.272461	0.643311	-0.157132	-0.727826	0.144625	-0.651661
23739		9.703376	0.310049	-1.073908	0.006575	0.001977	-0.005470	-0.582520	-0.280273	0.655518	-0.157002	-0.727807	0.144575	-0.651725
23740		9.732155	0.276120	-1.077868	0.003004	0.005952	-0.007259	-0.581787	-0.280518	0.643555	-0.156942	-0.727844	0.144473	-0.651720
23741		9.763424	0.304041	-1.025318	-0.003631	0.004807	-0.005541	-0.576904	-0.284424	0.657227	-0.157076	-0.727781	0.144566	-0.651739
23742		9.782559	0.243790	-1.015427	0.002628	0.004301	-0.002857	-0.591309	-0.289307	0.648682	-0.157075	-0.727864	0.144548	-0.651650
23743		9.781689	0.249127	-1.048957	0.008752	0.007735	-0.009115	-0.582520	-0.284180	0.652100	-0.157156	-0.727781	0.144458	-0.651742
23744		9.753984	0.308552	-1.020649	0.005201	0.007787	-0.009070	-0.588623	-0.277100	0.650146	-0.157202	-0.727778	0.144381	-0.651752
23745		9.752907	0.283779	-1.049277	0.006572	0.006114	-0.006467	-0.587891	-0.283447	0.648193	-0.157065	-0.727745	0.144264	-0.651848
23746		9.722823	0.272202	-1.073053	0.010997	0.006057	-0.007412	-0.593018	-0.283203	0.656494	-0.157034	-0.727705	0.144161	-0.651923
23747		9.763132	0.308512	-1.046902	0.010109	0.006691	-0.007551	-0.593262	-0.276855	0.646729	-0.156888	-0.727695	0.143967	-0.652013
23748		9.753945	0.262391	-1.009914	0.013229	0.004174	-0.006548	-0.586914	-0.276367	0.651367	-0.156704	-0.727640	0.143818	-0.652151
23749		9.763929	0.302176	-1.018715	0.009751	0.001942	-0.001511	-0.583252	-0.281006	0.646484	-0.156495	-0.727660	0.143732	-0.652197
23750		9.752515	0.249725	-1.056642	0.009286	0.002364	-0.002939	-0.589111	-0.278076	0.649414	-0.156464	-0.727655	0.143727	-0.652211
23751		9.744509	0.294901	-1.012663	0.002139	0.002666	-0.005565	-0.592773	-0.283203	0.647949	-0.156402	-0.727632	0.143686	-0.652261
23752		9.744239	0.291508	-1.020778	0.001280	0.002054	-0.003627	-0.588867	-0.285645	0.655029	-0.156404	-0.727573	0.143694	-0.652325
23753		9.723669	0.248498	-1.041017	0.004846	0.002215	-0.002833	-0.579102	-0.275879	0.649902	-0.156346	-0.727594	0.143634	-0.652329
23754		9.783370	0.275524	-1.012266	0.010097	-0.000318	-0.007630	-0.595459	-0.283447	0.642822	-0.156254	-0.727675	0.143550	-0.652278
23755		9.753688	0.289627	-1.029136	0.005752	0.000139	-0.001455	-0.581299	-0.289551	0.647705	-0.156244	-0.727582	0.143591	-0.652375
23756		9.743943	0.290242	-1.028556	-0.000934	0.002494	-0.003256	-0.585938	-0.281250	0.648193	-0.156445	-0.727569	0.143709	-0.652316
23757		9.753495	0.277836	-1.032358	-0.002711	0.002928	-0.003334	-0.586914	-0.281494	0.642334	-0.156496	-0.727537	0.143774	-0.652326
23758		9.734054	0.261481	-1.022564	0.005275	-0.000470	-0.003520	-0.588623	-0.277344	0.648193	-0.156527	-0.727500	0.143828	-0.652347
23759		9.841578	0.291187	-1.030549	0.003554	-0.000868	0.000156	-0.587402	-0.282227	0.639160	-0.156403	-0.727497	0.143844	-0.652377
23760		9.733603	0.217995	-1.022134	-0.006643	0.001316	0.001115	-0.595947	-0.285645	0.646484	-0.156554	-0.727388	0.144068	-0.652413
23761		9.733567	0.292455	-1.049378	0.003024	-0.002298	-0.005263	-0.581299	-0.285645	0.648926	-0.156571	-0.727348	0.144064	-0.652453
23762		9.733887	0.288945	-1.036116	-0.004884	0.003155	-0.000247	-0.584961	-0.276123	0.651855	-0.156715	-0.727330	0.144228	-0.652403
23763		9.753689	0.245708	-1.013370	0.002191	0.004314	-0.002413	-0.588867	-0.281738	0.642334	-0.156602	-0.727336	0.144203	-0.652429
23764		9.772458	0.224220	-1.034557	0.008806	0.003416	-0.005405	-0.579834	-0.286865	0.643066	-0.156605	-0.727274	0.144190	-0.652500
23765		9.782222	0.243028	-1.042675	0.009198	0.006104	-0.009173	-0.585449	-0.289062	0.649658	-0.156789	-0.727240	0.144222	-0.652487
23766		9.743841	0.254653	-1.022800	0.007833	0.006126	-0.011379	-0.588867	-0.278076	0.648926	-0.156937	-0.727222	0.144181	-0.652480
23767		9.752951	0.282785	-1.056916	0.010949	0.006093	-0.010973	-0.592773	-0.281250	0.648926	-0.156843	-0.727207	0.144015	-0.652557
23768		9.753105	0.267720	-1.046740	0.005638	0.004293	-0.009568	-0.594727	-0.281494	0.648926	-0.156807	-0.727170	0.143909	-0.652629
23769		9.753952	0.291426	-1.024258	0.011034	0.004022	-0.005140	-0.587646	-0.282959	0.650635	-0.156676	-0.727130	0.143791	-0.652732
23770		9.754583	0.292408	-1.001947	0.008405	0.000535	-0.002476	-0.589600	-0.286621	0.653320	-0.156608	-0.727151	0.143772	-0.652729
23771		9.743619	0.236119	-1.026928	0.005699	0.000982	-0.005210	-0.592285	-0.282715	0.647705	-0.156611	-0.727171	0.143745	-0.652712
23772		9.762611	0.219794	-1.040236	0.008315	-0.000071	-0.008546	-0.586914	-0.286621	0.638428	-0.156577	-0.727167	0.143661	-0.652743
23773		9.764090	0.266406	-0.997349	0.005600	-0.000656	-0.011917	-0.586426	-0.276123	0.643311	-0.156772	-0.727128	0.143693	-0.652732
23774		9.762871	0.251267	-1.032476	0.008696	-0.002748	-0.012786	-0.593018	-0.276123	0.649902	-0.156736	-0.727163	0.143590	-0.652726
23775		9.753026	0.293315	-1.042067	0.006491	-0.001280	-0.011778	-0.586182	-0.278320	0.644775	-0.156613	-0.727190	0.143429	-0.652759
23776		9.742889	0.291241	-1.050767	0.005203	-0.000859	-0.008752	-0.586426	-0.280029	0.644531	-0.156611	-0.727201	0.143403	-0.652754
23777		9.772909	0.258877	-1.012189	0.008285	-0.002328	-0.010661	-0.590576	-0.276855	0.647461	-0.156621	-0.727227	0.143351	-0.652734
23778		9.743800	0.304646	-1.012640	0.004796	-0.002096	-0.006223	-0.582520	-0.282715	0.648926	-0.156518	-0.727242	0.143294	-0.652755
23779		9.742531	0.257703	-1.043081	0.007438	-0.002735	-0.007883	-0.592529	-0.279297	0.646729	-0.156552	-0.727305	0.143293	-0.652676
23780		9.742382	0.259667	-1.043990	0.006079	-0.004371	-0.009685	-0.587891	-0.289062	0.644287	-0.156493	-0.727329	0.143211	-0.652682
23781		9.810548	0.261270	-1.046924	0.007429	-0.003763	-0.008520	-0.583740	-0.278320	0.648438	-0.156627	-0.727338	0.143255	-0.652629
23782		9.732514	0.237931	-1.032155	0.002960	-0.003514	-0.010293	-0.587402	-0.284180	0.649170	-0.156643	-0.727399	0.143233	-0.652563
23783		9.741723	0.292274	-1.059890	0.003847	0.000197	-0.010325	-0.591797	-0.281250	0.641113	-0.156715	-0.727410	0.143215	-0.652537
23784		9.722209	0.286486	-1.054694	-0.001075	0.001069	-0.012687	-0.584961	-0.278809	0.651611	-0.156826	-0.727347	0.143203	-0.652583
23785		9.742821	0.268111	-1.010687	0.003834	0.003507	-0.011134	-0.587646	-0.288330	0.642334	-0.156822	-0.727367	0.143128	-0.652579
23786		9.780426	0.226375	-1.054192	0.006473	0.001016	-0.013229	-0.581543	-0.284668	0.645752	-0.157005	-0.727334	0.143135	-0.652569
23787		9.771238	0.260422	-1.036671	0.010900	0.001815	-0.014378	-0.579834	-0.279785	0.653320	-0.157123	-0.727357	0.143088	-0.652526
23788		9.742609	0.285992	-1.013912	0.006904	0.002672	-0.014085	-0.591553	-0.282471	0.647705	-0.157163	-0.727421	0.143009	-0.652462
23789		9.732184	0.289196	-1.035020	0.007762	0.001437	-0.016461	-0.585449	-0.281006	0.653809	-0.157186	-0.727419	0.142859	-0.652491
23790		9.732299	0.275528	-1.025648	0.008224	0.001848	-0.015235	-0.593994	-0.279053	0.648926	-0.157188	-0.727473	0.142725	-0.652461
23791		9.761903	0.296695	-1.013558	0.010439	-0.000432	-0.016041	-0.585205	-0.280273	0.647705	-0.157096	-0.727493	0.142508	-0.652508
23792		9.751427	0.299491	-1.035257	0.006947	-0.000214	-0.011601	-0.593262	-0.278076	0.650879	-0.157103	-0.727521	0.142444	-0.652489
23793		9.751747	0.319490	-1.022543	0.004769	-0.000002	-0.008511	-0.593750	-0.283691	0.647461	-0.156983	-0.727528	0.142331	-0.652535
23794		9.750931	0.255869	-1.043351	0.002960	-0.001016	-0.010903	-0.586914	-0.274414	0.644287	-0.157004	-0.727514	0.142276	-0.652557
23795		9.751562	0.293787	-1.018578	0.007415	-0.005169	-0.010835	-0.592041	-0.283691	0.658447	-0.156914	-0.727564	0.142189	-0.652542
23796		9.751234	0.283147	-1.023781	0.004738	-0.003293	-0.011258	-0.582764	-0.288330	0.650635	-0.156850	-0.727642	0.142065	-0.652497
23797		9.759883	0.289620	-1.059652	0.002499	-0.001419	-0.012132	-0.585449	-0.280273	0.646973	-0.157014	-0.727686	0.142095	-0.652403
23798		9.760841	0.301736	-1.021147	0.002976	-0.003490	-0.010296	-0.586182	-0.280518	0.656250	-0.157044	-0.727721	0.142090	-0.652357
23799		9.741029	0.312448	-1.026143	0.006576	-0.004547	-0.007420	-0.584229	-0.283447	0.654053	-0.156945	-0.727817	0.142022	-0.652289
23800		9.730605	0.283032	-1.043837	-0.000950	-0.004108	-0.005199	-0.585449	-0.278320	0.654541	-0.156970	-0.727880	0.142082	-0.652199
23801		9.759622	0.271214	-1.049732	0.006582	-0.003514	-0.006785	-0.585693	-0.283936	0.651123	-0.156858	-0.727958	0.142021	-0.652152
23802		9.749479	0.225052	-1.058020	0.010065	-0.002065	-0.011636	-0.584473	-0.280273	0.646729	-0.156855	-0.728013	0.141941	-0.652109
23803		9.788991	0.293506	-1.039234	0.009184	-0.003092	-0.011371	-0.585205	-0.280029	0.648682	-0.156850	-0.728056	0.141889	-0.652073
23804		9.739742	0.291794	-1.047517	0.003388	-0.004921	-0.013061	-0.587891	-0.281738	0.652832	-0.156885	-0.728114	0.141853	-0.652008
23805		9.739326	0.268682	-1.056621	0.006022	-0.002031	-0.014699	-0.586914	-0.286621	0.649902	-0.156884	-0.728167	0.141740	-0.651974
23806		9.720329	0.329126	-1.031523	0.007826	-0.002040	-0.012945	-0.582031	-0.287842	0.644775	-0.156942	-0.728202	0.141684	-0.651933
23807		9.749566	0.288041	-1.031798	0.010527	0.000214	-0.009982	-0.586670	-0.289062	0.656250	-0.157047	-0.728205	0.141705	-0.651900
23808		9.768346	0.276551	-1.057877	0.010075	0.003725	-0.009508	-0.592041	-0.282471	0.646729	-0.157059	-0.728223	0.141635	-0.651892
23809		9.788006	0.270712	-1.053225	0.009999	0.002306	-0.015381	-0.581299	-0.279541	0.654785	-0.157046	-0.728200	0.141483	-0.651954
23810		9.750293	0.322850	-1.000234	0.005607	0.002098	-0.011711	-0.586914	-0.287109	0.641846	-0.157046	-0.728246	0.141423	-0.651916
23811		9.729066	0.293727	-1.059807	0.010046	0.001269	-0.012458	-0.589355	-0.288818	0.648438	-0.157139	-0.728213	0.141396	-0.651935
23812		9.728787	0.327009	-1.064581	0.005604	0.001072	-0.012347	-0.587402	-0.280518	0.656250	-0.157229	-0.728199	0.141362	-0.651937
23813		9.748867	0.330354	-1.042994	0.005159	0.001900	-0.012101	-0.579346	-0.284424	0.647949	-0.157191	-0.728231	0.141260	-0.651933
23814		9.759138	0.320107	-1.025045	-0.000130	0.002306	-0.008571	-0.582031	-0.279297	0.650146	-0.157336	-0.728223	0.141359	-0.651885
23815		9.758594	0.299696	-1.045956	0.002119	0.001472	-0.007062	-0.587402	-0.281494	0.651611	-0.157345	-0.728231	0.141390	-0.651867
23816		9.758494	0.288114	-1.049858	0.003908	0.000232	-0.006780	-0.587158	-0.279541	0.646240	-0.157307	-0.728240	0.141376	-0.651869
23817		9.749361	0.303263	-1.023746	0.003915	-0.000594	-0.006576	-0.581299	-0.289062	0.650146	-0.157271	-0.728232	0.141378	-0.651886
23818		9.748538	0.277851	-1.054050	0.006592	-0.001629	-0.006357	-0.578857	-0.285889	0.648926	-0.157357	-0.728265	0.141457	-0.651812
23819		9.749046	0.280199	-1.032727	0.009202	-0.002022	-0.010741	-0.586914	-0.285645	0.648682	-0.157443	-0.728318	0.141482	-0.651727
23820		9.758799	0.309370	-1.025296	0.008270	-0.001181	-0.013605	-0.583252	-0.285645	0.655273	-0.157486	-0.728341	0.141418	-0.651704
23821		9.738080	0.302459	-1.064232	0.007421	-0.001604	-0.010821	-0.584717	-0.286133	0.650146	-0.157521	-0.728401	0.141400	-0.651632
23822		9.748217	0.327071	-1.043654	0.003893	-0.002024	-0.008890	-0.592041	-0.294434	0.648193	-0.157582	-0.728426	0.141434	-0.651583
23823		9.747831	0.311174	-1.056835	0.003914	-0.001618	-0.007212	-0.584717	-0.283936	0.639648	-0.157670	-0.728405	0.141476	-0.651575
23824		9.757597	0.291055	-1.057268	0.008364	-0.003263	-0.007754	-0.580322	-0.285400	0.654297	-0.157678	-0.728404	0.141487	-0.651572
23825		9.767069	0.301622	-1.062631	0.006548	-0.000573	-0.009286	-0.583984	-0.282227	0.649902	-0.157740	-0.728453	0.141524	-0.651495
23826		9.767265	0.321118	-1.050054	0.001257	-0.000179	-0.005754	-0.584717	-0.279541	0.651123	-0.157757	-0.728456	0.141583	-0.651474
23827		9.728088	0.296095	-1.057054	0.002116	0.000450	-0.007701	-0.585205	-0.285400	0.657715	-0.157738	-0.728466	0.141587	-0.651467
23828		9.728085	0.311197	-1.052830	0.005655	0.001080	-0.008794	-0.580811	-0.281982	0.645264	-0.157753	-0.728498	0.141586	-0.651428
23829		9.737829	0.312933	-1.052773	0.007460	0.002104	-0.006405	-0.586914	-0.281982	0.647461	-0.157757	-0.728486	0.141615	-0.651434
23830		9.756683	0.274640	-1.086426	0.007399	0.005834	-0.009109	-0.584473	-0.285400	0.656494	-0.157730	-0.728440	0.141555	-0.651505
23831		9.767655	0.299575	-1.041775	0.002493	0.009128	-0.008527	-0.588379	-0.281738	0.650635	-0.157798	-0.728397	0.141579	-0.651532
23832		9.748616	0.284470	-1.030395	0.006046	0.005020	-0.011112	-0.590088	-0.284180	0.640625	-0.157776	-0.728369	0.141499	-0.651585
23833		9.738407	0.352026	-1.030543	0.008315	0.004598	-0.007923	-0.581543	-0.277588	0.647217	-0.157743	-0.728296	0.141445	-0.651686
23834		9.718127	0.334896	-1.063377	0.007466	0.005201	-0.004504	-0.585693	-0.280518	0.650391	-0.157676	-0.728269	0.141449	-0.651733
23835		9.747887	0.305705	-1.057736	0.006552	0.006445	-0.005691	-0.587891	-0.292725	0.649414	-0.157621	-0.728230	0.141431	-0.651793
23836		9.748620	0.346628	-1.022677	0.006624	0.002918	-0.002146	-0.584473	-0.286377	0.646240	-0.157668	-0.728190	0.141531	-0.651805
23837		9.739081	0.298593	-1.029194	0.006624	0.003949	-0.001513	-0.586426	-0.288086	0.655273	-0.157672	-0.728145	0.141621	-0.651835
23838		9.748521	0.289809	-1.045840	0.005728	0.003538	-0.002289	-0.586914	-0.285400	0.652344	-0.157678	-0.728130	0.141704	-0.651831
23839		9.758562	0.308264	-1.032643	-0.002284	0.003105	-0.002968	-0.581055	-0.288330	0.645508	-0.157730	-0.728096	0.141824	-0.651831
23840		9.739251	0.287176	-1.031022	0.003047	0.001475	-0.004409	-0.585938	-0.281494	0.647461	-0.157843	-0.728073	0.141971	-0.651797
23841		9.748668	0.305205	-1.039888	0.004841	0.003330	-0.002225	-0.586426	-0.282227	0.656250	-0.157787	-0.728040	0.142016	-0.651838
23842		9.749070	0.275127	-1.034412	0.009311	0.000040	-0.002351	-0.585938	-0.285889	0.650635	-0.157689	-0.728071	0.142040	-0.651822
23843		9.748709	0.319240	-1.035284	0.003953	0.002091	-0.002795	-0.581787	-0.281738	0.650879	-0.157701	-0.728052	0.142132	-0.651820
23844		9.748339	0.283912	-1.060181	0.007099	0.001678	-0.000508	-0.585449	-0.284912	0.647949	-0.157655	-0.728055	0.142227	-0.651807
23845		9.758295	0.262394	-1.059768	0.009303	-0.000161	-0.003191	-0.593994	-0.286377	0.643066	-0.157615	-0.728058	0.142273	-0.651803
23846		9.738587	0.310698	-1.051724	0.006220	0.000643	-0.000238	-0.583496	-0.281250	0.651367	-0.157514	-0.728006	0.142292	-0.651882
23847		9.748364	0.284050	-1.059911	0.005351	0.000839	0.001503	-0.590332	-0.283936	0.653564	-0.157450	-0.728006	0.142408	-0.651872
23848		9.778510	0.262886	-1.037541	-0.005385	0.005560	-0.000431	-0.586182	-0.277832	0.651855	-0.157477	-0.727938	0.142546	-0.651911
23849		9.710300	0.249920	-1.038355	-0.000553	0.005599	-0.005395	-0.582764	-0.282715	0.647217	-0.157467	-0.727900	0.142589	-0.651947
23850		9.709850	0.277667	-1.050463	0.003814	0.008118	-0.010526	-0.588867	-0.282471	0.647949	-0.157557	-0.727845	0.142614	-0.651980
23851		9.740274	0.303430	-1.005657	-0.003337	0.012433	-0.010626	-0.584473	-0.276855	0.649414	-0.157658	-0.727732	0.142628	-0.652079
23852		9.690621	0.265110	-1.056802	0.000627	0.014735	-0.012583	-0.588623	-0.282227	0.653076	-0.157717	-0.727634	0.142585	-0.652184
23853		9.662440	0.151646	-1.065737	0.012789	0.024807	-0.031257	-0.585449	-0.278809	0.643066	-0.157860	-0.727508	0.142263	-0.652360
23854		9.969265	0.072722	-0.952809	0.009869	0.013196	-0.062135	-0.590088	-0.276367	0.655273	-0.158254	-0.727506	0.141705	-0.652389
23855		9.798729	0.367756	-0.997998	0.011837	0.001222	-0.055605	-0.587646	-0.283936	0.646729	-0.158467	-0.727627	0.141151	-0.652322
23856		9.695116	0.623168	-1.093450	0.007210	0.002513	-0.030517	-0.580322	-0.289062	0.646484	-0.158630	-0.727651	0.140936	-0.652302
23857		9.708432	0.519872	-1.002485	-0.016476	0.005450	0.003708	-0.587158	-0.287109	0.645752	-0.158856	-0.727554	0.141320	-0.652271
23858		9.750163	0.299048	-1.018644	0.005962	0.001372	0.017835	-0.593262	-0.282471	0.642822	-0.158669	-0.727496	0.141578	-0.652326
23859		9.768650	0.350119	-1.038380	0.021199	-0.002903	0.024079	-0.587158	-0.287109	0.648682	-0.158181	-0.727474	0.141687	-0.652446
23860		9.750508	0.304649	-1.007208	0.007462	-0.003624	0.028413	-0.585205	-0.283203	0.644775	-0.157899	-0.727449	0.142054	-0.652461
23861		9.771994	0.177079	-0.987993	-0.000178	-0.004862	0.020353	-0.594238	-0.284912	0.647949	-0.157735	-0.727429	0.142404	-0.652447
23862		9.740930	0.141295	-1.070650	0.016949	-0.005479	-0.000596	-0.590576	-0.289062	0.645020	-0.157523	-0.727474	0.142363	-0.652458
23863		9.768216	0.308445	-1.072871	0.015949	-0.004403	-0.009754	-0.591064	-0.286377	0.647217	-0.157486	-0.727516	0.142317	-0.652430
23864		9.769045	0.350309	-1.018004	0.006233	-0.001197	-0.000659	-0.576660	-0.279785	0.648193	-0.157431	-0.727506	0.142400	-0.652436
23865		9.739979	0.283757	-1.037466	0.005791	-0.000171	0.000423	-0.584717	-0.281494	0.648682	-0.157429	-0.727526	0.142572	-0.652376
23866		9.760566	0.228168	-1.019281	0.004860	-0.002632	-0.005179	-0.581055	-0.285156	0.646973	-0.157423	-0.727557	0.142646	-0.652327
23867		9.789193	0.273831	-1.022097	0.011934	-0.003800	-0.010305	-0.590332	-0.282227	0.652344	-0.157471	-0.727618	0.142685	-0.652240
23868		9.749096	0.309528	-1.040790	0.015994	-0.005438	-0.006824	-0.589600	-0.281494	0.648682	-0.157329	-0.727693	0.142618	-0.652204
23869		9.727885	0.370116	-1.073856	0.004929	-0.004097	-0.000360	-0.592041	-0.285889	0.652832	-0.157235	-0.727715	0.142693	-0.652186
23870		9.808851	0.245354	-1.020288	-0.008391	0.000121	0.005851	-0.589844	-0.281738	0.646240	-0.157251	-0.727667	0.142947	-0.652180
23871		9.731054	0.222134	-1.017514	0.000870	0.000838	-0.001111	-0.593018	-0.283936	0.645508	-0.157210	-0.727634	0.143038	-0.652206
23872		9.719166	0.252294	-1.087399	0.004701	0.004024	-0.013972	-0.584229	-0.293213	0.654785	-0.157244	-0.727595	0.142966	-0.652258
23873		9.739744	0.314605	-1.018649	-0.003308	0.004791	-0.013185	-0.590576	-0.277100	0.646729	-0.157531	-0.727568	0.143132	-0.652182
23874		9.760855	0.257852	-0.985675	0.002925	0.004634	-0.013215	-0.590332	-0.284668	0.648926	-0.157511	-0.727538	0.143039	-0.652242
23875		9.759818	0.229179	-1.044295	0.005508	0.008608	-0.017804	-0.585449	-0.282959	0.646729	-0.157605	-0.727486	0.142948	-0.652297
23876		9.750117	0.247314	-1.037645	0.006295	0.011552	-0.024784	-0.587891	-0.274414	0.643799	-0.157778	-0.727430	0.142812	-0.652347
23877		9.741066	0.241328	-1.017068	0.011581	0.009373	-0.032304	-0.585693	-0.287842	0.651367	-0.157835	-0.727413	0.142465	-0.652428
23878		9.721770	0.241331	-1.009962	0.019937	0.007879	-0.044033	-0.586670	-0.283936	0.648682	-0.158083	-0.727457	0.142089	-0.652401
23879		9.730552	0.221459	-1.067851	0.018364	0.013800	-0.061980	-0.592773	-0.282959	0.645508	-0.158443	-0.727476	0.141504	-0.652419
23880		9.626537	0.157761	-0.983951	-0.001209	0.024644	-0.095241	-0.579102	-0.286133	0.649170	-0.159195	-0.727406	0.140680	-0.652492
23881		9.583025	-0.084785	-1.006889	0.019082	0.032821	-0.158484	-0.589111	-0.292236	0.646973	-0.160438	-0.727456	0.139245	-0.652440
23882		9.702143	-0.028444	-0.950752	0.055194	0.021193	-0.243116	-0.588379	-0.293213	0.645996	-0.161970	-0.727785	0.136707	-0.652231
23883		9.719087	0.121069	-0.957908	0.029182	0.017731	-0.311533	-0.584961	-0.292725	0.654297	-0.164261	-0.728196	0.133746	-0.651814
23884		9.708472	-0.053853	-1.001545	0.041128	0.016273	-0.396339	-0.580566	-0.303467	0.647217	-0.167098	-0.728803	0.129904	-0.651191
23885		9.707050	-0.483545	-1.070647	0.096231	0.007482	-0.534765	-0.572998	-0.307373	0.644775	-0.170612	-0.729774	0.124426	-0.650261
23886		9.943059	-0.233445	-0.997535	0.129631	0.005518	-0.709699	-0.571045	-0.322021	0.649414	-0.175239	-0.731062	0.117100	-0.648943
23887		9.794128	-0.026118	-0.707231	0.061454	-0.012294	-0.886067	-0.572754	-0.342041	0.643311	-0.181915	-0.732530	0.108778	-0.646896
23888		9.693215	-0.397538	-0.350249	0.026665	-0.092728	-1.120468	-0.557617	-0.349609	0.652100	-0.190646	-0.734728	0.098724	-0.643492
23889		9.380175	-0.163362	-0.509598	0.200193	-0.187632	-1.364552	-0.547607	-0.363281	0.651123	-0.199555	-0.738263	0.085242	-0.638654
23890		8.880967	1.692072	-1.422093	0.370107	-0.221971	-1.542232	-0.536377	-0.393799	0.661621	-0.208120	-0.742406	0.068749	-0.633083
23891		9.349588	1.255439	-0.902484	0.013097	-0.176511	-1.710974	-0.517822	-0.419189	0.664551	-0.221355	-0.745073	0.053421	-0.626909
23892		9.145825	-0.054193	-1.466614	-0.123577	-0.181891	-2.007200	-0.512695	-0.453125	0.660645	-0.238051	-0.747198	0.036394	-0.619438
23893		7.459678	3.730722	-2.003229	-0.063508	-0.263385	-2.126137	-0.477295	-0.474121	0.668213	-0.254898	-0.749674	0.018070	-0.610483
23894		7.478631	8.010106	-1.774006	-0.110067	-0.192427	-1.726408	-0.464355	-0.503418	0.661377	-0.269108	-0.751009	0.003733	-0.602953
23895		12.251396	2.393584	-2.481311	-0.099268	0.032688	-1.530205	-0.439453	-0.521484	0.663086	-0.281661	-0.750374	-0.009604	-0.597924
23896		9.756986	1.562748	-2.167559	0.027904	0.177328	-1.730580	-0.433838	-0.553467	0.668213	-0.294390	-0.748789	-0.026244	-0.593263
23897		2.167359	9.907710	-0.296888	0.116568	0.091877	-1.457636	-0.415039	-0.571777	0.668945	-0.304205	-0.747974	-0.040595	-0.588511
23898		8.679845	8.484025	-0.898110	0.194245	0.001779	-0.684822	-0.404541	-0.577881	0.662109	-0.307576	-0.748354	-0.048023	-0.585710
23899		12.072880	6.084824	-1.194240	0.163195	0.053270	-0.450444	-0.403320	-0.579346	0.674072	-0.309485	-0.748337	-0.053235	-0.584275
23900		5.820662	10.124152	-0.805613	-0.030685	0.058874	0.111943	-0.401855	-0.575439	0.667480	-0.309058	-0.747888	-0.051828	-0.585202
23901		11.672091	10.365700	-1.277373	0.225982	0.130610	1.092687	-0.417480	-0.558594	0.673340	-0.298974	-0.748452	-0.043456	-0.590377
23902		14.226247	12.495103	-4.289785	0.092278	0.497022	2.279638	-0.449951	-0.523682	0.657715	-0.281022	-0.746050	-0.024379	-0.603193
23903		23.378968	7.406184	-1.089657	-0.786068	0.527802	3.288688	-0.502686	-0.494873	0.641113	-0.263294	-0.739620	0.010641	-0.619295
23904		21.856860	-3.879373	1.593107	-1.856416	0.157312	3.359703	-0.547363	-0.463867	0.604248	-0.254389	-0.730965	0.055889	-0.630755
23905		12.450034	-2.370431	-0.238922	-2.061523	-0.110511	3.407645	-0.578613	-0.440674	0.583252	-0.246196	-0.721945	0.103977	-0.638257
23906		6.626780	-0.945347	-2.607634	-0.855146	-0.052074	3.125386	-0.615234	-0.382568	0.570801	-0.228896	-0.715013	0.139485	-0.645684
23907		3.460435	6.028300	-1.001604	0.065016	-0.025670	1.964254	-0.643311	-0.342285	0.565430	-0.212340	-0.711740	0.156763	-0.650971
23908		0.402443	4.909144	-1.936513	-0.218966	-0.324066	0.500863	-0.638428	-0.338135	0.565186	-0.209566	-0.712767	0.164041	-0.648950
23909		0.629896	-0.061387	1.131345	-0.235419	-0.213776	0.033772	-0.640625	-0.338867	0.564697	-0.210945	-0.713788	0.166969	-0.646630
23910		0.845834	0.106439	0.408569	0.073397	0.010605	-0.319706	-0.632324	-0.338867	0.559814	-0.212889	-0.714535	0.163648	-0.646017
23911		0.743651	-0.110643	0.863756	0.481082	0.101191	-0.470223	-0.636475	-0.344727	0.559570	-0.212584	-0.715912	0.155440	-0.646619
23912		0.042245	0.079554	0.318686	0.414995	0.155507	-0.485695	-0.628906	-0.346191	0.565430	-0.213086	-0.716656	0.147469	-0.647496
23913		0.323123	0.013838	-0.226974	0.388637	0.119831	-0.569627	-0.628174	-0.352539	0.560791	-0.214422	-0.717724	0.139042	-0.647737
23914		0.904019	0.350396	-0.044127	0.177343	0.088174	-0.802975	-0.624512	-0.372803	0.584229	-0.219468	-0.718823	0.130305	-0.646643
23915		1.406796	0.501710	0.385499	0.260707	0.137137	-1.141700	-0.615967	-0.385010	0.574707	-0.226473	-0.720207	0.117608	-0.645120
23916		9.211499	21.213247	-2.988764	0.537599	0.218193	-3.022452	-0.579102	-0.436768	0.595459	-0.246149	-0.723865	0.085506	-0.638841
23917		11.538567	-13.650082	-0.101508	1.185482	0.164404	-3.050084	-0.544922	-0.473633	0.605713	-0.259765	-0.728833	0.047921	-0.631686
23918		22.056992	2.635079	-3.504457	2.363933	-0.485791	-2.676260	-0.498535	-0.488525	0.649414	-0.258982	-0.741199	0.006769	-0.619279
23919		23.952857	10.358028	-5.926141	0.742827	-0.471490	-1.541192	-0.481201	-0.495117	0.672119	-0.264124	-0.747211	-0.011306	-0.609743
23920		22.947593	15.416591	2.575419	0.018998	-0.045614	-0.172440	-0.478760	-0.499756	0.667969	-0.265354	-0.747604	-0.012617	-0.608700
23921		17.003819	17.402590	-3.557097	-0.911776	0.109255	1.826036	-0.504883	-0.489502	0.653809	-0.259966	-0.743785	0.011269	-0.615690
23922		21.741215	6.171010	-1.870420	-2.093703	0.234371	3.304802	-0.533691	-0.468018	0.625000	-0.253822	-0.733800	0.057507	-0.627539
23923		17.336750	-2.802059	-2.094646	-3.219002	0.181685	3.942279	-0.587402	-0.437256	0.578857	-0.252154	-0.717812	0.118397	-0.638080
23924		8.550740	-4.782693	-5.373032	-2.533029	-0.234502	3.816042	-0.622803	-0.397217	0.544434	-0.243633	-0.704865	0.173437	-0.643217
23925		4.167132	7.015129	-2.029850	-0.765550	-0.381258	2.030911	-0.639160	-0.367188	0.543945	-0.233110	-0.700905	0.198746	-0.644121
23926		1.877283	8.063483	-0.634204	-0.868758	-0.412723	-0.222059	-0.631592	-0.374512	0.533447	-0.241462	-0.702172	0.205129	-0.637630
23927		1.489907	-1.857171	2.333682	-0.462268	-0.193069	-0.849570	-0.626709	-0.401367	0.540283	-0.251775	-0.704422	0.202025	-0.632127
23928		0.492070	-1.448283	2.532738	0.410040	-0.085713	-0.926691	-0.617676	-0.412842	0.538574	-0.255246	-0.708653	0.190980	-0.629434
23929		0.786198	-0.868982	1.953589	0.906962	-0.083894	-1.008103	-0.607910	-0.416260	0.554199	-0.254902	-0.714490	0.175255	-0.627547
23930		0.911176	0.676213	1.067754	0.690081	-0.000085	-1.190937	-0.584229	-0.425293	0.562500	-0.258038	-0.719171	0.159278	-0.625171
23931		0.859181	0.975645	0.564394	0.251135	0.061875	-1.317759	-0.575684	-0.443359	0.558105	-0.266160	-0.722000	0.145337	-0.621894
23932		0.856008	1.294534	0.477701	-0.340199	0.062973	-1.380929	-0.543213	-0.474365	0.562256	-0.280032	-0.722752	0.135369	-0.617160
23933		1.224053	8.044410	-0.065167	-0.954951	0.093786	-1.672939	-0.534180	-0.517578	0.559570	-0.301636	-0.721286	0.127326	-0.610369
23934		8.463229	2.781391	-1.538002	0.279439	0.132049	-2.632576	-0.486084	-0.555176	0.566895	-0.319241	-0.725102	0.100922	-0.601770
23935		11.899112	-8.750901	-7.424697	1.484875	-0.569706	-2.970013	-0.427979	-0.577881	0.603516	-0.327046	-0.738400	0.064950	-0.586164
23936		22.905042	3.440554	-9.084069	1.441693	-0.825790	-2.319655	-0.377441	-0.593506	0.644531	-0.329844	-0.751755	0.036406	-0.569861
23937		24.559981	12.897719	0.344965	0.348518	-0.043269	-1.289467	-0.340332	-0.599365	0.649902	-0.335739	-0.753990	0.022247	-0.564166
23938		17.625451	11.557097	0.097643	0.957125	0.579159	-0.255286	-0.352539	-0.586426	0.653809	-0.328696	-0.753920	0.010917	-0.568721
23939		14.566459	16.413300	-2.444359	0.315242	0.587294	1.503111	-0.383545	-0.565186	0.660156	-0.315099	-0.750672	0.020657	-0.580325
23940		24.605946	8.969384	3.719114	-0.481884	0.669415	2.883660	-0.432617	-0.527344	0.636475	-0.298691	-0.742634	0.048714	-0.597415
23941		23.762059	-3.908799	2.649664	-1.752747	0.497680	3.322409	-0.497803	-0.500000	0.596436	-0.290125	-0.729502	0.090830	-0.612703
23942		10.779704	-8.877450	-2.587658	-1.197867	0.285595	3.193594	-0.551025	-0.472900	0.579834	-0.276635	-0.718654	0.128151	-0.624969
23943		5.869543	0.799256	-3.134653	0.213170	0.293808	2.367719	-0.583740	-0.427490	0.549316	-0.256563	-0.712951	0.146917	-0.635840
23944		1.001306	4.640737	-1.657278	1.121079	0.178252	1.013696	-0.609863	-0.388184	0.561768	-0.238790	-0.713106	0.146694	-0.642604
23945		-0.743864	3.566908	-1.774262	0.382527	-0.130728	0.446652	-0.609619	-0.373535	0.561768	-0.231539	-0.714431	0.148216	-0.643436
23946		-0.124470	-0.058121	-1.041180	-0.062184	-0.107784	0.847396	-0.615723	-0.365479	0.555908	-0.225060	-0.713479	0.156795	-0.644756
23947		0.111902	0.775821	-0.325021	-0.355856	-0.123883	1.051766	-0.626221	-0.353027	0.554199	-0.219486	-0.711317	0.169586	-0.645829
23948		0.568268	0.307471	0.291650	-0.643142	-0.130748	0.984975	-0.637451	-0.339355	0.557129	-0.216946	-0.708411	0.184081	-0.645912
23949		1.184474	-0.112895	2.101007	-0.376640	0.029476	0.729652	-0.644287	-0.333984	0.564697	-0.214440	-0.705403	0.193694	-0.647229
23950		0.563793	0.900892	2.360815	-0.130752	0.211460	0.338700	-0.652344	-0.342529	0.551025	-0.213355	-0.702478	0.197362	-0.649656
23951		1.314893	5.723018	1.860963	1.020745	0.379896	-0.599436	-0.643555	-0.332275	0.561768	-0.210164	-0.703476	0.182951	-0.653821
23952		9.193450	22.552567	-2.951020	1.876585	0.203948	-3.381162	-0.616943	-0.369385	0.583008	-0.221503	-0.713619	0.137289	-0.650259
23953		10.768170	-4.248896	-7.993827	0.953126	-0.230850	-2.284612	-0.580811	-0.406982	0.610107	-0.231060	-0.721693	0.109756	-0.643214
23954		23.714587	-14.406069	-13.232444	1.333329	-0.734929	-1.852552	-0.549561	-0.419922	0.648438	-0.232729	-0.733671	0.084371	-0.632808
23955		38.070276	-7.629649	7.520670	2.222443	-0.188161	-2.398763	-0.508789	-0.429688	0.660889	-0.230891	-0.743546	0.045461	-0.625909
23956		8.797041	18.850435	2.712551	1.494016	-0.103296	-1.829524	-0.511230	-0.424072	0.672607	-0.231280	-0.749385	0.017512	-0.620182
23957		-1.096166	18.267959	-4.969671	-0.558867	-0.142258	0.379019	-0.513672	-0.437744	0.666504	-0.233561	-0.748753	0.026044	-0.619791
23958		12.346156	5.117112	-1.066676	-0.720981	-0.012714	1.563932	-0.520752	-0.420410	0.667969	-0.228191	-0.746049	0.046465	-0.623843
23959		12.285292	0.706532	-1.988508	-0.136835	0.290644	1.536497	-0.526855	-0.405762	0.664551	-0.217635	-0.742343	0.061139	-0.630733
23960		8.941245	2.836772	-0.126214	-0.130418	0.392928	1.551175	-0.548096	-0.378418	0.658203	-0.206914	-0.737539	0.075635	-0.638359
23961		7.860261	0.717808	-1.189541	0.212016	0.352227	1.442605	-0.570068	-0.353516	0.653809	-0.193760	-0.733768	0.086438	-0.645422
23962		7.606641	0.774831	-1.525268	0.030033	0.251221	1.138766	-0.579590	-0.327881	0.650879	-0.184559	-0.730490	0.096144	-0.650444
23963		8.249966	-3.731356	0.534776	-0.302577	0.090696	0.734283	-0.577637	-0.318848	0.640625	-0.181437	-0.728125	0.105192	-0.652572
23964		9.709524	-1.469223	0.914391	0.026198	0.034399	0.486789	-0.578613	-0.309326	0.641846	-0.177260	-0.727235	0.109459	-0.654008
23965		11.160741	-0.498916	-2.100236	0.680558	-0.107277	0.165913	-0.587402	-0.297607	0.653809	-0.169555	-0.729349	0.105782	-0.654302
23966		10.618686	2.287141	-0.489640	0.201848	0.017157	0.150614	-0.585938	-0.296387	0.658936	-0.166499	-0.729417	0.105627	-0.655036
23967		9.758263	1.183485	1.006787	-0.132501	-0.050142	0.189086	-0.588135	-0.290283	0.651855	-0.166074	-0.729285	0.108677	-0.654791
23968		9.736158	0.421435	0.398487	-0.123756	-0.185934	0.189288	-0.580078	-0.296875	0.652588	-0.165390	-0.730271	0.111943	-0.653314
23969		9.723694	0.954387	-1.393431	-0.108529	-0.215820	0.186117	-0.584229	-0.285400	0.654785	-0.164553	-0.731524	0.115120	-0.651569
23970		9.631758	0.625796	-2.109784	-0.093722	-0.141459	0.200095	-0.583740	-0.293457	0.659424	-0.163566	-0.732173	0.118146	-0.650546
23971		9.341310	-0.379119	-1.764634	0.079425	-0.095004	0.184996	-0.578613	-0.289551	0.663818	-0.161188	-0.732814	0.119535	-0.650164
23972		9.408622	-0.117404	-1.162681	0.132564	-0.104443	0.194195	-0.579834	-0.270020	0.659668	-0.158232	-0.733618	0.120603	-0.649787
23973		9.813998	0.887069	-0.511130	-0.042929	-0.143534	0.127153	-0.576904	-0.277344	0.665771	-0.157368	-0.734486	0.122561	-0.648648
23974		9.913958	0.891069	-1.262316	0.012025	-0.144965	0.069231	-0.575928	-0.273438	0.668457	-0.156467	-0.735559	0.123543	-0.647463
23975		9.592090	0.468013	-2.636034	0.141459	-0.089716	0.015537	-0.574707	-0.273682	0.668701	-0.154894	-0.736517	0.122873	-0.646879
23976		9.842568	-0.184459	-2.057546	0.118595	0.060891	0.009661	-0.565186	-0.277832	0.675781	-0.153812	-0.736220	0.122045	-0.647631
23977		10.461424	0.598195	-0.984345	0.130570	0.090116	-0.036591	-0.562744	-0.271240	0.673096	-0.153038	-0.735779	0.120647	-0.648578
23978		10.186742	0.998779	-1.399106	-0.117994	0.127215	-0.037918	-0.573730	-0.274414	0.669922	-0.154616	-0.734560	0.121178	-0.649486
23979		9.754489	0.683421	-1.297698	-0.299272	0.126311	-0.042703	-0.576416	-0.273682	0.662354	-0.157894	-0.732997	0.123135	-0.650094
23980		9.977537	0.111676	-1.553785	-0.268913	0.156448	-0.096326	-0.583740	-0.280029	0.656494	-0.161373	-0.731320	0.124292	-0.650908
23981		9.973703	0.898202	-1.286587	-0.279781	0.203003	-0.112506	-0.578369	-0.294678	0.659668	-0.165153	-0.729253	0.125297	-0.652085
23982		9.662431	0.816358	-0.694816	-0.307411	0.177077	-0.103190	-0.587402	-0.297119	0.649170	-0.169067	-0.727312	0.126663	-0.652986
23983		9.729816	0.564322	-0.213910	-0.254552	0.131091	-0.112520	-0.583984	-0.296387	0.640869	-0.172499	-0.725859	0.127605	-0.653521
23984		10.044986	-0.121651	-0.998379	-0.111346	0.174968	-0.167876	-0.589355	-0.302002	0.644531	-0.175151	-0.724435	0.126778	-0.654556
23985		9.985062	-0.130993	-1.634661	-0.109985	0.197535	-0.302719	-0.594971	-0.311523	0.628174	-0.178928	-0.723032	0.124672	-0.655489
23986		9.683239	-0.086378	-0.884723	-0.037380	0.126101	-0.447511	-0.587402	-0.316162	0.637207	-0.183119	-0.722582	0.120828	-0.655548
23987		8.900472	1.335298	-3.047177	0.214653	-0.166809	-0.512942	-0.585693	-0.328857	0.644043	-0.185120	-0.725179	0.114998	-0.653162
23988		9.102736	1.899401	-3.423060	-0.413859	-0.378878	-0.273209	-0.581787	-0.333740	0.643066	-0.190547	-0.727670	0.116960	-0.648466
23989		8.155403	-1.429890	-2.902978	-0.249793	-0.465447	0.091151	-0.566406	-0.338867	0.639893	-0.191388	-0.730684	0.121107	-0.644053
23990		8.879368	1.453841	-0.691582	0.341527	-0.513823	0.347712	-0.566162	-0.331055	0.651123	-0.184679	-0.735067	0.122964	-0.640663
23991		10.216984	6.295871	4.677932	0.026582	-0.126729	0.280791	-0.562012	-0.322510	0.660156	-0.181985	-0.735690	0.125827	-0.640163
23992		9.800726	0.864840	5.068254	0.093907	-0.070144	0.226148	-0.558105	-0.322266	0.657471	-0.179196	-0.736090	0.127469	-0.640166
23993		10.851597	2.688678	-1.972993	-0.017932	-0.224327	0.297554	-0.563477	-0.319824	0.654541	-0.176616	-0.737342	0.130993	-0.638728
23994		9.990265	1.116225	-3.784018	-0.599506	-0.088756	0.447750	-0.560791	-0.323975	0.657715	-0.178408	-0.735940	0.140232	-0.637886
23995		9.280453	-0.415648	-1.579664	-0.167367	-0.044687	0.411786	-0.560303	-0.313965	0.661621	-0.176580	-0.735170	0.145590	-0.638081
23996		9.375033	-0.173102	-0.893375	0.149212	-0.084879	0.283419	-0.568115	-0.310791	0.659424	-0.172786	-0.735637	0.147329	-0.638183
23997		10.124783	-0.204580	-0.156841	0.159231	-0.140368	0.181003	-0.561035	-0.302979	0.665039	-0.169612	-0.736742	0.148173	-0.637564
23998		10.126946	0.094103	-1.176078	0.265685	-0.195256	0.079705	-0.562256	-0.308105	0.668701	-0.166161	-0.738687	0.147349	-0.636412
23999		9.655782	0.994087	-2.238412	0.064431	-0.136003	0.086164	-0.555664	-0.293945	0.677734	-0.164627	-0.739720	0.148071	-0.635442
24000		9.741498	0.150270	-2.319268	-0.005341	-0.051210	0.090725	-0.560791	-0.294678	0.666260	-0.163854	-0.739930	0.149201	-0.635134
24001		9.823691	0.845186	-1.532204	-0.036999	0.003741	0.112006	-0.559814	-0.295166	0.670166	-0.163306	-0.739592	0.150677	-0.635320
24002		9.774704	0.304888	-1.032297	0.007059	-0.010617	0.138710	-0.553711	-0.288818	0.670166	-0.162113	-0.739408	0.152077	-0.635506
24003		9.671096	0.343209	-1.232713	0.081293	-0.037878	0.142960	-0.551514	-0.283447	0.678711	-0.160146	-0.739581	0.152976	-0.635587
24004		9.865699	0.008686	-1.742830	0.110396	-0.029506	0.118989	-0.555908	-0.281738	0.672852	-0.158116	-0.739790	0.153401	-0.635750
24005		9.807560	-0.146503	-1.503487	0.086691	0.002933	0.083880	-0.564941	-0.278076	0.674316	-0.156646	-0.739756	0.153633	-0.636097
24006		9.614070	-0.095717	-1.576646	0.150364	0.004881	0.013218	-0.552734	-0.279541	0.676514	-0.155150	-0.739963	0.152703	-0.636447
24007		9.731356	0.419232	-1.449168	0.059993	0.018024	-0.010962	-0.559570	-0.270508	0.683594	-0.154712	-0.739937	0.152249	-0.636693
24008		9.842866	0.390118	-1.565904	0.014131	0.041867	0.001845	-0.560547	-0.276855	0.674072	-0.154637	-0.739608	0.152223	-0.637099
24009		9.782000	0.174215	-1.585237	-0.007993	0.058196	0.009270	-0.559570	-0.273926	0.675537	-0.154741	-0.739090	0.152418	-0.637628
24010		9.461597	0.211233	-1.229965	0.019395	0.053296	-0.008038	-0.559326	-0.275146	0.674072	-0.154720	-0.738698	0.152241	-0.638130
24011		9.613089	0.309254	-1.268730	0.039867	0.040443	-0.024810	-0.560059	-0.274902	0.672607	-0.154621	-0.738479	0.151773	-0.638519
24012		9.747111	0.394795	-1.603822	0.007235	0.049919	-0.015336	-0.557373	-0.271973	0.681396	-0.154764	-0.738102	0.151634	-0.638952
24013		9.765131	0.237476	-1.420017	0.000109	0.055594	-0.008631	-0.558838	-0.276855	0.667480	-0.154931	-0.737657	0.151600	-0.639434
24014		9.674234	0.411682	-1.209143	-0.005964	0.064959	0.008677	-0.566162	-0.272705	0.671387	-0.155034	-0.737088	0.151761	-0.640026
24015		9.643865	0.137968	-1.250442	0.048602	0.059174	0.002687	-0.569824	-0.275879	0.662354	-0.154668	-0.736683	0.151434	-0.640659
24016		9.784507	0.256158	-1.300492	0.059045	0.049829	-0.001750	-0.567139	-0.272217	0.670654	-0.154226	-0.736377	0.151004	-0.641218
24017		9.777227	0.465695	-1.310507	0.042445	0.050098	0.015536	-0.562988	-0.270020	0.673096	-0.153797	-0.736007	0.150864	-0.641778
24018		9.676758	0.427993	-1.220611	-0.002705	0.056073	0.043519	-0.562256	-0.281738	0.661865	-0.153572	-0.735451	0.151331	-0.642360
24019		9.630683	0.182824	-1.352315	0.001979	0.051398	0.047364	-0.565430	-0.263184	0.655518	-0.153271	-0.734931	0.151817	-0.642912
24020		9.698168	0.125594	-1.234348	-0.007388	0.055193	0.030431	-0.572998	-0.259766	0.668701	-0.153186	-0.734394	0.152193	-0.643457
24021		9.728852	0.134614	-1.219258	-0.018297	0.051362	0.016476	-0.569336	-0.267090	0.656250	-0.153305	-0.733895	0.152534	-0.643917
24022		9.767340	0.263326	-1.373373	-0.047162	0.058608	0.011503	-0.574219	-0.275146	0.658203	-0.153748	-0.733289	0.153057	-0.644377
24023		9.739382	0.223216	-1.187645	-0.084768	0.065648	0.015674	-0.569092	-0.271240	0.665283	-0.154520	-0.732544	0.153915	-0.644836
24024		9.737170	0.079338	-1.146631	-0.045286	0.052881	0.006764	-0.578369	-0.271729	0.666260	-0.154976	-0.731998	0.154394	-0.645231
24025		9.790595	0.145672	-1.241397	-0.022928	0.044411	-0.003871	-0.582764	-0.279053	0.662842	-0.155294	-0.731583	0.154608	-0.645575
24026		9.776922	0.229252	-1.298138	-0.026722	0.062385	0.005694	-0.568359	-0.274170	0.665283	-0.155609	-0.730993	0.154911	-0.646094
24027		9.802127	0.197602	-1.219307	-0.047370	0.072078	0.011479	-0.572266	-0.278564	0.666504	-0.156084	-0.730279	0.155416	-0.646665
24028		9.728233	0.119501	-1.211678	-0.053271	0.073440	0.005396	-0.580322	-0.272217	0.655762	-0.156667	-0.729553	0.155914	-0.647224
24029		9.752703	0.121403	-1.116123	-0.038580	0.069873	-0.005032	-0.575928	-0.271973	0.662598	-0.157186	-0.728900	0.156191	-0.647767
24030		9.783176	0.174367	-1.072567	-0.035802	0.065089	-0.006483	-0.578369	-0.279785	0.665039	-0.157682	-0.728298	0.156446	-0.648262
24031		9.743707	0.195006	-1.100671	-0.032087	0.059281	-0.005889	-0.579834	-0.278076	0.652832	-0.158135	-0.727747	0.156695	-0.648710
24032		9.737765	0.137228	-1.074811	-0.041360	0.051870	-0.011419	-0.581055	-0.275146	0.645264	-0.158699	-0.727246	0.156978	-0.649066
24033		9.767830	0.151104	-1.068797	-0.022939	0.043180	-0.017813	-0.575684	-0.278809	0.644043	-0.159126	-0.726862	0.157065	-0.649370
24034		9.712918	0.242610	-0.861215	-0.035166	0.031498	-0.015510	-0.579102	-0.274414	0.649170	-0.159627	-0.726545	0.157303	-0.649544
24035		9.690548	0.248751	-0.968369	-0.001822	0.017776	-0.012235	-0.578369	-0.278564	0.650879	-0.159767	-0.726401	0.157319	-0.649667
24036		9.708593	0.207528	-1.085018	0.003983	0.015699	-0.016654	-0.585205	-0.284424	0.655273	-0.159890	-0.726295	0.157257	-0.649770
24037		9.747385	0.248765	-1.057810	-0.008037	0.015756	-0.013434	-0.585693	-0.276855	0.645264	-0.160100	-0.726156	0.157325	-0.649857
24038		9.769089	0.196239	-1.056705	-0.007489	0.010207	-0.015107	-0.575684	-0.284180	0.644287	-0.160298	-0.726064	0.157374	-0.649899
24039		9.730014	0.268138	-0.969549	-0.022094	0.006253	-0.010817	-0.585449	-0.284180	0.654785	-0.160597	-0.725969	0.157601	-0.649876
24040		9.731851	0.153301	-1.058551	-0.002452	0.004978	-0.013332	-0.576660	-0.287842	0.651855	-0.160733	-0.725929	0.157644	-0.649877
24041		9.786361	0.263509	-1.072604	-0.006959	0.005295	-0.017839	-0.581787	-0.275391	0.646484	-0.160953	-0.725889	0.157689	-0.649857
24042		9.738774	0.225803	-1.081162	-0.019394	0.005103	-0.011436	-0.577393	-0.278076	0.643799	-0.161217	-0.725810	0.157875	-0.649834
24043		9.731947	0.150661	-1.080122	-0.012314	0.005768	-0.017024	-0.581787	-0.280518	0.647949	-0.161467	-0.725752	0.157956	-0.649818
24044		9.779212	0.256487	-1.001137	-0.013711	0.009638	-0.014009	-0.585205	-0.278564	0.643311	-0.161715	-0.725652	0.158069	-0.649839
24045		9.742549	0.164832	-1.046355	0.002441	0.004753	-0.016432	-0.580811	-0.284180	0.643555	-0.161822	-0.725627	0.158034	-0.649849
24046		9.755822	0.344482	-1.032405	-0.003716	0.002267	-0.012164	-0.579102	-0.286621	0.638916	-0.161953	-0.725603	0.158102	-0.649827
24047		9.720337	0.206944	-1.098296	-0.015330	0.004578	-0.007322	-0.575195	-0.287842	0.648926	-0.162158	-0.725525	0.158306	-0.649814
24048		9.722409	0.204374	-1.026881	-0.008693	0.005033	-0.013293	-0.578369	-0.282959	0.646484	-0.162356	-0.725475	0.158404	-0.649796
24049		9.761106	0.236948	-0.997894	-0.014818	-0.000110	-0.012796	-0.580566	-0.289062	0.645020	-0.162586	-0.725452	0.158558	-0.649727
24050		9.742323	0.212897	-1.005253	-0.004037	-0.003107	-0.012097	-0.579834	-0.277588	0.656006	-0.162714	-0.725471	0.158643	-0.649653
24051		9.741880	0.253281	-0.959837	0.001338	-0.004787	-0.014377	-0.581543	-0.285889	0.634766	-0.162793	-0.725527	0.158652	-0.649569
24052		9.712546	0.209057	-1.024446	0.005487	-0.011057	-0.015897	-0.585205	-0.286377	0.639404	-0.162843	-0.725631	0.158636	-0.649443
24053		9.729690	0.238278	-1.064434	0.014068	-0.016351	-0.018598	-0.578613	-0.288086	0.657227	-0.162826	-0.725802	0.158535	-0.649281
24054		9.795312	0.320008	-1.034698	0.005271	-0.018158	-0.008241	-0.575684	-0.285889	0.648926	-0.162807	-0.725961	0.158608	-0.649089
24055		9.809458	0.189960	-1.055209	0.006654	-0.018565	-0.004131	-0.583740	-0.278320	0.643066	-0.162739	-0.726116	0.158705	-0.648910
24056		9.720585	0.186937	-1.079248	0.010627	-0.018993	-0.010745	-0.583984	-0.281982	0.645752	-0.162672	-0.726289	0.158697	-0.648736
24057		9.734557	0.321880	-1.068889	0.007970	-0.019689	-0.010541	-0.585938	-0.279785	0.646729	-0.162632	-0.726461	0.158719	-0.648547
24058		9.716643	0.251515	-1.100181	-0.000936	-0.017960	-0.003776	-0.576660	-0.282471	0.645996	-0.162617	-0.726587	0.158866	-0.648374
24059		9.736627	0.236075	-1.095435	-0.001838	-0.016967	-0.002242	-0.580811	-0.287842	0.653320	-0.162609	-0.726705	0.159040	-0.648201
24060		9.739301	0.204574	-1.036911	0.002641	-0.017247	-0.001318	-0.575439	-0.284424	0.643311	-0.162557	-0.726833	0.159193	-0.648033
24061		9.803799	0.225619	-1.131041	0.018134	-0.014028	-0.006320	-0.579102	-0.288574	0.649658	-0.162410	-0.726974	0.159166	-0.647918
24062		9.764612	0.238965	-1.107212	-0.000230	-0.009081	-0.000746	-0.574463	-0.286865	0.646973	-0.162399	-0.727026	0.159334	-0.647821
24063		9.747215	0.186752	-1.101920	0.009965	-0.008296	-0.005958	-0.574219	-0.284912	0.647949	-0.162338	-0.727106	0.159369	-0.647739
24064		9.725297	0.258337	-1.076361	0.012224	-0.009458	-0.006122	-0.580322	-0.283936	0.646484	-0.162253	-0.727200	0.159383	-0.647650
24065		9.726156	0.210274	-1.107323	0.012283	-0.012529	-0.007997	-0.580811	-0.284912	0.657715	-0.162171	-0.727318	0.159382	-0.647539
24066		9.745677	0.199638	-1.115048	0.023018	-0.014624	-0.011125	-0.573975	-0.288818	0.648193	-0.162014	-0.727487	0.159270	-0.647415
24067		9.782490	0.260804	-1.096838	0.024899	-0.016654	-0.007041	-0.576660	-0.286377	0.647461	-0.161815	-0.727666	0.159196	-0.647283
24068		9.790145	0.282056	-1.124355	0.018310	-0.017552	0.000851	-0.575928	-0.283447	0.648438	-0.161604	-0.727820	0.159244	-0.647151
24069		9.742699	0.225866	-1.141774	0.009814	-0.015789	0.003602	-0.579834	-0.278320	0.652100	-0.161447	-0.727938	0.159376	-0.647024
24070		9.714646	0.203392	-1.121621	0.006602	-0.014203	-0.000799	-0.577148	-0.285156	0.663574	-0.161345	-0.728047	0.159478	-0.646902
24071		9.734291	0.196024	-1.120664	0.011419	-0.011747	-0.003730	-0.575684	-0.274658	0.653809	-0.161242	-0.728160	0.159523	-0.646789
24072		9.713966	0.167469	-1.173777	0.013124	-0.010615	-0.008512	-0.587646	-0.282959	0.647461	-0.161145	-0.728274	0.159488	-0.646694
24073		9.762041	0.232270	-1.111190	0.015730	-0.010467	-0.014831	-0.567139	-0.283447	0.654541	-0.161089	-0.728385	0.159393	-0.646607
24074		9.752450	0.226248	-1.108677	0.013973	-0.010337	-0.012166	-0.575195	-0.281250	0.651611	-0.161037	-0.728510	0.159339	-0.646492
24075		9.730371	0.256830	-1.138495	0.014031	-0.011584	-0.010052	-0.572021	-0.288574	0.655029	-0.160957	-0.728631	0.159301	-0.646384
24076		9.700755	0.257312	-1.140198	0.010898	-0.010064	-0.007292	-0.571777	-0.280273	0.653320	-0.160903	-0.728732	0.159327	-0.646278
24077		9.777842	0.228466	-1.204745	0.011315	-0.009217	-0.007967	-0.571777	-0.279297	0.651855	-0.160835	-0.728829	0.159322	-0.646186
24078		9.799286	0.233963	-1.141337	-0.005795	-0.001216	-0.001844	-0.567627	-0.289307	0.654053	-0.160887	-0.728813	0.159494	-0.646149
24079		9.713661	0.196803	-1.119169	-0.002251	-0.000266	-0.002136	-0.573975	-0.281494	0.656982	-0.160936	-0.728801	0.159657	-0.646110
24080		9.729031	0.238421	-1.187455	0.002615	0.000742	-0.003799	-0.581055	-0.280518	0.649414	-0.160933	-0.728792	0.159741	-0.646100
24081		9.722469	0.225518	-1.112101	-0.005828	-0.000789	-0.003743	-0.576660	-0.282227	0.658203	-0.161000	-0.728765	0.159895	-0.646077
24082		9.735433	0.139280	-1.130090	0.004870	-0.002627	-0.009634	-0.581299	-0.278320	0.663330	-0.161016	-0.728798	0.159913	-0.646030
24083		9.780317	0.208161	-1.157813	0.010218	-0.003643	-0.013000	-0.577881	-0.284668	0.648682	-0.160996	-0.728858	0.159846	-0.645984
24084		9.769598	0.242207	-1.142074	-0.000606	0.000301	-0.013024	-0.577393	-0.282471	0.653564	-0.161105	-0.728851	0.159884	-0.645955
24085		9.722244	0.208482	-1.142996	-0.007731	-0.001372	-0.015178	-0.578613	-0.283691	0.654053	-0.161284	-0.728855	0.159954	-0.645889
24086		9.741121	0.232065	-1.132579	-0.006728	-0.007663	-0.020673	-0.573975	-0.287109	0.663086	-0.161488	-0.728920	0.159980	-0.645758
24087		9.738930	0.252674	-1.166006	-0.008875	-0.009209	-0.017113	-0.576172	-0.274658	0.650391	-0.161687	-0.729001	0.160063	-0.645597
24088		9.777422	0.290119	-1.131884	0.008179	-0.008274	-0.007735	-0.574707	-0.283936	0.657715	-0.161625	-0.729077	0.160062	-0.645526
24089		9.736764	0.286812	-1.175668	-0.000321	-0.004539	-0.000137	-0.573730	-0.280029	0.648926	-0.161610	-0.729097	0.160213	-0.645470
24090		9.720298	0.220364	-1.172659	0.001484	-0.004491	0.001615	-0.572266	-0.282715	0.656494	-0.161559	-0.729109	0.160361	-0.645432
24091		9.729541	0.238512	-1.161777	-0.003902	-0.003250	0.002245	-0.571289	-0.277344	0.652344	-0.161558	-0.729109	0.160557	-0.645384
24092		9.760719	0.191337	-1.169823	-0.005267	-0.003277	0.000035	-0.572510	-0.284668	0.652832	-0.161576	-0.729109	0.160732	-0.645336
24093		9.770297	0.186978	-1.179391	0.006323	-0.002651	-0.000269	-0.582031	-0.284912	0.648926	-0.161511	-0.729124	0.160831	-0.645311
24094		9.747437	0.241762	-1.199403	0.004449	0.000170	-0.000991	-0.572266	-0.285645	0.646240	-0.161473	-0.729097	0.160937	-0.645325
24095		9.731449	0.194977	-1.161143	-0.000496	0.001431	-0.000819	-0.572266	-0.281250	0.656738	-0.161491	-0.729058	0.161089	-0.645326
24096		9.731213	0.181329	-1.186369	0.004371	0.000634	-0.006472	-0.570557	-0.285400	0.658203	-0.161488	-0.729062	0.161126	-0.645313
24097		9.739582	0.228491	-1.166858	-0.002415	0.002276	-0.009951	-0.579834	-0.283936	0.654541	-0.161591	-0.729049	0.161195	-0.645285
24098		9.731487	0.200766	-1.159835	-0.004281	0.003484	-0.013821	-0.570801	-0.286621	0.660889	-0.161738	-0.729013	0.161238	-0.645277
24099		9.721621	0.240543	-1.112942	-0.003218	-0.000236	-0.008385	-0.568848	-0.287598	0.657959	-0.161831	-0.729019	0.161333	-0.645224
24100		9.752374	0.209191	-1.116618	0.000782	-0.000477	-0.010601	-0.573730	-0.288574	0.652100	-0.161910	-0.729037	0.161381	-0.645171
24101		9.800111	0.203004	-1.157779	0.010732	-0.004442	-0.009670	-0.568115	-0.278076	0.649414	-0.161887	-0.729091	0.161374	-0.645118
24102		9.738676	0.248685	-1.172041	0.001811	-0.001762	-0.002235	-0.578857	-0.281982	0.646973	-0.161862	-0.729099	0.161468	-0.645092
24103		9.710740	0.198571	-1.199280	0.005755	-0.000549	-0.005728	-0.572021	-0.282959	0.654541	-0.161841	-0.729091	0.161511	-0.645095
24104		9.722076	0.212665	-1.139015	0.001654	0.001179	-0.008370	-0.570312	-0.288818	0.654785	-0.161884	-0.729086	0.161556	-0.645079
24105		9.772032	0.157875	-1.185554	0.013704	0.000625	-0.010598	-0.577393	-0.280762	0.660889	-0.161853	-0.729115	0.161506	-0.645066
24106		9.779237	0.231792	-1.159146	0.019097	-0.000405	-0.010389	-0.572754	-0.292969	0.646973	-0.161735	-0.729164	0.161379	-0.645072
24107		9.749503	0.250099	-1.145999	0.010184	0.000657	-0.006099	-0.576416	-0.279053	0.654053	-0.161720	-0.729160	0.161424	-0.645070
24108		9.682577	0.189611	-1.187799	0.006401	0.004913	-0.013437	-0.572754	-0.281006	0.655762	-0.161753	-0.729139	0.161362	-0.645101
24109		9.728981	0.276101	-1.144547	-0.000314	0.005881	-0.012276	-0.568848	-0.289307	0.648438	-0.161847	-0.729102	0.161368	-0.645118
24110		9.733359	0.177369	-1.164004	0.005080	0.004854	-0.012066	-0.572266	-0.287109	0.658447	-0.161923	-0.729075	0.161377	-0.645126
24111		9.759654	0.219343	-1.196403	0.010827	0.005931	-0.014650	-0.576660	-0.289307	0.657227	-0.161954	-0.729067	0.161291	-0.645149
24112		9.720460	0.248662	-1.163959	-0.000923	0.010419	-0.014816	-0.577393	-0.286621	0.649902	-0.162108	-0.728990	0.161300	-0.645195
24113		9.743070	0.206483	-1.146740	0.006254	0.008072	-0.018740	-0.576172	-0.286377	0.651611	-0.162218	-0.728944	0.161216	-0.645241
24114		9.741500	0.250722	-1.134224	0.004566	0.005118	-0.017938	-0.573730	-0.279541	0.657959	-0.162329	-0.728921	0.161155	-0.645254
24115		9.752937	0.215583	-1.144479	0.005504	0.003518	-0.018416	-0.576660	-0.288330	0.653320	-0.162402	-0.728932	0.161048	-0.645250
24116		9.740250	0.275865	-1.142289	0.001586	0.001469	-0.014703	-0.576416	-0.288330	0.651855	-0.162511	-0.728927	0.161053	-0.645226
24117		9.721179	0.250365	-1.170068	-0.001588	0.003589	-0.012999	-0.578369	-0.285889	0.648438	-0.162641	-0.728894	0.161096	-0.645221
24118		9.742606	0.239076	-1.138500	0.000206	0.002859	-0.014611	-0.579590	-0.286621	0.656250	-0.162757	-0.728866	0.161103	-0.645221
24119		9.753457	0.211755	-1.154006	0.001117	0.002083	-0.015308	-0.580566	-0.291504	0.648926	-0.162864	-0.728858	0.161090	-0.645207
24120		9.763158	0.220953	-1.145841	0.011485	-0.001581	-0.017569	-0.571045	-0.283447	0.649414	-0.162912	-0.728888	0.161013	-0.645179
24121		9.759441	0.294470	-1.141155	0.008348	0.000495	-0.012281	-0.579590	-0.288574	0.652344	-0.162921	-0.728907	0.160965	-0.645167
24122		9.722714	0.232193	-1.171125	0.008320	0.001323	-0.012501	-0.578369	-0.290527	0.649170	-0.162948	-0.728907	0.160935	-0.645169
24123		9.742141	0.241063	-1.163523	0.011997	-0.002412	-0.014226	-0.575928	-0.288330	0.651123	-0.162960	-0.728943	0.160881	-0.645139
24124		9.782923	0.226184	-1.142236	0.010550	0.000038	-0.017098	-0.579102	-0.281250	0.655273	-0.163003	-0.728970	0.160793	-0.645118
24125		9.741292	0.256689	-1.168626	0.014538	0.001437	-0.016170	-0.573975	-0.289795	0.652832	-0.162969	-0.728999	0.160638	-0.645134
24126		9.710044	0.274201	-1.198681	0.005132	0.002467	-0.015009	-0.577148	-0.292725	0.641602	-0.163056	-0.728997	0.160614	-0.645120
24127		9.719879	0.307139	-1.147809	-0.002827	0.000851	-0.011818	-0.570068	-0.291992	0.660889	-0.163207	-0.728958	0.160717	-0.645100
24128		9.742509	0.258724	-1.140897	0.002550	0.001454	-0.008457	-0.579102	-0.286377	0.654541	-0.163268	-0.728966	0.160775	-0.645060
24129		9.791209	0.258037	-1.150744	0.008399	0.001451	-0.004492	-0.580322	-0.284424	0.651855	-0.163217	-0.728954	0.160800	-0.645081
24130		9.762577	0.234061	-1.170026	0.009316	0.001068	-0.003505	-0.573242	-0.289062	0.658447	-0.163141	-0.728939	0.160819	-0.645112
24131		9.744384	0.217509	-1.159367	0.011013	0.001648	-0.010827	-0.570801	-0.286621	0.650879	-0.163132	-0.728960	0.160775	-0.645102
24132		9.731508	0.300657	-1.115167	0.000717	0.002028	-0.011275	-0.571045	-0.285400	0.653564	-0.163216	-0.728950	0.160805	-0.645084
24133		9.711884	0.243874	-1.215077	-0.003440	0.006170	-0.011000	-0.577393	-0.289795	0.654541	-0.163335	-0.728904	0.160852	-0.645095
24134		9.733463	0.213809	-1.216145	-0.008557	0.009767	-0.019509	-0.579590	-0.286133	0.660645	-0.163593	-0.728821	0.160877	-0.645117
24135		9.767467	0.205546	-1.105149	-0.004402	0.004854	-0.023154	-0.575928	-0.281982	0.653564	-0.163807	-0.728804	0.160814	-0.645097
24136		9.734902	0.261268	-1.110688	0.011797	0.001865	-0.022507	-0.576904	-0.275879	0.656250	-0.163847	-0.728841	0.160617	-0.645095
24137		9.762039	0.268966	-1.168195	0.018054	0.002144	-0.021745	-0.572266	-0.285156	0.656006	-0.163792	-0.728894	0.160336	-0.645119
24138		9.752824	0.283968	-1.129200	0.019094	-0.001534	-0.019878	-0.563721	-0.291992	0.651367	-0.163751	-0.728977	0.160123	-0.645088
24139		9.730413	0.320592	-1.148893	0.014765	-0.004853	-0.017163	-0.569580	-0.287842	0.650146	-0.163764	-0.729077	0.160022	-0.644997
24140		9.708728	0.328538	-1.197305	-0.006800	-0.000162	-0.011071	-0.573242	-0.290039	0.649170	-0.163913	-0.729069	0.160121	-0.644943
24141		9.698128	0.182201	-1.200475	-0.010146	0.004706	-0.016367	-0.572754	-0.291992	0.651123	-0.164153	-0.729015	0.160203	-0.644923
24142		9.729980	0.195293	-1.113616	-0.012367	0.000699	-0.030922	-0.573730	-0.277588	0.648682	-0.164529	-0.729022	0.160183	-0.644824
24143		9.784032	0.267795	-1.128079	0.005131	-0.002695	-0.037768	-0.581299	-0.295898	0.653320	-0.164720	-0.729110	0.159884	-0.644751
24144		9.740551	0.324635	-1.156495	0.002009	-0.001855	-0.033943	-0.583252	-0.290527	0.652832	-0.164992	-0.729156	0.159741	-0.644664
24145		9.709601	0.356678	-1.148482	0.011806	0.000793	-0.027583	-0.573975	-0.292236	0.651855	-0.165100	-0.729186	0.159539	-0.644652
24146		9.746423	0.356423	-1.223261	0.008174	0.003053	-0.024581	-0.578369	-0.288818	0.651123	-0.165234	-0.729202	0.159398	-0.644635
24147		9.769306	0.340044	-1.164793	-0.006136	0.004921	-0.016914	-0.574463	-0.298828	0.649902	-0.165420	-0.729150	0.159418	-0.644642
24148		9.722536	0.344578	-1.097021	-0.001486	0.000968	-0.013212	-0.572998	-0.286133	0.647949	-0.165581	-0.729130	0.159504	-0.644601
24149		9.718499	0.358755	-1.192908	0.000116	0.007142	-0.007724	-0.577881	-0.291992	0.653809	-0.165628	-0.729063	0.159535	-0.644658
24150		9.700785	0.332709	-1.196891	-0.016193	0.013322	-0.005669	-0.573486	-0.293701	0.653320	-0.165841	-0.728905	0.159730	-0.644733
24151		9.759128	0.228691	-1.132595	-0.003989	0.008463	-0.012066	-0.575195	-0.288818	0.653076	-0.165996	-0.728833	0.159786	-0.644760
24152		9.783938	0.308581	-1.118434	0.002299	0.007740	-0.011922	-0.572754	-0.287354	0.652832	-0.166061	-0.728780	0.159761	-0.644809
24153		9.751284	0.346531	-1.148268	0.003623	0.008598	-0.009926	-0.572266	-0.294678	0.642334	-0.166092	-0.728726	0.159732	-0.644870
24154		9.723086	0.333148	-1.148289	-0.002768	0.012956	-0.005679	-0.571289	-0.295898	0.645508	-0.166212	-0.728588	0.159855	-0.644965
24155		9.736772	0.288358	-1.130050	0.000937	0.009251	-0.007398	-0.581787	-0.297119	0.649414	-0.166306	-0.728500	0.159939	-0.645019
24156		9.744551	0.315779	-1.142691	0.009874	0.009668	-0.005785	-0.570312	-0.302002	0.653076	-0.166304	-0.728408	0.159967	-0.645117
24157		9.754569	0.312701	-1.149268	0.007222	0.008915	-0.005566	-0.580078	-0.295898	0.651123	-0.166352	-0.728348	0.160041	-0.645154
24158		9.716380	0.322179	-1.106599	-0.002329	0.013567	-0.003615	-0.572021	-0.287598	0.652588	-0.166443	-0.728204	0.160166	-0.645261
24159		9.737841	0.288260	-1.128589	0.004981	0.009022	-0.006025	-0.572510	-0.286377	0.654297	-0.166429	-0.728148	0.160154	-0.645331
24160		9.755728	0.327208	-1.103653	0.009227	0.003247	-0.005848	-0.565918	-0.291504	0.652588	-0.166353	-0.728152	0.160110	-0.645358
24161		9.737167	0.308792	-1.114306	0.007424	0.003764	-0.005080	-0.569092	-0.291748	0.651123	-0.166324	-0.728154	0.160122	-0.645360
24162		9.736567	0.313285	-1.126863	0.003886	0.002948	-0.003945	-0.574463	-0.297119	0.642578	-0.166319	-0.728142	0.160181	-0.645360
24163		9.738151	0.292346	-1.124852	0.008340	0.003382	-0.004090	-0.576660	-0.295654	0.654297	-0.166318	-0.728098	0.160262	-0.645389
24164		9.757777	0.285005	-1.142032	0.007563	-0.000120	-0.006723	-0.574463	-0.289062	0.651123	-0.166314	-0.728110	0.160298	-0.645369
24165		9.784005	0.192902	-1.133069	0.046513	-0.002721	-0.015663	-0.579346	-0.292969	0.647949	-0.165986	-0.728244	0.159903	-0.645399
24166		9.867222	0.418341	-1.113225	0.050317	0.013539	-0.023637	-0.575928	-0.295654	0.648193	-0.165751	-0.728247	0.159413	-0.645578
24167		9.910705	0.146056	-0.969914	0.002112	0.022035	-0.026975	-0.576172	-0.299072	0.653564	-0.166020	-0.728094	0.159285	-0.645713
24168		9.782210	0.079241	-0.867322	0.023462	-0.002835	-0.063338	-0.578613	-0.286377	0.657715	-0.166351	-0.728268	0.158716	-0.645571
24169		9.827355	0.213343	-1.026734	0.022815	-0.011697	-0.085998	-0.566406	-0.297607	0.653076	-0.166764	-0.728570	0.157862	-0.645333
24170		9.688737	0.331700	-1.132832	0.029832	-0.008578	-0.094042	-0.569336	-0.293701	0.651855	-0.167259	-0.728886	0.156950	-0.645071
24171		9.628195	0.410352	-1.336831	0.040792	0.008088	-0.095036	-0.574219	-0.297119	0.650146	-0.167664	-0.729082	0.155877	-0.645004
24172		9.605826	0.641577	-1.511097	0.000516	0.040946	-0.083615	-0.574951	-0.295654	0.654541	-0.168426	-0.728885	0.155190	-0.645194
24173		9.705670	0.767191	-1.502537	-0.073914	0.068486	-0.044238	-0.576660	-0.297607	0.643555	-0.169580	-0.728244	0.155375	-0.645571
24174		9.719928	0.814228	-1.299077	-0.146147	0.097875	0.007541	-0.580811	-0.293945	0.641113	-0.171040	-0.727086	0.156571	-0.646202
24175		9.723127	0.707542	-1.253933	-0.201520	0.121435	0.055856	-0.586914	-0.301270	0.636230	-0.172618	-0.725518	0.158557	-0.647060
24176		9.729379	0.455590	-1.148710	-0.234186	0.138239	0.081755	-0.579834	-0.298340	0.636230	-0.174348	-0.723666	0.161048	-0.648054
24177		9.742194	0.123694	-0.943570	-0.205573	0.143874	0.064197	-0.579102	-0.297119	0.631104	-0.175933	-0.721899	0.163077	-0.649088
24178		9.762827	0.023574	-0.899507	-0.174038	0.144878	0.015802	-0.579834	-0.306152	0.631836	-0.177606	-0.720293	0.164386	-0.650085
24179		9.827501	-0.129914	-0.883088	-0.174763	0.154220	-0.058892	-0.583252	-0.318359	0.623047	-0.179949	-0.718767	0.165045	-0.650963
24180		9.886377	-0.161812	-0.456991	-0.176780	0.135991	-0.147005	-0.593994	-0.316895	0.620605	-0.183056	-0.717533	0.165052	-0.651456
24181		9.888954	-0.117297	-0.172230	-0.125013	0.085257	-0.241101	-0.590820	-0.321533	0.627686	-0.186309	-0.716998	0.163867	-0.651422
24182		10.262806	0.057292	-0.438792	-0.107908	0.035937	-0.315420	-0.587646	-0.331299	0.621094	-0.189887	-0.717079	0.161951	-0.650778
24183		10.387918	0.258753	-0.413917	-0.113675	-0.029817	-0.355237	-0.584717	-0.339111	0.624512	-0.193739	-0.717734	0.159922	-0.649421
24184		10.385348	0.438259	0.041317	-0.067255	-0.055155	-0.395171	-0.585938	-0.350586	0.618408	-0.197440	-0.718780	0.157208	-0.647811
24185		10.293484	0.693226	-0.111381	0.056761	-0.051108	-0.419941	-0.584717	-0.348877	0.623535	-0.200273	-0.720091	0.153316	-0.646416
24186		9.691862	1.639107	-0.622463	0.124709	-0.076857	-0.407345	-0.580078	-0.347168	0.624023	-0.202280	-0.721746	0.148984	-0.644957
24187		9.211094	2.990391	-0.854454	-0.134047	-0.110655	-0.328868	-0.580811	-0.357666	0.620850	-0.205883	-0.722855	0.147488	-0.642915
24188		9.067010	4.025892	-0.573648	-0.621617	-0.118335	-0.238971	-0.575684	-0.373291	0.611084	-0.213178	-0.722545	0.150776	-0.640118
24189		8.866224	2.061435	0.490421	-0.873835	-0.053541	-0.120770	-0.574707	-0.386475	0.612549	-0.221938	-0.720736	0.156994	-0.637680
24190		8.523712	1.515003	0.637552	-0.554935	-0.011734	-0.031506	-0.569580	-0.388916	0.612061	-0.227139	-0.719266	0.161289	-0.636435
24191		8.526315	1.299314	0.641390	-0.064354	0.036399	0.024655	-0.583984	-0.399414	0.614502	-0.227518	-0.718709	0.161963	-0.636758
24192		8.319169	1.676006	-0.103018	0.176522	0.097871	0.167806	-0.577393	-0.385986	0.613037	-0.224772	-0.718015	0.161909	-0.638528
24193		8.630931	2.271337	-1.638422	0.038201	0.031908	0.376085	-0.582520	-0.381592	0.606934	-0.221421	-0.717058	0.164939	-0.639997
24194		8.247078	1.967491	-4.084117	-0.159129	-0.146498	0.694412	-0.577148	-0.363281	0.615479	-0.216945	-0.716268	0.172930	-0.640305
24195		10.174874	0.688276	-6.521904	-0.486278	-0.414421	0.794208	-0.585693	-0.361816	0.616943	-0.213907	-0.716497	0.185012	-0.637689
24196		12.357591	-1.865673	0.402816	-0.555759	-0.135783	0.839573	-0.584473	-0.355469	0.616943	-0.211768	-0.714075	0.197340	-0.637422
24197		10.605454	0.054156	1.863427	-0.006815	-0.316867	0.714195	-0.583496	-0.345459	0.624268	-0.205238	-0.714795	0.204599	-0.636463
24198		9.747364	0.239483	-0.515457	-0.119311	-0.421100	0.642460	-0.580811	-0.343994	0.630127	-0.200002	-0.716178	0.212353	-0.634030
24199		9.743898	-1.312400	-2.709804	-0.242491	-0.374755	0.566292	-0.575439	-0.333252	0.647217	-0.196615	-0.717023	0.220298	-0.631419
24200		10.040883	0.095629	-1.946260	-0.193905	-0.321805	0.519446	-0.582764	-0.332764	0.640137	-0.193265	-0.717664	0.227262	-0.629253
24201		10.059656	-0.777132	-1.605101	-0.278970	-0.267345	0.487582	-0.569336	-0.322510	0.640137	-0.191146	-0.717662	0.234574	-0.627216
24202		9.805646	-0.920044	-1.850364	-0.217019	-0.221249	0.359894	-0.575439	-0.322998	0.656006	-0.189598	-0.717790	0.240130	-0.625434
24203		10.008283	-1.151322	-1.840219	-0.302231	-0.162437	0.243051	-0.576172	-0.319824	0.648193	-0.189807	-0.717618	0.245054	-0.623656
24204		9.886871	-1.221372	-1.766121	-0.344145	-0.109969	0.112441	-0.570068	-0.324951	0.647705	-0.191669	-0.717275	0.249129	-0.621864
24205		9.736251	-1.278371	-1.484818	-0.335225	-0.085847	-0.029708	-0.572266	-0.320312	0.654541	-0.194627	-0.717194	0.251801	-0.619959
24206		9.700847	-0.616450	-1.493277	-0.247944	-0.082065	-0.134846	-0.569824	-0.335205	0.640625	-0.197626	-0.717614	0.252844	-0.618097
24207		9.225078	-0.786034	-1.858206	-0.155122	-0.066914	-0.213680	-0.561035	-0.340088	0.639404	-0.200448	-0.718385	0.252424	-0.616462
24208		9.623602	-0.582395	-1.924022	-0.046699	-0.067875	-0.286326	-0.562744	-0.354492	0.649414	-0.202849	-0.719657	0.250517	-0.614969
24209		9.664452	0.291786	-1.783435	-0.110367	-0.056625	-0.267089	-0.569336	-0.343994	0.639404	-0.205612	-0.720650	0.249126	-0.613452
24210		9.506143	-0.172651	-1.141082	-0.106121	-0.072159	-0.258452	-0.555908	-0.354004	0.642334	-0.208314	-0.721698	0.247931	-0.611790
24211		9.631785	-0.315211	-1.604501	-0.002685	-0.096109	-0.298562	-0.561768	-0.353271	0.638916	-0.210314	-0.723313	0.245642	-0.610120
24212		9.717297	0.207261	-2.042057	0.018827	-0.088424	-0.298528	-0.553223	-0.358887	0.646240	-0.212140	-0.724915	0.243167	-0.608576
24213		9.586252	0.199153	-2.190723	0.033854	-0.059276	-0.268624	-0.546631	-0.374756	0.645996	-0.213687	-0.726235	0.240768	-0.607413
24214		9.858719	-0.174528	-1.857244	0.109174	-0.041447	-0.296113	-0.556396	-0.372070	0.649658	-0.214812	-0.727695	0.237498	-0.606557
24215		10.416034	-0.370921	-2.191838	0.010843	0.017005	-0.379270	-0.552246	-0.379883	0.648682	-0.217535	-0.728717	0.233940	-0.605741
24216		10.576950	-0.683484	-2.225901	-0.208911	0.104097	-0.549476	-0.546387	-0.392090	0.657715	-0.223801	-0.728949	0.230261	-0.604588
24217		10.748792	-1.121016	-1.698152	-0.573986	0.110050	-0.814457	-0.551025	-0.408203	0.646484	-0.235370	-0.728808	0.226864	-0.601642
24218		11.835112	-1.594208	-1.207985	-0.944650	-0.002074	-1.079952	-0.538086	-0.438721	0.624023	-0.251938	-0.728997	0.224118	-0.595703
24219		12.819982	-0.925860	0.292528	-1.040005	0.006080	-1.244267	-0.528809	-0.476807	0.607422	-0.270553	-0.729008	0.220512	-0.588831
24220		13.206002	-1.161858	0.289051	-0.751936	-0.029367	-1.282353	-0.522217	-0.499512	0.600830	-0.286641	-0.730077	0.214500	-0.582077
24221		13.940389	-0.414258	-0.388087	-0.180550	0.018736	-1.271127	-0.512939	-0.524658	0.601074	-0.297451	-0.732601	0.204169	-0.577177
24222		13.848355	3.514979	-0.927118	0.237861	-0.006065	-1.469319	-0.508545	-0.537842	0.601318	-0.305703	-0.737145	0.189033	-0.572215
24223		13.466854	8.304767	-3.042627	0.248108	-0.188661	-1.922305	-0.482910	-0.562500	0.597900	-0.316521	-0.743759	0.170244	-0.563608
24224		12.454795	11.657644	-4.969540	-0.346931	-0.518644	-2.304210	-0.448242	-0.587891	0.601807	-0.334662	-0.750596	0.153306	-0.548730
24225		12.159186	9.404513	-3.562209	-1.139782	-0.694800	-2.514687	-0.420898	-0.639648	0.592773	-0.360953	-0.754933	0.140327	-0.529243
24226		11.594898	6.789925	-2.317100	-1.140327	-0.650392	-2.701816	-0.364502	-0.675049	0.578125	-0.388076	-0.758293	0.125165	-0.508647
24227		10.380565	6.285376	-1.785284	-0.833881	-0.627726	-2.811451	-0.324707	-0.710693	0.563232	-0.412456	-0.762105	0.106668	-0.487543
24228		8.500602	5.230114	-1.602276	-0.689132	-0.653314	-2.745290	-0.277588	-0.746582	0.549316	-0.434462	-0.765688	0.087883	-0.466092
24229		7.043756	3.796083	-1.453267	-0.597565	-0.698664	-2.491346	-0.231201	-0.777100	0.538086	-0.453696	-0.768796	0.071379	-0.444992
24230		6.256317	3.287415	-0.446302	-0.536832	-0.649259	-2.114903	-0.188721	-0.803223	0.525879	-0.469865	-0.770907	0.057809	-0.426131
24231		5.417606	2.354601	0.176106	-0.440637	-0.470320	-1.627795	-0.159424	-0.815674	0.524414	-0.482341	-0.771784	0.047334	-0.411651
24232		4.491891	1.462459	0.566932	-0.356068	-0.272703	-1.076647	-0.142334	-0.823486	0.506104	-0.491117	-0.771562	0.040535	-0.402309
24233		4.131422	1.112635	0.586982	-0.183095	-0.075216	-0.528330	-0.128662	-0.834717	0.508789	-0.495503	-0.771031	0.036939	-0.398275
24234		4.056361	1.239275	0.644902	-0.185457	0.152511	0.058399	-0.136719	-0.833740	0.499268	-0.497081	-0.769058	0.037601	-0.400058
24235		4.003088	1.539496	0.451267	-0.401960	0.408016	0.651956	-0.161133	-0.837158	0.491211	-0.497859	-0.764132	0.043464	-0.407860
24236		3.931411	1.441432	0.235151	-0.513188	0.595832	1.150438	-0.197754	-0.834717	0.479980	-0.497154	-0.757121	0.053478	-0.420410
24237		4.339388	2.362920	0.126737	-0.460204	0.720442	1.564026	-0.235352	-0.837158	0.463379	-0.493657	-0.749202	0.066335	-0.436576
24238		4.801432	3.159456	-0.084602	-0.461421	0.861144	1.876318	-0.274902	-0.829590	0.445801	-0.488287	-0.739796	0.081215	-0.455721
24239		5.263484	4.113071	-0.532021	-0.194985	0.907238	1.957125	-0.323730	-0.818604	0.441650	-0.479687	-0.731137	0.094986	-0.475728
24240		6.332242	5.285845	-1.332150	0.190896	0.903882	1.893157	-0.378418	-0.796631	0.432129	-0.467594	-0.724360	0.105829	-0.495438
24241		7.321253	7.182372	-1.956381	0.433807	0.873767	1.700612	-0.420410	-0.770752	0.435303	-0.454150	-0.718972	0.113533	-0.513748
24242		7.904748	8.130911	-2.625458	0.563882	0.813168	1.326915	-0.451660	-0.746582	0.432373	-0.441616	-0.714871	0.117325	-0.529310
24243		7.985841	7.853026	-2.924020	0.663644	0.694218	0.922789	-0.472656	-0.736328	0.434570	-0.430535	-0.712447	0.117459	-0.541537
24244		8.266648	6.764494	-2.247632	0.630398	0.579799	0.630616	-0.494629	-0.724365	0.441406	-0.421463	-0.710887	0.115802	-0.550998
24245		8.318816	6.065777	-1.847338	0.689076	0.453296	0.401275	-0.512939	-0.710938	0.447510	-0.413201	-0.710731	0.112350	-0.558125
24246		8.747931	5.996757	-2.133409	0.845096	0.306958	0.204341	-0.507568	-0.699951	0.461182	-0.404668	-0.712586	0.106800	-0.563080
24247		9.133056	5.835478	-2.482375	0.765744	0.164204	0.090970	-0.514160	-0.694336	0.489014	-0.397403	-0.715116	0.101509	-0.566018
24248		8.104001	4.781586	-2.111311	0.460246	0.069371	0.078782	-0.514160	-0.683838	0.489014	-0.392809	-0.716770	0.098735	-0.567621
24249		7.052033	3.786352	-1.316156	0.347354	-0.018906	0.099028	-0.520996	-0.680908	0.487305	-0.388964	-0.718452	0.097377	-0.568376
24250		6.550514	3.700359	-0.862667	0.424868	-0.084685	0.119991	-0.518555	-0.673096	0.504395	-0.384183	-0.720936	0.095974	-0.568721
24251		5.958802	4.030359	-1.305137	0.390842	-0.163800	0.177737	-0.521240	-0.668945	0.508057	-0.379192	-0.723726	0.095711	-0.568571
24252		6.376214	7.440194	-2.062746	0.241080	-0.327849	0.181507	-0.519531	-0.654297	0.516602	-0.375320	-0.726946	0.097319	-0.566758
24253		12.423367	9.978869	-0.990168	-0.236211	-0.246423	-0.068623	-0.516113	-0.663574	0.519775	-0.377648	-0.727636	0.099641	-0.563915
24254		16.321617	-1.585189	1.264007	-0.067591	-0.112199	-0.222779	-0.513428	-0.676758	0.524658	-0.379691	-0.728356	0.098725	-0.561770
24255		13.893228	3.296864	-1.384209	0.611929	-0.221475	-0.367770	-0.503662	-0.663574	0.536377	-0.376410	-0.733212	0.092255	-0.558752
24256		6.246669	5.441478	-1.396399	0.173537	-0.170303	-0.273719	-0.496582	-0.666016	0.540527	-0.376529	-0.735501	0.089473	-0.556110
24257		5.178239	6.086435	-1.236922	-0.033372	-0.179392	-0.228701	-0.490479	-0.677246	0.541260	-0.378221	-0.736817	0.088579	-0.553356
24258		9.144053	4.425366	-0.528794	0.150597	-0.043072	-0.216193	-0.486816	-0.671875	0.547363	-0.378279	-0.738038	0.085874	-0.552114
24259		10.834967	3.802703	-2.164302	0.254574	0.000303	-0.179233	-0.485352	-0.665771	0.543701	-0.377164	-0.739402	0.082585	-0.551553
24260		7.783666	5.895605	-1.135172	-0.019577	0.049584	-0.064854	-0.483643	-0.670166	0.552002	-0.377843	-0.739011	0.082018	-0.551698
24261		8.210296	4.553072	-0.925684	0.151351	0.048085	-0.041233	-0.483398	-0.665771	0.555664	-0.376777	-0.739412	0.080493	-0.552114
24262		9.589178	4.662402	-1.358760	0.297993	0.039657	-0.045387	-0.491455	-0.664795	0.551270	-0.374373	-0.740559	0.077955	-0.552577
24263		8.675467	4.710791	-1.078548	0.269665	0.047713	-0.026479	-0.483398	-0.665527	0.554932	-0.372104	-0.741490	0.075751	-0.553167
24264		8.580002	4.847556	-1.158076	0.252153	-0.005234	-0.016092	-0.487305	-0.666260	0.564209	-0.369871	-0.742688	0.074009	-0.553293
24265		9.024220	4.372048	-1.404897	0.204817	0.001547	-0.036785	-0.483887	-0.664551	0.571045	-0.368224	-0.743633	0.072370	-0.553338
24266		8.787611	4.481831	-1.470602	0.124708	0.048935	-0.060445	-0.487793	-0.651123	0.568604	-0.367526	-0.743900	0.070848	-0.553640
24267		8.591414	4.403197	-1.322940	0.063713	0.063740	-0.097270	-0.484131	-0.656738	0.565186	-0.367663	-0.743816	0.069339	-0.553854
24268		8.521751	4.293983	-1.018815	0.054419	0.029998	-0.146362	-0.477783	-0.670898	0.565918	-0.368195	-0.743962	0.067593	-0.553519
24269		8.757993	4.615417	-0.618781	-0.013034	-0.026649	-0.174697	-0.478027	-0.667236	0.575928	-0.369501	-0.744212	0.066311	-0.552468
24270		8.436261	4.661739	-0.921401	-0.040814	-0.104462	-0.205691	-0.474854	-0.664795	0.571045	-0.371213	-0.744890	0.065291	-0.550524
24271		8.579439	4.973179	-1.211210	-0.108059	-0.144194	-0.207061	-0.471680	-0.668945	0.576172	-0.373524	-0.745524	0.064904	-0.548144
24272		8.662296	4.975154	-1.650470	-0.128873	-0.140811	-0.189813	-0.468994	-0.671143	0.565186	-0.375909	-0.746015	0.064803	-0.545852
24273		8.921420	5.238615	-1.711219	-0.058464	-0.092305	-0.141530	-0.457520	-0.679688	0.562500	-0.377345	-0.746461	0.064444	-0.544292
24274		8.231991	5.257954	-1.657670	-0.017781	-0.041668	-0.061463	-0.462891	-0.672852	0.567139	-0.377896	-0.746688	0.064316	-0.543613
24275		8.479097	5.668885	-1.485062	-0.038720	0.015859	0.036935	-0.463623	-0.677979	0.576660	-0.378020	-0.746346	0.064976	-0.543918
24276		9.028900	4.993819	-1.455866	-0.051525	0.103571	0.099258	-0.464355	-0.675537	0.564453	-0.377910	-0.745295	0.065888	-0.545324
24277		8.733933	4.491840	-1.436485	-0.035401	0.165615	0.089585	-0.464600	-0.673340	0.565186	-0.377765	-0.743901	0.066307	-0.547273
24278		8.735288	4.402873	-1.098992	-0.005878	0.179199	0.036315	-0.474365	-0.682861	0.556396	-0.377720	-0.742594	0.065967	-0.549118
24279		9.042840	4.371034	-0.784118	0.037704	0.159284	-0.026928	-0.465332	-0.683350	0.555908	-0.377685	-0.741678	0.064835	-0.550513
24280		9.649117	4.705023	-1.000675	-0.038256	0.117267	-0.074015	-0.478027	-0.681885	0.559570	-0.378643	-0.740728	0.063988	-0.551232
24281		11.232320	4.681129	-1.026846	-0.023966	0.099760	-0.143951	-0.478271	-0.681641	0.562256	-0.379935	-0.740019	0.062480	-0.551468
24282		11.432499	3.960117	-0.934037	0.096134	0.070852	-0.214200	-0.475342	-0.677734	0.551270	-0.380575	-0.740130	0.059635	-0.551193
24283		9.971264	4.424456	-0.628797	0.396492	0.013198	-0.266922	-0.470459	-0.678711	0.558105	-0.378748	-0.742090	0.054512	-0.550346
24284		7.002736	5.274667	0.373867	0.506377	0.115688	-0.276331	-0.455078	-0.675049	0.564453	-0.376020	-0.743839	0.048061	-0.550456
24285		5.706076	6.028772	0.175586	0.698760	0.268686	-0.342526	-0.460938	-0.674316	0.573242	-0.372020	-0.745421	0.038942	-0.551754
24286		5.480350	5.230757	-2.852110	0.830959	0.216178	-0.385630	-0.454590	-0.666016	0.577637	-0.367017	-0.747910	0.028740	-0.552362
24287		5.506948	6.177396	-2.632306	0.277722	0.129886	-0.357696	-0.457764	-0.667236	0.578857	-0.366932	-0.748384	0.023010	-0.552044
24288		5.723051	4.557280	-1.308009	-0.085967	0.149176	-0.272305	-0.460693	-0.667480	0.578125	-0.369656	-0.747016	0.020494	-0.552179
24289		5.279373	3.304202	-0.399918	0.157218	0.151569	-0.187830	-0.455811	-0.670654	0.583984	-0.369522	-0.746723	0.017075	-0.552782
24290		5.171246	3.527269	-0.662226	0.396162	0.127845	-0.023879	-0.457031	-0.666992	0.585938	-0.366012	-0.747648	0.013644	-0.553961
24291		5.787110	5.266784	-1.709580	0.310145	0.099214	0.186737	-0.462646	-0.660889	0.593262	-0.361834	-0.748323	0.012906	-0.555808
24292		10.278398	9.704496	-2.905534	0.043156	0.052097	0.123491	-0.461670	-0.655029	0.594727	-0.360581	-0.748119	0.013642	-0.556878
24293		11.551703	2.865415	-1.873562	-0.115428	-0.020319	0.025527	-0.464111	-0.659424	0.588135	-0.361480	-0.747720	0.014884	-0.556799
24294		11.252786	3.935609	-0.800298	0.043262	-0.197912	0.059052	-0.451904	-0.656006	0.586426	-0.360627	-0.749265	0.016151	-0.555238
24295		9.618941	6.235854	0.245434	0.055646	-0.174457	-0.023718	-0.458984	-0.658203	0.589355	-0.360235	-0.750715	0.016458	-0.553523
24296		7.463230	4.184728	0.248722	0.126056	-0.151857	-0.053166	-0.455322	-0.651611	0.592285	-0.359388	-0.752325	0.015896	-0.551900
24297		6.863901	5.503676	-1.000761	0.267405	-0.127011	-0.068704	-0.451416	-0.650146	0.616699	-0.357321	-0.754394	0.014100	-0.550466
24298		7.433597	4.956354	-2.498755	0.253797	-0.134980	-0.050208	-0.457031	-0.647217	0.611816	-0.355248	-0.756443	0.012604	-0.549030
24299		8.600979	5.014117	-2.704302	0.173713	-0.190878	-0.022260	-0.453125	-0.652100	0.619385	-0.353728	-0.758508	0.012171	-0.547169
24300		9.759456	4.918786	-1.055846	0.146038	-0.158469	-0.044893	-0.447998	-0.646729	0.617188	-0.352627	-0.760227	0.011571	-0.545505
24301		8.865314	4.482425	-0.505543	0.357762	-0.057284	-0.101542	-0.436768	-0.649414	0.632812	-0.349909	-0.762186	0.008546	-0.544576
24302		7.459300	5.735874	-2.235360	0.417601	-0.091693	-0.096561	-0.435547	-0.637451	0.638428	-0.346575	-0.764620	0.005312	-0.543335
24303		7.637761	5.137333	-1.844769	0.220196	-0.100560	-0.028825	-0.439941	-0.633301	0.643066	-0.344661	-0.766241	0.004102	-0.542280
24304		8.250038	5.241346	-1.777500	0.302619	-0.093170	-0.000772	-0.431152	-0.621094	0.642578	-0.341763	-0.768156	0.002570	-0.541413
24305		8.691410	5.518849	-1.635720	0.299739	-0.068208	0.054766	-0.432373	-0.624268	0.645508	-0.338512	-0.769877	0.001484	-0.541015
24306		8.124465	5.816336	-1.691840	0.264821	-0.043861	0.121574	-0.429199	-0.619629	0.660889	-0.335142	-0.771272	0.001173	-0.541126
24307		8.412675	5.531378	-1.872430	0.213521	-0.077531	0.193142	-0.437744	-0.614014	0.658691	-0.331777	-0.772669	0.002038	-0.541205
24308		8.800385	5.401010	-1.908757	0.154214	-0.118032	0.274852	-0.439697	-0.610596	0.658203	-0.328425	-0.774079	0.004260	-0.541222
24309		8.306222	5.657021	-1.798561	0.084163	-0.169330	0.362458	-0.448486	-0.601074	0.676514	-0.325149	-0.775525	0.008013	-0.541086
24310		8.446006	5.014411	-2.384458	0.086676	-0.153280	0.450762	-0.445557	-0.596191	0.672607	-0.321243	-0.776840	0.012537	-0.541448
24311		8.492004	5.262297	-2.581632	0.056405	-0.094214	0.520914	-0.452393	-0.587402	0.669922	-0.317152	-0.777590	0.017710	-0.542637
24312		8.598056	4.537766	-2.595996	0.042880	-0.034486	0.556822	-0.454834	-0.585938	0.673584	-0.312947	-0.777836	0.023085	-0.544520
24313		8.332929	4.816800	-2.488993	0.118591	0.026189	0.586426	-0.469971	-0.568604	0.674805	-0.307805	-0.777916	0.027995	-0.547101
24314		8.801951	4.473276	-2.355007	0.086937	0.105706	0.641018	-0.479980	-0.550537	0.669189	-0.302606	-0.777262	0.033345	-0.550620
24315		8.627155	4.246430	-2.661487	0.031415	0.208146	0.691402	-0.488525	-0.550537	0.676514	-0.297619	-0.775613	0.039176	-0.555259
24316		8.479740	3.678743	-2.677988	0.036744	0.248294	0.721242	-0.498535	-0.535645	0.669922	-0.292368	-0.773623	0.045106	-0.560352
24317		8.650486	4.009386	-1.795595	0.175019	0.234009	0.718022	-0.510254	-0.523438	0.669189	-0.285766	-0.772168	0.050087	-0.565319
24318		9.168875	3.840692	-1.295618	0.262698	0.209910	0.708959	-0.528320	-0.510254	0.668701	-0.278339	-0.771128	0.054441	-0.570022
24319		9.083456	3.216221	-1.107576	0.338212	0.105282	0.688928	-0.533203	-0.493164	0.664795	-0.270231	-0.771034	0.058424	-0.573645
24320		9.165460	3.181695	-1.447771	0.400435	0.020180	0.671138	-0.543945	-0.476562	0.666748	-0.261562	-0.771700	0.062071	-0.576378
24321		8.874944	3.720033	-1.580910	0.328203	-0.028714	0.701185	-0.554932	-0.461426	0.675293	-0.253311	-0.772383	0.066683	-0.578628
24322		9.022957	3.572920	-1.477286	0.181662	-0.077102	0.762350	-0.558350	-0.452393	0.671387	-0.245967	-0.772827	0.073089	-0.580427
24323		9.432689	2.748700	-1.437137	0.196197	-0.112322	0.792856	-0.569824	-0.428467	0.681885	-0.238206	-0.773464	0.079784	-0.581933
24324		9.095534	3.097797	-2.288309	0.248892	-0.138267	0.817077	-0.567627	-0.410645	0.687012	-0.229703	-0.774334	0.086394	-0.583249
24325		9.224053	2.955168	-2.611457	0.082239	-0.092544	0.901501	-0.572510	-0.397949	0.687256	-0.222218	-0.774206	0.094891	-0.584996
24326		9.087472	2.494049	-2.780921	0.109913	-0.047206	0.962887	-0.586182	-0.380615	0.687500	-0.214040	-0.773643	0.103640	-0.587301
24327		8.992620	2.724175	-2.231468	0.029086	-0.040679	1.040936	-0.587891	-0.357178	0.691650	-0.206046	-0.772589	0.113706	-0.589680
24328		9.440964	1.760179	-1.904239	-0.026622	-0.060028	1.094905	-0.603760	-0.344971	0.689941	-0.198124	-0.771320	0.124726	-0.591824
24329		9.637877	1.225384	-1.952259	-0.081612	-0.087636	1.112436	-0.611816	-0.328857	0.680664	-0.190525	-0.769939	0.136370	-0.593547
24330		9.538286	1.031672	-2.430019	0.021996	-0.090265	1.092603	-0.612305	-0.319580	0.691406	-0.182035	-0.768708	0.147034	-0.595258
24331		9.086219	1.086963	-2.140955	-0.070271	-0.090265	1.092458	-0.627441	-0.286865	0.693848	-0.174398	-0.767123	0.158355	-0.596683
24332		8.863729	-0.018211	-1.838409	-0.040286	-0.120980	1.044566	-0.632812	-0.268066	0.692871	-0.166736	-0.765786	0.169031	-0.597661
24333		9.223155	-0.249403	-2.602266	0.068850	-0.143939	0.922800	-0.634766	-0.254639	0.692139	-0.158866	-0.764985	0.177749	-0.598302
24334		9.179241	-1.678852	-3.027122	0.017987	-0.113815	0.697291	-0.631836	-0.245361	0.699951	-0.153218	-0.764274	0.184615	-0.598604
24335		8.957408	-2.403494	-3.099933	0.031660	-0.070922	0.316727	-0.630859	-0.244873	0.695557	-0.150378	-0.764108	0.187659	-0.598589
24336		9.255918	-1.889611	-2.297411	-0.128366	-0.051761	-0.088689	-0.627930	-0.242432	0.695068	-0.152143	-0.764440	0.187999	-0.597612
24337		9.678638	-1.601812	-2.405734	-0.076582	-0.048573	-0.409662	-0.632080	-0.247314	0.704590	-0.155815	-0.765589	0.184882	-0.596166
24338		9.576970	-0.542331	-2.154640	-0.076753	-0.062141	-0.604509	-0.619629	-0.267578	0.699463	-0.160902	-0.767255	0.179926	-0.594186
24339		9.633754	0.597255	-2.744686	0.138072	-0.057218	-0.612009	-0.615723	-0.272217	0.704834	-0.163987	-0.769288	0.173284	-0.592686
24340		9.329123	1.267355	-2.743718	0.146934	-0.032844	-0.470818	-0.619141	-0.274170	0.705322	-0.165984	-0.770816	0.167874	-0.591701
24341		9.535514	1.799378	-1.861774	0.135958	-0.049442	-0.318743	-0.608398	-0.285889	0.702393	-0.166923	-0.772105	0.164039	-0.590832
24342		9.475853	1.488334	-2.628034	0.139976	-0.041816	-0.174063	-0.609863	-0.287354	0.703125	-0.166770	-0.773039	0.161548	-0.590339
24343		9.644825	0.644668	-2.825014	0.010163	-0.013939	-0.122539	-0.597900	-0.291260	0.706055	-0.167547	-0.773390	0.160452	-0.589958
24344		9.476714	0.362838	-2.050374	-0.000319	-0.024109	-0.157763	-0.603271	-0.295166	0.709229	-0.168664	-0.773864	0.159113	-0.589381
24345		9.525778	1.042919	-2.522677	0.068601	-0.036956	-0.157333	-0.609131	-0.286133	0.708496	-0.169084	-0.774573	0.157297	-0.588816
24346		9.393088	0.650843	-2.693208	-0.002451	-0.018857	-0.169957	-0.599854	-0.295410	0.705566	-0.170317	-0.775019	0.155842	-0.588261
24347		9.382630	-0.370332	-2.214804	-0.056723	-0.022089	-0.282521	-0.604248	-0.295898	0.714111	-0.172899	-0.775587	0.153702	-0.587321
24348		9.313216	0.736245	-2.130465	-0.043881	-0.064698	-0.400792	-0.601807	-0.305420	0.708008	-0.176135	-0.776709	0.150411	-0.585727
24349		9.353304	0.069174	-2.698639	-0.055745	-0.065957	-0.493729	-0.594727	-0.310059	0.714111	-0.180162	-0.777961	0.146306	-0.583878
24350		9.360992	-0.273981	-3.279658	0.108097	-0.005530	-0.626649	-0.593018	-0.322510	0.715332	-0.183663	-0.779348	0.139568	-0.582585
24351		9.267077	1.321719	-2.697449	0.094780	0.028775	-0.755782	-0.577393	-0.324707	0.708008	-0.188283	-0.780620	0.131588	-0.581262
24352		9.592225	0.001638	-1.854714	-0.103680	-0.015620	-0.890349	-0.579834	-0.354004	0.711182	-0.195722	-0.781889	0.123826	-0.578801
24353		9.270946	2.050291	-1.160875	-0.098494	-0.212523	-0.989179	-0.568848	-0.366699	0.713135	-0.203502	-0.784633	0.115535	-0.574099
24354		9.488622	1.843554	-2.088856	-0.500165	-0.403391	-0.944363	-0.555420	-0.395264	0.713623	-0.214584	-0.787518	0.111027	-0.566959
24355		8.904031	1.144143	-3.908777	-0.168095	-0.206800	-1.017781	-0.538574	-0.399902	0.718994	-0.223156	-0.789853	0.102899	-0.561912
24356		7.733780	4.408300	-3.431963	-0.114854	-0.162707	-0.986651	-0.525146	-0.423096	0.727539	-0.230988	-0.791865	0.094556	-0.557363
24357		8.856192	2.602100	-2.292644	-0.277473	-0.141978	-0.864810	-0.510986	-0.433838	0.723389	-0.239577	-0.793009	0.088474	-0.553092
24358		9.586367	3.266030	-2.828406	-0.180209	-0.142583	-0.849847	-0.509521	-0.457275	0.729980	-0.247064	-0.794334	0.081854	-0.548901
24359		9.565483	2.037788	-2.583810	-0.178467	-0.021298	-0.876164	-0.495605	-0.469238	0.722168	-0.254814	-0.794760	0.074581	-0.545770
24360		8.238047	2.914678	-3.222062	-0.030814	-0.005946	-0.910370	-0.481201	-0.482666	0.722900	-0.261312	-0.795483	0.065908	-0.542751
24361		7.531031	5.223053	-3.638962	0.099543	-0.049544	-0.825670	-0.473877	-0.487549	0.721680	-0.265874	-0.796767	0.057327	-0.539617
24362		10.167969	3.352344	-2.280829	-0.162254	0.029244	-0.674205	-0.468018	-0.502686	0.719727	-0.272052	-0.796470	0.051748	-0.537537
24363		9.497716	3.112246	-2.220165	0.049293	0.057394	-0.773098	-0.460205	-0.518555	0.719238	-0.276787	-0.796699	0.043668	-0.535492
24364		5.269384	3.654140	-3.524300	0.151011	-0.029060	-0.774620	-0.454102	-0.526855	0.726562	-0.280449	-0.797785	0.035194	-0.532586
24365		8.879081	7.624308	-2.934329	-0.120663	-0.099192	-0.460413	-0.439453	-0.531006	0.728516	-0.284673	-0.798198	0.031895	-0.529928
24366		10.642174	2.730676	-2.085133	-0.019801	0.047866	-0.399299	-0.445312	-0.535889	0.729736	-0.287536	-0.797948	0.028001	-0.528978
24367		8.483061	5.149616	-2.600737	0.160771	0.020779	-0.435564	-0.432861	-0.535400	0.728027	-0.288820	-0.798515	0.022654	-0.527677
24368		8.298400	3.644653	-2.602516	0.000109	0.023261	-0.452344	-0.427490	-0.544678	0.720947	-0.291809	-0.798465	0.018186	-0.526279
24369		6.561727	5.507567	-3.351365	0.053015	-0.040545	-0.374637	-0.420410	-0.547119	0.726807	-0.293738	-0.798990	0.014381	-0.524525
24370		9.582908	5.321539	-2.484979	-0.108580	0.031667	-0.194841	-0.419189	-0.546875	0.721680	-0.296110	-0.798404	0.013160	-0.524115
24371		8.623590	4.186457	-2.619714	-0.106430	0.098088	-0.175907	-0.420410	-0.554443	0.718262	-0.298345	-0.797381	0.011867	-0.524436
24372		8.078213	4.170164	-2.502376	0.064091	0.060005	-0.263031	-0.425781	-0.552490	0.721680	-0.299444	-0.797249	0.008732	-0.524072
24373		7.649013	4.296115	-2.834170	0.044028	0.043411	-0.293411	-0.413086	-0.566650	0.721191	-0.300936	-0.797144	0.005487	-0.523421
24374		8.257667	5.416044	-2.902372	-0.030700	0.028741	-0.238340	-0.408447	-0.560303	0.718262	-0.302808	-0.796842	0.003335	-0.522819
24375		8.759220	4.595375	-2.324704	-0.073511	0.069738	-0.214051	-0.406738	-0.570068	0.724121	-0.304946	-0.796102	0.001547	-0.522712
24376		8.345539	4.395170	-2.496761	-0.034309	0.065196	-0.261026	-0.407959	-0.569092	0.715088	-0.306998	-0.795534	-0.000947	-0.522376
24377		7.272290	4.693378	-2.928963	-0.015452	0.031094	-0.302730	-0.407471	-0.577881	0.711426	-0.309132	-0.795251	-0.003845	-0.521535
24378		8.473048	5.347864	-2.715863	-0.121349	0.036383	-0.243014	-0.405273	-0.577148	0.710938	-0.311926	-0.794517	-0.005479	-0.520975
24379		8.678975	4.684954	-2.318572	-0.143031	0.064727	-0.240395	-0.407471	-0.582275	0.713379	-0.314911	-0.793505	-0.007060	-0.520702
24380		7.089069	4.640283	-2.648950	-0.022780	0.026713	-0.290788	-0.396484	-0.594727	0.708252	-0.317031	-0.793199	-0.009772	-0.519837
24381		8.527546	5.334299	-2.457638	-0.077264	0.020347	-0.279631	-0.397217	-0.592529	0.715576	-0.319616	-0.792711	-0.011994	-0.518953
24382		8.465792	4.979989	-2.402680	-0.057543	0.031264	-0.307885	-0.388672	-0.599121	0.710449	-0.322182	-0.792215	-0.014669	-0.518054
24383		7.690089	5.265152	-2.450239	-0.061527	0.005173	-0.302547	-0.386963	-0.596680	0.711426	-0.324753	-0.791861	-0.017158	-0.516911
24384		7.876384	6.165208	-2.790957	-0.062624	-0.004737	-0.230009	-0.387451	-0.608643	0.701172	-0.326865	-0.791573	-0.018884	-0.515960
24385		8.492342	5.720174	-2.547640	-0.058939	0.053081	-0.122652	-0.379639	-0.613770	0.702148	-0.328233	-0.790948	-0.019806	-0.516015
24386		7.389845	5.812256	-2.670566	-0.003904	0.081136	-0.027330	-0.386963	-0.602539	0.706787	-0.328435	-0.790390	-0.020258	-0.516724
24387		6.700461	5.888278	-2.804196	-0.067525	0.080835	0.088936	-0.380371	-0.608887	0.696045	-0.328512	-0.789600	-0.019153	-0.517923
24388		8.618130	5.452539	-1.857975	-0.097948	0.085067	0.164658	-0.387207	-0.614746	0.695068	-0.328399	-0.788673	-0.017122	-0.519477
24389		8.259299	5.171053	-1.953525	-0.000707	0.044333	0.140982	-0.390625	-0.604492	0.691650	-0.327488	-0.788398	-0.015788	-0.520510
24390		7.741257	4.857658	-2.269383	-0.036718	-0.003270	0.095268	-0.403320	-0.609619	0.696777	-0.327236	-0.788275	-0.014476	-0.520894
24391		7.962633	4.877420	-2.553364	-0.102677	-0.034988	0.041169	-0.398193	-0.609619	0.697510	-0.327992	-0.788076	-0.013136	-0.520754
24392		8.575545	4.664040	-2.604627	-0.136948	-0.032496	-0.023740	-0.394287	-0.606201	0.694092	-0.329507	-0.787708	-0.012224	-0.520377
24393		8.022565	4.451179	-3.123224	-0.080651	0.037954	-0.078358	-0.395020	-0.616211	0.693604	-0.330810	-0.787104	-0.012505	-0.520458
24394		7.263515	5.417577	-2.780735	-0.091442	0.059978	-0.101290	-0.392090	-0.610107	0.690186	-0.332364	-0.786306	-0.013027	-0.520660
24395		8.592260	5.061699	-2.234491	-0.109107	0.093370	-0.108349	-0.400146	-0.621826	0.689697	-0.334130	-0.785214	-0.013647	-0.521162
24396		8.433495	5.083750	-2.351320	-0.053970	0.062881	-0.138734	-0.393799	-0.613281	0.693115	-0.335559	-0.784541	-0.014790	-0.521226
24397		7.596543	5.207240	-1.827698	-0.067656	-0.017541	-0.146490	-0.388672	-0.622559	0.687256	-0.337181	-0.784332	-0.015590	-0.520470
24398		6.957504	5.599507	-1.360331	-0.025984	-0.061267	-0.150159	-0.380615	-0.617920	0.689209	-0.338430	-0.784578	-0.016508	-0.519259
24399		7.884151	5.373041	-1.965342	0.029793	-0.068404	-0.149250	-0.381836	-0.631104	0.686768	-0.339123	-0.785104	-0.017758	-0.517969
24400		7.997322	5.057555	-2.827419	0.031780	-0.085014	-0.148328	-0.372314	-0.627686	0.693115	-0.339800	-0.785741	-0.018930	-0.516516
24401		7.282506	5.579475	-1.703129	-0.064980	-0.103953	-0.125039	-0.374023	-0.631592	0.689453	-0.341275	-0.786093	-0.019177	-0.514997
24402		7.133434	5.270732	-1.250320	0.071450	-0.082714	-0.137389	-0.371582	-0.635498	0.690918	-0.341485	-0.786882	-0.020507	-0.513600
24403		7.168395	5.301459	-2.446785	0.185950	-0.081065	-0.131479	-0.369629	-0.625488	0.699707	-0.340530	-0.788144	-0.022520	-0.512212
24404		7.980142	5.937087	-2.886680	0.145125	-0.084313	-0.078895	-0.376709	-0.628418	0.706299	-0.339632	-0.789264	-0.023750	-0.511026
24405		8.147739	5.406355	-2.471737	0.187479	-0.067350	-0.041868	-0.375488	-0.624268	0.700439	-0.338075	-0.790462	-0.024952	-0.510150
24406		7.538180	5.756912	-2.506425	0.248126	-0.063060	-0.011205	-0.375488	-0.621826	0.709229	-0.335722	-0.791891	-0.026250	-0.509421
24407		7.588155	5.909069	-2.452940	0.217316	-0.082144	0.029695	-0.364014	-0.620117	0.706055	-0.333416	-0.793319	-0.026872	-0.508681
24408		8.292736	5.552581	-2.379153	0.164191	-0.127842	0.059211	-0.367188	-0.614990	0.716309	-0.331463	-0.794821	-0.026675	-0.507623
24409		8.394661	5.854799	-2.552916	0.130365	-0.191725	0.077487	-0.365234	-0.617676	0.721924	-0.329746	-0.796587	-0.025819	-0.506014
24410		7.747032	5.942835	-2.767530	0.078243	-0.192362	0.135463	-0.362061	-0.609863	0.719238	-0.328180	-0.798153	-0.024052	-0.504651
24411		8.181563	6.148970	-2.752602	0.047470	-0.174705	0.215760	-0.361328	-0.607666	0.723877	-0.326405	-0.799496	-0.021363	-0.503796
24412		7.842870	6.432863	-2.633727	-0.051678	-0.179246	0.318325	-0.368652	-0.600098	0.726562	-0.324970	-0.800476	-0.017008	-0.503332
24413		7.871203	6.161181	-2.568541	-0.202535	-0.211906	0.449530	-0.364990	-0.597412	0.725586	-0.324214	-0.801049	-0.010261	-0.503091
24414		7.929748	5.888931	-2.657277	-0.251010	-0.232955	0.551313	-0.372070	-0.608154	0.714111	-0.323288	-0.801525	-0.002111	-0.503029
24415		8.151553	5.622602	-2.794225	-0.301341	-0.236280	0.665070	-0.373291	-0.601074	0.718018	-0.322131	-0.801756	0.007522	-0.503352
24416		7.764611	5.359226	-3.131727	-0.234618	-0.219531	0.743328	-0.375977	-0.589355	0.712158	-0.319778	-0.802063	0.017438	-0.504115
24417		7.360387	5.376581	-3.359883	-0.244616	-0.209154	0.866049	-0.389160	-0.593018	0.716064	-0.316713	-0.802144	0.028598	-0.505411
24418		7.854008	4.577715	-3.603552	-0.142331	-0.203860	0.957509	-0.399658	-0.582520	0.719971	-0.312003	-0.802446	0.040005	-0.507084
24419		7.744570	4.434833	-3.898001	-0.043699	-0.126106	1.021025	-0.412109	-0.567871	0.719971	-0.305884	-0.802481	0.051107	-0.509752
24420		7.699250	3.792153	-4.198978	0.065179	0.027824	1.092180	-0.433594	-0.555664	0.712158	-0.298261	-0.801764	0.061630	-0.514214
24421		8.689253	4.253395	-3.205285	0.112403	0.211772	1.109232	-0.448730	-0.540039	0.719482	-0.290146	-0.799867	0.071342	-0.520517
24422		8.483613	3.376015	-2.426769	0.131537	0.241943	1.056130	-0.465576	-0.529053	0.707275	-0.282146	-0.797739	0.080256	-0.526844
24423		8.344375	4.457380	-2.078205	0.073765	0.166651	1.076001	-0.474609	-0.511475	0.711670	-0.274475	-0.795728	0.090020	-0.532331
24424		9.021546	3.275734	-1.987637	-0.047617	0.056592	1.095391	-0.492676	-0.491699	0.709473	-0.267696	-0.793868	0.101118	-0.536551
24425		9.027840	2.667718	-2.712754	-0.113638	-0.061852	1.038278	-0.502441	-0.489014	0.713623	-0.261750	-0.792509	0.112469	-0.539229
24426		8.775742	2.629344	-3.170210	-0.229428	-0.068959	1.013442	-0.520264	-0.472656	0.706787	-0.257068	-0.790719	0.124355	-0.541493
24427		8.274628	2.243928	-3.698140	-0.100894	0.123668	1.040783	-0.541504	-0.461914	0.702148	-0.251183	-0.787853	0.135017	-0.545862
24428		9.162762	1.799873	-3.105285	-0.105984	0.217599	1.074605	-0.544922	-0.446045	0.698975	-0.245238	-0.784121	0.145745	-0.551154
24429		8.850919	0.927372	-3.124937	0.127263	0.316609	0.986695	-0.554932	-0.422852	0.697266	-0.237734	-0.780453	0.153648	-0.557465
24430		9.157909	2.053216	-2.454221	0.183901	0.306542	0.918475	-0.567383	-0.407471	0.684570	-0.230083	-0.777035	0.160486	-0.563491
24431		9.285647	1.287267	-2.235847	0.044187	0.344538	0.884828	-0.585938	-0.393066	0.691895	-0.224093	-0.772887	0.167877	-0.569425
24432		9.147005	1.399740	-2.376320	0.093786	0.268349	0.828801	-0.597656	-0.380371	0.687012	-0.217832	-0.769436	0.174564	-0.574495
24433		8.962252	0.121062	-2.926208	0.215762	0.204640	0.738623	-0.598145	-0.369385	0.671875	-0.210887	-0.766884	0.179668	-0.578909
24434		9.115946	0.488360	-2.009912	0.326602	0.104005	0.570268	-0.604492	-0.357422	0.683594	-0.203856	-0.765663	0.182610	-0.582114
24435		9.898309	-0.935320	-1.496401	0.335456	0.068318	0.378405	-0.605957	-0.325195	0.683105	-0.198042	-0.765121	0.183732	-0.584476
24436		10.002316	-0.303746	-1.500054	0.398608	-0.012116	0.170377	-0.613770	-0.318848	0.692383	-0.192951	-0.765771	0.182601	-0.585680
24437		9.610763	0.200578	-2.151361	0.320598	-0.062413	-0.012814	-0.613281	-0.315674	0.696533	-0.189830	-0.767001	0.180407	-0.585771
24438		9.605975	0.774159	-2.048171	-0.046599	-0.142454	-0.130214	-0.613525	-0.323242	0.686523	-0.190905	-0.768202	0.179965	-0.583981
24439		9.909439	0.058036	-2.270774	-0.050250	-0.176892	-0.206127	-0.606445	-0.328125	0.698242	-0.192491	-0.769809	0.178901	-0.581667
24440		9.453098	0.680156	-2.996753	0.089385	-0.084501	-0.211961	-0.599121	-0.326660	0.704346	-0.192980	-0.771085	0.176544	-0.580533
24441		9.156465	2.356826	-2.623852	0.030193	-0.056481	-0.112205	-0.594971	-0.338135	0.697998	-0.193376	-0.771791	0.175509	-0.579777
24442		9.447035	1.803342	-2.180350	-0.178072	-0.142249	-0.008884	-0.599365	-0.337646	0.688721	-0.194844	-0.772385	0.177184	-0.577982
24443		9.681640	0.015038	-3.055269	-0.170476	-0.062990	0.018396	-0.592285	-0.340820	0.692139	-0.196216	-0.772359	0.178870	-0.577033
24444		9.244919	1.126707	-2.867426	0.003091	0.016054	-0.006852	-0.593994	-0.341309	0.696777	-0.196269	-0.772243	0.178869	-0.577170
24445		9.221762	0.669012	-2.633888	-0.045022	0.018127	-0.049599	-0.598145	-0.345459	0.701172	-0.197101	-0.772089	0.178796	-0.577115
24446		9.526987	0.752375	-2.659523	-0.012498	0.029446	-0.059637	-0.594238	-0.343994	0.696289	-0.197715	-0.771956	0.178365	-0.577216
24447		9.379354	1.097824	-2.581625	0.004841	0.041660	-0.048633	-0.598389	-0.346680	0.694824	-0.198111	-0.771753	0.177886	-0.577500
24448		9.271165	1.048371	-2.299741	0.049494	0.023193	-0.055324	-0.599854	-0.342529	0.690918	-0.198083	-0.771807	0.177065	-0.577689
24449		9.563716	0.807932	-2.278141	-0.039907	-0.025855	-0.080937	-0.602539	-0.336914	0.696289	-0.198993	-0.772050	0.176763	-0.577144
24450		9.426975	0.541402	-2.801650	-0.006150	-0.001915	-0.123254	-0.597656	-0.340576	0.699219	-0.199933	-0.772297	0.175748	-0.576799
24451		9.256084	1.087379	-2.691352	-0.022222	0.035528	-0.137624	-0.600342	-0.354736	0.700439	-0.201214	-0.772264	0.174618	-0.576740
24452		9.384757	0.916726	-2.255835	0.020426	-0.005542	-0.162795	-0.592529	-0.351807	0.701660	-0.202178	-0.772686	0.173042	-0.576313
24453		9.614355	0.825346	-2.286257	-0.025794	-0.045763	-0.209442	-0.593506	-0.359375	0.698975	-0.203834	-0.773379	0.171448	-0.575276
24454		9.330713	1.194665	-2.073166	-0.073777	-0.140987	-0.272596	-0.588135	-0.361084	0.692627	-0.206205	-0.774759	0.169832	-0.573049
24455		9.766955	0.945787	-1.764414	-0.326942	-0.349997	-0.356837	-0.578613	-0.374023	0.703125	-0.211179	-0.777134	0.169746	-0.568025
24456		9.386609	-0.119653	-3.609894	-0.054050	-0.171359	-0.474665	-0.579834	-0.387207	0.710205	-0.214706	-0.779176	0.166096	-0.564976
24457		9.201871	0.533091	-3.315900	-0.048074	-0.096212	-0.588422	-0.565430	-0.388916	0.705566	-0.219125	-0.780901	0.161093	-0.562340
24458		8.715412	1.424776	-2.338859	0.115320	-0.131912	-0.733610	-0.557617	-0.404297	0.712402	-0.222879	-0.783563	0.153611	-0.559247
24459		8.487082	2.848814	-2.616912	0.046115	-0.182862	-0.690331	-0.549072	-0.407959	0.711670	-0.226895	-0.786241	0.147168	-0.555594
24460		9.595647	0.975309	-2.917319	0.150298	-0.202439	-0.695543	-0.536621	-0.416260	0.713135	-0.229868	-0.789296	0.139990	-0.551884
24461		9.271037	1.527941	-3.006564	0.313209	-0.151015	-0.775308	-0.527832	-0.427979	0.714355	-0.231853	-0.792526	0.130746	-0.548682
24462		8.902965	3.399364	-2.386360	0.025342	-0.146388	-0.729141	-0.517822	-0.437744	0.726562	-0.236366	-0.794734	0.123918	-0.545136
24463		8.867822	2.308547	-2.850928	-0.116210	-0.135440	-0.753385	-0.512939	-0.446533	0.726074	-0.242442	-0.796421	0.117760	-0.541357
24464		9.078980	1.324123	-3.206029	-0.106583	-0.137622	-0.805232	-0.493652	-0.465088	0.722412	-0.248743	-0.798149	0.111015	-0.537365
24465		7.983016	4.250542	-3.261384	0.053168	-0.091685	-0.793510	-0.481201	-0.473389	0.721924	-0.253420	-0.799967	0.103173	-0.534028
24466		8.635909	3.312792	-3.526290	0.047539	-0.017135	-0.669119	-0.485352	-0.477051	0.725586	-0.257399	-0.801044	0.096365	-0.531778
24467		10.185811	1.350585	-2.765751	-0.040480	0.065341	-0.797422	-0.474365	-0.486328	0.723145	-0.263182	-0.801376	0.088580	-0.529798
24468		7.857291	2.894823	-3.319420	0.219035	-0.004359	-0.964340	-0.463379	-0.493896	0.732178	-0.267360	-0.803109	0.077627	-0.526792
24469		8.058834	5.395823	-2.338326	-0.036257	-0.055239	-0.725928	-0.449463	-0.501465	0.734131	-0.272445	-0.804003	0.070902	-0.523762
24470		8.849000	4.281975	-3.341556	-0.065971	-0.083902	-0.639733	-0.439209	-0.513184	0.729248	-0.277216	-0.804852	0.065316	-0.520671
24471		9.963021	3.490519	-2.533699	-0.126749	0.021644	-0.605251	-0.434082	-0.530273	0.730713	-0.282455	-0.804723	0.060117	-0.518678
24472		8.369308	4.458077	-2.903586	-0.102786	0.024279	-0.632855	-0.422607	-0.535889	0.726074	-0.287626	-0.804631	0.054486	-0.516597
24473		7.959308	3.662527	-2.863391	-0.124115	0.015966	-0.633836	-0.423828	-0.551758	0.731445	-0.292992	-0.804467	0.049004	-0.514380
24474		8.672371	4.587387	-2.817250	-0.227435	-0.005007	-0.567689	-0.412354	-0.555908	0.718750	-0.298944	-0.803968	0.044934	-0.512103
24475		8.368575	4.316020	-3.088362	-0.108238	-0.027860	-0.567314	-0.404785	-0.556885	0.724609	-0.303665	-0.804016	0.040186	-0.509638
24476		7.111925	4.117445	-3.236197	-0.145210	-0.037399	-0.537759	-0.406250	-0.577881	0.727295	-0.308528	-0.803936	0.035974	-0.507151
24477		8.374834	4.885240	-3.425437	-0.106962	-0.040032	-0.445930	-0.396240	-0.583740	0.727051	-0.312426	-0.803942	0.032477	-0.504987
24478		8.696002	4.560491	-3.232803	0.081805	0.025866	-0.472628	-0.386963	-0.586182	0.724609	-0.314606	-0.804258	0.027247	-0.503438
24479		8.277309	4.532657	-2.799120	0.074793	0.103754	-0.462739	-0.383301	-0.594238	0.718506	-0.316807	-0.804026	0.021851	-0.502690
24480		6.609850	5.039372	-3.324716	0.149066	0.038169	-0.439497	-0.373779	-0.587646	0.719482	-0.318091	-0.804466	0.016485	-0.501379
24481		8.530493	4.892731	-2.865999	0.097759	0.018661	-0.352927	-0.375000	-0.591064	0.719971	-0.319328	-0.804788	0.012376	-0.500193
24482		8.874596	5.174943	-2.801177	0.187509	0.068688	-0.393057	-0.367920	-0.591553	0.732910	-0.319914	-0.805141	0.007106	-0.499353
24483		6.840722	5.244157	-3.436026	0.113076	0.126549	-0.369511	-0.367676	-0.596924	0.731689	-0.321094	-0.804813	0.002297	-0.499169
24484		7.961741	5.654976	-2.975242	0.034439	0.134901	-0.266056	-0.370850	-0.592285	0.722900	-0.322418	-0.804098	-0.001009	-0.499472
24485		8.810817	5.318665	-2.536769	0.079959	0.156224	-0.240518	-0.366943	-0.606934	0.729492	-0.323121	-0.803422	-0.004427	-0.500086
24486		7.185733	5.104478	-3.005961	0.073754	0.141304	-0.230930	-0.360596	-0.606445	0.729980	-0.323824	-0.802806	-0.007649	-0.500582
24487		7.240527	5.427903	-2.824681	0.036774	0.098634	-0.178857	-0.364990	-0.604004	0.725586	-0.324573	-0.802305	-0.009949	-0.500859
24488		8.536571	5.744614	-2.698448	0.019684	0.085618	-0.116765	-0.361084	-0.606201	0.728027	-0.325104	-0.801820	-0.011466	-0.501259
24489		8.225644	5.581356	-3.235468	-0.024081	0.147046	-0.078850	-0.359619	-0.604736	0.720215	-0.325826	-0.800775	-0.012581	-0.502432
24490		6.956887	4.074526	-3.100626	-0.031236	0.216405	-0.077137	-0.367188	-0.603027	0.718262	-0.326596	-0.799261	-0.013915	-0.504305
24491		7.749588	5.439660	-2.387686	0.194348	0.154620	-0.152793	-0.368896	-0.606689	0.716553	-0.325596	-0.799036	-0.017173	-0.505207
24492		8.402628	5.427446	-2.304111	0.090121	0.128339	-0.168079	-0.361084	-0.597168	0.722656	-0.325738	-0.798541	-0.019815	-0.505801
24493		7.176382	4.931335	-2.446705	-0.007076	0.073685	-0.180256	-0.373047	-0.607422	0.723633	-0.326934	-0.797988	-0.021752	-0.505822
24494		7.924651	5.892369	-2.456871	-0.028706	0.004146	-0.170817	-0.364014	-0.608643	0.720215	-0.328306	-0.797784	-0.023166	-0.505193
24495		8.391155	5.334765	-2.559639	0.008202	0.023645	-0.182354	-0.362305	-0.603027	0.719971	-0.329377	-0.797601	-0.025010	-0.504696
24496		7.191243	5.626057	-2.885908	-0.018620	0.015824	-0.166941	-0.360840	-0.614990	0.722900	-0.330615	-0.797359	-0.026502	-0.504193
24497		7.778934	5.699291	-2.817386	-0.118772	0.015969	-0.120653	-0.365479	-0.611816	0.722900	-0.332563	-0.796713	-0.026898	-0.503911
24498		8.172286	5.553348	-2.518862	-0.044345	0.034673	-0.109693	-0.346191	-0.614502	0.715820	-0.333689	-0.796260	-0.027735	-0.503838
24499		7.260127	5.620311	-2.735419	-0.019408	0.032885	-0.095117	-0.355957	-0.619873	0.711670	-0.334478	-0.795928	-0.028579	-0.503793
