// Start Time: Unknown
// Update Rate: 40.0Hz
// Filter Profile: human (46.1)
// Firmware Version: 4.6.0
PacketCounter	SampleTimeFine	Acc_X	Acc_Y	Acc_Z	Gyr_X	Gyr_Y	Gyr_Z	Mag_X	Mag_Y	Mag_Z	Quat_q0	Quat_q1	Quat_q2	Quat_q3
23592		9.505864	0.739537	2.028025	-0.005143	0.005572	-0.002490	-0.673584	-0.449707	-0.321045	0.667727	0.362950	-0.514082	0.397654
23593		9.515480	0.723313	2.025741	-0.007104	-0.000515	-0.003511	-0.675049	-0.443604	-0.321533	0.667773	0.362916	-0.514105	0.397577
23594		9.540192	0.712210	1.980857	0.003059	0.000255	-0.002572	-0.676270	-0.448486	-0.325195	0.667772	0.362951	-0.514080	0.397579
23595		9.522409	0.739511	2.027890	0.001366	0.001141	0.000784	-0.665527	-0.438965	-0.337158	0.667767	0.362952	-0.514070	0.397600
23596		9.517587	0.747774	2.029035	-0.001231	-0.004107	-0.000336	-0.671143	-0.450684	-0.320068	0.667746	0.362964	-0.514111	0.397570
23597		9.489818	0.754905	2.023372	0.000967	-0.004892	0.001387	-0.668701	-0.444092	-0.319336	0.667702	0.362988	-0.514155	0.397566
23598		9.518815	0.760074	2.021936	-0.002948	-0.003419	0.001517	-0.670654	-0.450928	-0.317383	0.667685	0.362973	-0.514206	0.397542
23599		9.580902	0.764529	2.004629	-0.008386	-0.007784	-0.000116	-0.670410	-0.446289	-0.321533	0.667673	0.362947	-0.514312	0.397448
23600		9.543889	0.732971	1.993756	-0.003533	0.000584	-0.002311	-0.661133	-0.449219	-0.322266	0.667702	0.362938	-0.514317	0.397402
23601		9.512138	0.744794	2.018270	-0.000191	0.001828	-0.002148	-0.672363	-0.451904	-0.322021	0.667719	0.362953	-0.514300	0.397382
23602		9.523923	0.752489	2.019186	0.005968	0.001993	-0.002977	-0.675537	-0.445557	-0.322998	0.667711	0.363024	-0.514249	0.397396
23603		9.516081	0.778296	2.044422	0.004379	-0.001026	0.000633	-0.670898	-0.448486	-0.327393	0.667673	0.363074	-0.514249	0.397415
23604		9.551840	0.746594	2.023706	0.007019	0.001205	-0.005124	-0.669678	-0.446289	-0.325928	0.667674	0.363173	-0.514180	0.397410
23605		9.582484	0.807002	1.991077	0.005225	0.014204	-0.004303	-0.676758	-0.449951	-0.318359	0.667763	0.363186	-0.514018	0.397461
23606		9.515109	0.811553	2.011400	-0.001756	0.009240	-0.004748	-0.666260	-0.445312	-0.329102	0.667842	0.363192	-0.513935	0.397428
23607		9.438704	0.747212	2.061920	0.001725	0.000054	-0.003160	-0.672363	-0.457520	-0.325928	0.667858	0.363254	-0.513906	0.397383
23608		9.457831	0.732196	2.023141	0.010202	-0.002986	-0.004627	-0.673828	-0.445801	-0.329102	0.667825	0.363429	-0.513838	0.397366
23609		9.521727	0.800687	2.050087	0.003456	-0.007358	-0.005345	-0.664551	-0.448242	-0.329834	0.667796	0.363541	-0.513852	0.397294
23610		9.565460	0.782704	2.043416	-0.000492	-0.006827	-0.005411	-0.666992	-0.441650	-0.324951	0.667808	0.363617	-0.513859	0.397195
23611		9.546854	0.761851	2.038827	-0.000614	-0.010585	-0.006193	-0.664795	-0.448486	-0.329590	0.667787	0.363708	-0.513914	0.397076
23612		9.486979	0.730468	2.020437	-0.001627	-0.008115	-0.005159	-0.673096	-0.447510	-0.319092	0.667800	0.363777	-0.513934	0.396965
23613		9.494082	0.716781	2.058195	0.002666	-0.005775	-0.001968	-0.670654	-0.439941	-0.326904	0.667752	0.363868	-0.513963	0.396925
23614		9.516136	0.723063	2.035624	0.008166	-0.004965	-0.004400	-0.663330	-0.442139	-0.326172	0.667714	0.363954	-0.513947	0.396930
23615		9.514202	0.769542	2.034205	0.007247	-0.005117	-0.007233	-0.670410	-0.455811	-0.319824	0.667708	0.364050	-0.513911	0.396901
23616		9.524289	0.769146	2.011167	-0.001077	-0.005591	-0.002500	-0.668213	-0.440918	-0.322998	0.667693	0.364129	-0.513926	0.396833
23617		9.533480	0.725869	2.030742	0.002656	-0.004490	-0.006088	-0.668701	-0.455078	-0.320068	0.667682	0.364179	-0.513934	0.396795
23618		9.522388	0.733153	2.024177	0.001376	-0.003555	-0.004977	-0.668945	-0.453125	-0.323486	0.667680	0.364282	-0.513910	0.396735
23619		9.483400	0.732197	2.030991	0.000308	-0.011170	-0.002047	-0.669678	-0.448486	-0.318604	0.667629	0.364365	-0.513970	0.396667
23620		9.523933	0.747501	2.014658	0.001619	-0.011164	-0.002963	-0.678955	-0.444580	-0.325928	0.667545	0.364460	-0.514051	0.396617
23621		9.543283	0.770614	2.014760	0.002352	-0.008442	-0.003588	-0.670166	-0.451172	-0.324463	0.667481	0.364479	-0.514131	0.396603
23622		9.525465	0.747026	2.023571	0.000979	-0.011066	-0.001752	-0.662842	-0.446777	-0.330566	0.667428	0.364542	-0.514195	0.396550
23623		9.528047	0.770958	2.024588	-0.000734	-0.009639	-0.001207	-0.664551	-0.455322	-0.319824	0.667451	0.364511	-0.514235	0.396488
23624		9.539146	0.767637	2.013690	-0.000442	-0.014084	-0.002923	-0.677734	-0.449463	-0.322754	0.667393	0.364651	-0.514296	0.396378
23625		9.480205	0.786247	2.030068	-0.005913	-0.014697	0.001019	-0.671875	-0.451172	-0.329346	0.667295	0.364644	-0.514480	0.396312
23626		9.544590	0.731868	2.029869	-0.005833	-0.009114	-0.005134	-0.670654	-0.455078	-0.322754	0.667343	0.364615	-0.514532	0.396189
23627		9.589788	0.792473	2.034700	-0.003162	-0.008707	-0.003962	-0.664307	-0.446289	-0.319824	0.667340	0.364679	-0.514568	0.396087
23628		9.494837	0.797022	1.954504	-0.015006	-0.006384	-0.005448	-0.676514	-0.454102	-0.329346	0.667402	0.364613	-0.514658	0.395929
23629		9.444643	0.688867	2.008631	-0.010500	-0.009821	-0.007185	-0.667725	-0.441406	-0.324219	0.667467	0.364573	-0.514737	0.395753
23630		9.492718	0.718276	2.007962	-0.002887	-0.012602	-0.008494	-0.671875	-0.443359	-0.326416	0.667452	0.364571	-0.514839	0.395647
23631		9.565442	0.759756	2.021076	-0.005384	-0.015772	-0.007711	-0.674316	-0.454102	-0.322021	0.667429	0.364538	-0.514990	0.395520
23632		9.536684	0.727631	2.041876	-0.006431	-0.014985	-0.005562	-0.670898	-0.443604	-0.317627	0.667382	0.364612	-0.515115	0.395369
23633		9.536540	0.730414	2.025374	-0.005594	-0.009995	-0.002789	-0.668945	-0.449463	-0.331055	0.667294	0.364610	-0.515261	0.395328
23634		9.528585	0.690474	2.031309	0.003644	-0.008619	-0.006018	-0.678223	-0.445312	-0.331299	0.667365	0.364589	-0.515245	0.395248
23635		9.500953	0.698832	2.024462	0.004512	-0.011086	-0.002270	-0.669434	-0.455322	-0.315918	0.667330	0.364498	-0.515346	0.395260
23636		9.530020	0.735511	1.984088	0.008753	-0.007658	-0.004715	-0.669189	-0.446045	-0.329346	0.667226	0.364744	-0.515316	0.395246
23637		9.551207	0.714834	1.985369	0.010464	-0.000688	-0.006045	-0.673096	-0.442627	-0.313477	0.667296	0.364706	-0.515232	0.395275
23638		9.520845	0.738933	2.018492	0.006370	0.003540	-0.007858	-0.674072	-0.462646	-0.327393	0.667180	0.364807	-0.515222	0.395390
23639		9.540890	0.750304	1.970291	0.002566	0.000362	-0.006154	-0.671387	-0.449951	-0.320312	0.667296	0.364872	-0.515099	0.395293
23640		9.528870	0.729810	1.988828	0.001313	0.002231	-0.004845	-0.674316	-0.451172	-0.326904	0.667304	0.364888	-0.515066	0.395308
23641		9.495065	0.748536	1.972289	-0.005881	-0.002592	-0.006300	-0.672363	-0.447998	-0.314209	0.667389	0.364785	-0.515095	0.395223
23642		9.515958	0.742368	1.956259	-0.009717	0.003166	-0.008191	-0.668457	-0.454346	-0.319580	0.667367	0.364802	-0.515137	0.395189
23643		9.511504	0.749927	1.972069	-0.011978	0.000588	-0.007680	-0.672852	-0.452148	-0.322510	0.667459	0.364807	-0.515122	0.395048
23644		9.542090	0.742340	1.934768	-0.008840	0.003668	-0.009675	-0.668945	-0.437256	-0.315430	0.667562	0.364755	-0.515102	0.394948
23645		9.538840	0.760708	1.959933	-0.008039	0.006976	-0.005790	-0.672607	-0.447754	-0.321289	0.667537	0.364618	-0.515184	0.395011
23646		9.498618	0.746779	1.974924	-0.006176	0.001851	-0.004582	-0.675781	-0.449951	-0.316406	0.667553	0.364541	-0.515231	0.394993
23647		9.483629	0.772435	1.980075	-0.006842	0.001749	-0.004874	-0.668213	-0.450684	-0.323242	0.667478	0.364569	-0.515304	0.394999
23648		9.565416	0.743816	1.972345	-0.009855	0.006877	-0.009945	-0.664795	-0.442383	-0.312012	0.667645	0.364490	-0.515233	0.394883
23649		9.639916	0.783377	1.947494	-0.002223	0.002073	-0.005835	-0.670410	-0.452148	-0.324219	0.667547	0.364574	-0.515265	0.394929
23650		9.511806	0.786215	1.900611	-0.010666	0.014614	-0.003419	-0.664307	-0.454102	-0.324707	0.667730	0.364409	-0.515171	0.394895
23651		9.439106	0.725710	2.002950	-0.006641	0.010547	-0.007427	-0.668945	-0.450684	-0.323242	0.667942	0.364371	-0.514999	0.394794
23652		9.472834	0.722839	2.016828	0.004103	0.009373	-0.008116	-0.673828	-0.445312	-0.328125	0.668024	0.364397	-0.514867	0.394804
23653		9.567576	0.780667	2.021668	-0.002505	-0.000396	-0.005954	-0.669922	-0.449463	-0.324219	0.668084	0.364212	-0.514948	0.394768
23654		9.553017	0.753321	2.003492	-0.001487	-0.004344	-0.004376	-0.667725	-0.446533	-0.323486	0.668085	0.364198	-0.514995	0.394718
23655		9.534883	0.744539	1.995489	0.003079	0.000464	-0.001075	-0.673584	-0.452393	-0.332031	0.668080	0.364153	-0.515005	0.394756
23656		9.516668	0.720661	2.006893	0.003109	0.002146	-0.002186	-0.666016	-0.454590	-0.319336	0.668199	0.364011	-0.514969	0.394732
23657		9.479922	0.740676	2.033374	0.002930	0.003428	-0.001522	-0.670166	-0.445801	-0.319092	0.668180	0.364161	-0.514870	0.394754
23658		9.525843	0.773800	2.008703	0.006421	0.003205	-0.003534	-0.670410	-0.450684	-0.327393	0.668085	0.364216	-0.514873	0.394860
23659		9.518060	0.747013	2.012222	0.000397	0.001350	-0.006364	-0.674561	-0.447021	-0.318359	0.668178	0.364151	-0.514840	0.394807
23660		9.546556	0.754165	2.012175	-0.002191	0.003012	-0.005639	-0.665527	-0.448486	-0.323730	0.668082	0.364170	-0.514908	0.394863
23661		9.514631	0.766443	2.037444	-0.004574	0.004331	-0.005384	-0.678467	-0.446533	-0.317871	0.668187	0.364096	-0.514865	0.394811
23662		9.490689	0.753343	2.036980	-0.002711	-0.000797	-0.004177	-0.673584	-0.444092	-0.321289	0.668015	0.364113	-0.515018	0.394886
23663		9.501850	0.763046	2.023711	-0.005330	-0.000817	-0.002342	-0.675293	-0.447754	-0.326660	0.667952	0.363997	-0.515162	0.394911
23664		9.543562	0.735391	1.995531	-0.005007	-0.006549	0.000055	-0.672363	-0.449219	-0.322510	0.667931	0.363841	-0.515325	0.394878
23665		9.538716	0.773504	1.958572	-0.001643	-0.003613	-0.000900	-0.672852	-0.448730	-0.317871	0.667874	0.363829	-0.515402	0.394885
23666		9.535200	0.777670	1.987149	-0.003278	0.001366	-0.001071	-0.671387	-0.444092	-0.324707	0.667768	0.363871	-0.515462	0.394947
23667		9.534463	0.764602	1.992773	-0.001436	0.003147	0.001975	-0.666260	-0.452637	-0.330322	0.667785	0.363679	-0.515537	0.394997
23668		9.543494	0.765059	1.957965	-0.002635	0.001274	-0.002282	-0.673828	-0.451172	-0.330811	0.667980	0.363554	-0.515460	0.394882
23669		9.487910	0.800660	2.021917	-0.002107	-0.004802	-0.000355	-0.671143	-0.452637	-0.325928	0.668053	0.363403	-0.515530	0.394807
23670		9.525757	0.726366	1.986083	-0.007507	-0.006942	-0.005899	-0.665527	-0.447754	-0.321045	0.668105	0.363389	-0.515585	0.394659
23671		9.588442	0.811750	1.981252	-0.006886	-0.000125	-0.005267	-0.669678	-0.452148	-0.321777	0.668142	0.363387	-0.515589	0.394593
23672		9.527651	0.832717	1.989008	-0.022482	0.010011	-0.006730	-0.673584	-0.447266	-0.322021	0.668310	0.363255	-0.515573	0.394451
23673		9.450856	0.718253	1.990542	-0.016132	-0.000222	-0.006161	-0.671143	-0.447998	-0.331055	0.668329	0.363143	-0.515700	0.394357
23674		9.435907	0.714316	2.033080	-0.003080	0.003814	-0.008269	-0.667725	-0.444092	-0.322266	0.668506	0.362969	-0.515671	0.394254
23675		9.534318	0.753093	2.027319	0.000164	0.000018	-0.004782	-0.678223	-0.443848	-0.329590	0.668485	0.362957	-0.515696	0.394269
23676		9.543343	0.777828	2.050857	-0.002611	-0.006376	-0.002821	-0.671143	-0.446045	-0.320312	0.668461	0.362760	-0.515883	0.394246
23677		9.543884	0.740009	2.008490	0.001615	-0.005171	-0.001337	-0.669922	-0.445312	-0.327148	0.668324	0.362832	-0.515967	0.394301
23678		9.533341	0.743942	2.016495	0.002974	0.004561	0.000182	-0.673828	-0.447754	-0.321045	0.668376	0.362699	-0.515958	0.394348
23679		9.495251	0.737649	2.053535	0.007406	0.005424	0.001196	-0.671387	-0.451172	-0.323730	0.668267	0.362755	-0.515940	0.394506
23680		9.470162	0.764678	2.081273	0.005626	0.007013	-0.004071	-0.667725	-0.444092	-0.324463	0.668285	0.362817	-0.515834	0.394555
23681		9.528991	0.779858	2.010206	-0.002478	-0.008788	-0.005185	-0.676758	-0.447754	-0.330322	0.668271	0.362783	-0.515933	0.394482
23682		9.549021	0.762771	1.983787	-0.012749	-0.005686	-0.006346	-0.667725	-0.447021	-0.327148	0.668364	0.362567	-0.516087	0.394320
23683		9.560975	0.771092	1.983370	-0.011638	-0.003839	-0.009408	-0.675049	-0.453857	-0.329590	0.668499	0.362453	-0.516136	0.394133
23684		9.544824	0.771996	1.997459	-0.011633	-0.003091	-0.010714	-0.668457	-0.445557	-0.324463	0.668641	0.362374	-0.516172	0.393916
23685		9.481745	0.757439	2.004970	-0.015297	-0.000847	-0.009340	-0.670898	-0.446045	-0.326172	0.668742	0.362258	-0.516238	0.393765
23686		9.505540	0.757293	2.024493	-0.018355	-0.002615	-0.004149	-0.677246	-0.457275	-0.330078	0.668827	0.362062	-0.516372	0.393625
23687		9.541035	0.727381	1.989033	-0.011850	-0.007223	-0.002408	-0.667725	-0.453857	-0.323730	0.668896	0.361989	-0.516472	0.393444
23688		9.523862	0.715904	1.993769	-0.002785	-0.005093	-0.002157	-0.679443	-0.450684	-0.327148	0.668897	0.362083	-0.516469	0.393360
23689		9.514129	0.732927	1.995689	0.003592	-0.005054	-0.001968	-0.673340	-0.451904	-0.326904	0.668815	0.362095	-0.516556	0.393375
23690		9.524764	0.744875	1.967719	0.012217	-0.003924	0.000329	-0.668945	-0.448975	-0.330322	0.668744	0.362188	-0.516539	0.393431
23691		9.511366	0.780530	1.979969	0.016027	-0.002780	0.004056	-0.662109	-0.442871	-0.329102	0.668726	0.362193	-0.516490	0.393522
23692		9.517158	0.769886	1.991649	0.009752	0.001677	0.003350	-0.664551	-0.447754	-0.328857	0.668781	0.362092	-0.516425	0.393606
23693		9.570969	0.785678	2.019492	0.008608	0.001687	-0.000513	-0.672363	-0.450439	-0.321533	0.668857	0.362064	-0.516332	0.393625
23694		9.554810	0.828205	1.993586	-0.005016	0.012674	-0.003894	-0.668213	-0.449707	-0.322021	0.668911	0.362041	-0.516257	0.393653
23695		9.488298	0.763158	2.009541	-0.007038	0.001350	-0.003095	-0.677979	-0.447266	-0.324463	0.668932	0.362048	-0.516261	0.393607
23696		9.449056	0.731191	2.056456	-0.007144	0.005443	-0.001837	-0.674561	-0.450439	-0.327637	0.668923	0.361933	-0.516331	0.393637
23697		9.549232	0.741635	2.017703	-0.001089	-0.006703	-0.004210	-0.670898	-0.447266	-0.328125	0.668909	0.361932	-0.516402	0.393567
23698		9.547475	0.784637	2.031332	-0.004508	0.004913	-0.000864	-0.670654	-0.444092	-0.329102	0.668993	0.361788	-0.516400	0.393560
23699		9.525688	0.764215	2.072118	-0.007908	0.001592	-0.002918	-0.661621	-0.444092	-0.326660	0.669081	0.361599	-0.516451	0.393516
23700		9.532611	0.756829	2.015148	-0.006802	0.002694	-0.004672	-0.673340	-0.445801	-0.326416	0.669212	0.361492	-0.516412	0.393443
23701		9.473364	0.758037	2.068655	-0.009088	0.007014	-0.002318	-0.680908	-0.447754	-0.332764	0.669277	0.361334	-0.516440	0.393442
23702		9.490909	0.797904	2.040563	-0.009823	0.004849	-0.004509	-0.672363	-0.449463	-0.327637	0.669385	0.361094	-0.516512	0.393383
23703		9.537288	0.763065	2.012220	-0.015929	-0.000751	-0.008130	-0.673096	-0.449951	-0.322998	0.669496	0.360985	-0.516575	0.393211
23704		9.573933	0.745258	1.985773	-0.017171	-0.005981	-0.010173	-0.666992	-0.442627	-0.329346	0.669514	0.360991	-0.516689	0.393024
23705		9.511431	0.743293	1.988504	-0.013850	0.003866	-0.009267	-0.665527	-0.450439	-0.324463	0.669684	0.360800	-0.516701	0.392896
23706		9.509574	0.741859	2.059736	-0.011096	0.007273	-0.005998	-0.666748	-0.443115	-0.329834	0.669814	0.360766	-0.516631	0.392798
23707		9.494837	0.713929	2.043118	-0.010331	0.001038	-0.003053	-0.661865	-0.449707	-0.326416	0.669920	0.360584	-0.516674	0.392728
23708		9.525645	0.720955	1.986456	-0.010468	-0.003086	-0.006853	-0.673096	-0.451660	-0.321533	0.670029	0.360584	-0.516660	0.392560
23709		9.516553	0.736151	2.002071	-0.010570	-0.008332	-0.005038	-0.670654	-0.449951	-0.322266	0.669947	0.360679	-0.516780	0.392453
23710		9.519712	0.720055	1.977152	-0.004030	-0.001732	-0.003457	-0.665527	-0.445068	-0.327881	0.669896	0.360757	-0.516811	0.392429
23711		9.518748	0.745629	2.023080	0.001535	-0.000139	0.000115	-0.681641	-0.444336	-0.325684	0.669910	0.360717	-0.516803	0.392452
23712		9.499863	0.738633	2.001946	-0.001552	0.000701	-0.002923	-0.668945	-0.447021	-0.330078	0.669814	0.360659	-0.516921	0.392513
23713		9.515631	0.778697	2.027849	-0.003275	-0.005907	-0.005933	-0.663574	-0.446533	-0.337158	0.669859	0.360625	-0.516964	0.392412
23714		9.522952	0.771619	1.968997	-0.005618	-0.004966	-0.001360	-0.671875	-0.451660	-0.322021	0.670032	0.360428	-0.516983	0.392273
23715		9.568257	0.733668	2.009072	-0.003087	0.000840	-0.003038	-0.670654	-0.443359	-0.326660	0.669987	0.360519	-0.516987	0.392261
23716		9.590544	0.780875	1.961002	-0.008339	0.012180	-0.005329	-0.665283	-0.452393	-0.324463	0.670092	0.360368	-0.516949	0.392268
23717		9.505264	0.759856	1.992565	-0.006894	0.009045	-0.007314	-0.671875	-0.447754	-0.330811	0.670213	0.360402	-0.516826	0.392193
23718		9.424141	0.755871	2.067737	-0.012489	0.004267	-0.007172	-0.664795	-0.451172	-0.327881	0.670350	0.360251	-0.516843	0.392076
23719		9.492702	0.712076	2.035327	-0.006229	-0.010466	-0.006129	-0.665039	-0.446289	-0.329346	0.670373	0.360318	-0.516887	0.391917
23720		9.551714	0.750348	2.021706	-0.004910	-0.012515	-0.001631	-0.674316	-0.444580	-0.329346	0.670356	0.360302	-0.516995	0.391818
23721		9.569139	0.749782	2.017651	0.003410	-0.012542	-0.003572	-0.670654	-0.452148	-0.330078	0.670247	0.360331	-0.517133	0.391796
23722		9.542249	0.755828	2.023983	0.006944	-0.010875	-0.005189	-0.671143	-0.448242	-0.316895	0.670204	0.360460	-0.517152	0.391725
23723		9.502403	0.729471	2.039581	0.007313	-0.013428	-0.006527	-0.668945	-0.451416	-0.325928	0.669966	0.360766	-0.517239	0.391736
23724		9.509053	0.748716	2.024917	0.013978	-0.011478	-0.003406	-0.669434	-0.446045	-0.325195	0.669841	0.360992	-0.517235	0.391748
23725		9.533195	0.764798	2.023038	0.016391	-0.010352	-0.006078	-0.662109	-0.450684	-0.323242	0.669702	0.361197	-0.517240	0.391790
23726		9.550142	0.781069	2.001049	0.012065	-0.006718	-0.007598	-0.672363	-0.449219	-0.322510	0.669649	0.361447	-0.517144	0.391776
23727		9.529949	0.788401	2.029284	0.003061	-0.006233	-0.008750	-0.673096	-0.448242	-0.328369	0.669575	0.361586	-0.517175	0.391733
23728		9.516422	0.774692	2.004182	0.000082	-0.013230	-0.006525	-0.666992	-0.442871	-0.324463	0.669526	0.361621	-0.517290	0.391633
23729		9.520204	0.744256	1.995521	-0.001704	-0.015373	-0.005260	-0.671875	-0.444824	-0.329102	0.669443	0.361656	-0.517436	0.391549
23730		9.533557	0.749985	2.005687	-0.005690	-0.018230	-0.003095	-0.670166	-0.438965	-0.318359	0.669385	0.361598	-0.517648	0.391422
23731		9.530218	0.733350	1.957318	-0.001200	-0.014554	-0.001493	-0.662842	-0.451660	-0.326416	0.669188	0.361647	-0.517858	0.391435
23732		9.506280	0.744346	1.999567	-0.001297	-0.010281	0.001274	-0.670166	-0.447754	-0.327393	0.669183	0.361688	-0.517886	0.391369
23733		9.492274	0.753283	2.019614	-0.001426	-0.018145	0.003998	-0.673584	-0.452881	-0.322998	0.669077	0.361673	-0.518073	0.391316
23734		9.540147	0.745191	1.962187	0.000918	-0.019827	0.000727	-0.665283	-0.451416	-0.317383	0.668909	0.361813	-0.518240	0.391254
23735		9.533227	0.770337	1.982790	0.003512	-0.020727	-0.001313	-0.669434	-0.445801	-0.313965	0.668712	0.362073	-0.518349	0.391205
23736		9.509404	0.796496	2.005036	-0.000525	-0.015942	0.001411	-0.665039	-0.450684	-0.321777	0.668484	0.362226	-0.518526	0.391218
23737		9.563015	0.748457	1.999048	0.005664	-0.001925	-0.000515	-0.674072	-0.448486	-0.328857	0.668458	0.362330	-0.518461	0.391254
23738		9.594723	0.804004	1.991187	0.006952	-0.004342	0.000974	-0.667725	-0.436768	-0.327881	0.668437	0.362298	-0.518488	0.391283
23739		9.474773	0.818673	1.956993	-0.003265	-0.008147	-0.002004	-0.665527	-0.448975	-0.314941	0.668460	0.362118	-0.518629	0.391224
23740		9.440866	0.765692	2.005073	-0.005862	-0.004248	-0.005181	-0.665527	-0.447266	-0.329102	0.668409	0.362242	-0.518642	0.391178
23741		9.504317	0.753260	2.033699	-0.008458	-0.001098	-0.007053	-0.661865	-0.451904	-0.311768	0.668568	0.362122	-0.518629	0.391035
23742		9.587605	0.766013	1.994256	-0.006671	-0.011646	-0.005554	-0.671631	-0.458008	-0.324463	0.668458	0.362363	-0.518664	0.390954
23743		9.544439	0.719278	1.979676	-0.001537	-0.010306	-0.001259	-0.669678	-0.451172	-0.318604	0.668421	0.362475	-0.518687	0.390882
23744		9.542389	0.764391	1.976868	-0.002119	-0.016358	-0.003209	-0.674072	-0.445801	-0.319336	0.668296	0.362624	-0.518805	0.390801
23745		9.528035	0.723828	1.960769	0.004127	-0.011478	-0.003083	-0.674805	-0.449707	-0.318604	0.668162	0.362712	-0.518924	0.390791
23746		9.536103	0.738163	1.973965	0.012094	-0.008009	-0.003517	-0.675781	-0.447510	-0.313477	0.668011	0.362901	-0.518947	0.390843
23747		9.535898	0.754461	1.954349	0.010973	0.001139	-0.002116	-0.678223	-0.444580	-0.320801	0.667861	0.363056	-0.518939	0.390966
23748		9.515309	0.747806	1.988400	0.004830	-0.008006	-0.005003	-0.672363	-0.443115	-0.319336	0.667766	0.363083	-0.519053	0.390951
23749		9.542264	0.774879	1.939849	0.004369	-0.007698	-0.007068	-0.666016	-0.446289	-0.322754	0.667697	0.363138	-0.519127	0.390920
23750		9.536840	0.743821	1.968274	0.002237	-0.006356	-0.004264	-0.673096	-0.445557	-0.322021	0.667702	0.363163	-0.519135	0.390878
23751		9.521662	0.756290	1.976254	-0.004374	-0.009436	-0.001742	-0.679443	-0.447266	-0.317383	0.667665	0.363109	-0.519270	0.390812
23752		9.516879	0.713843	1.939065	-0.003582	-0.013412	-0.002714	-0.673340	-0.454590	-0.314209	0.667525	0.363148	-0.519464	0.390758
23753		9.503204	0.736927	1.954864	-0.007055	-0.010028	-0.004402	-0.665527	-0.445068	-0.318359	0.667428	0.363296	-0.519537	0.390689
23754		9.570783	0.776054	1.905283	-0.005760	-0.012441	-0.002914	-0.680420	-0.449219	-0.325195	0.667384	0.363312	-0.519649	0.390599
23755		9.588927	0.772856	1.915313	-0.005861	-0.008176	-0.000149	-0.667480	-0.453369	-0.319336	0.667367	0.363204	-0.519800	0.390529
23756		9.540133	0.786615	1.925871	-0.013127	-0.008175	-0.001630	-0.670166	-0.443848	-0.320801	0.667382	0.363210	-0.519860	0.390418
23757		9.506760	0.760857	1.949916	-0.010989	-0.010262	-0.003131	-0.668945	-0.447021	-0.324951	0.667386	0.363115	-0.520015	0.390292
23758		9.458483	0.787878	1.955260	-0.014703	-0.009156	-0.003437	-0.676270	-0.446777	-0.319336	0.667465	0.362978	-0.520136	0.390122
23759		9.625603	0.766633	1.933427	-0.013689	0.000332	-0.005944	-0.672852	-0.451660	-0.327881	0.667522	0.362866	-0.520219	0.390018
23760		9.643486	0.819643	1.898535	-0.015929	-0.004684	-0.003023	-0.679688	-0.451660	-0.319092	0.667646	0.362705	-0.520297	0.389853
23761		9.463031	0.772813	1.874025	-0.022935	-0.000715	-0.006982	-0.666260	-0.450439	-0.320068	0.667725	0.362579	-0.520415	0.389676
23762		9.458449	0.695668	1.960427	-0.016951	0.003385	-0.008094	-0.671387	-0.442627	-0.317871	0.667872	0.362511	-0.520382	0.389534
23763		9.510451	0.717285	1.961383	-0.006644	0.002926	-0.007906	-0.674316	-0.448486	-0.324707	0.667918	0.362456	-0.520400	0.389479
23764		9.595015	0.753887	1.927029	0.001259	-0.001098	-0.002627	-0.663574	-0.453369	-0.324951	0.667936	0.362429	-0.520404	0.389469
23765		9.535252	0.743672	1.971152	0.005971	0.001662	0.001297	-0.672607	-0.455566	-0.321289	0.667977	0.362484	-0.520274	0.389521
23766		9.532106	0.737760	1.935630	0.005941	0.002230	-0.001509	-0.674072	-0.444336	-0.320068	0.667965	0.362590	-0.520177	0.389574
23767		9.570099	0.743410	1.914060	0.005569	0.007963	-0.003881	-0.675781	-0.448975	-0.317627	0.667980	0.362570	-0.520116	0.389647
23768		9.541102	0.766856	1.892879	0.007249	0.005437	-0.006146	-0.678223	-0.447998	-0.322021	0.667954	0.362662	-0.520040	0.389709
23769		9.536280	0.746340	1.933974	0.006364	0.015357	-0.003503	-0.670410	-0.450684	-0.321777	0.668016	0.362612	-0.519914	0.389816
23770		9.542663	0.747611	1.958141	0.004398	0.015238	-0.002868	-0.671143	-0.450195	-0.314941	0.668108	0.362600	-0.519733	0.389911
23771		9.510212	0.736266	1.926588	0.001744	0.014833	-0.004025	-0.678955	-0.448486	-0.320068	0.668146	0.362641	-0.519584	0.390006
23772		9.512491	0.743639	1.965521	0.002333	0.011198	-0.004531	-0.669189	-0.451416	-0.333008	0.668179	0.362609	-0.519517	0.390068
23773		9.518349	0.774979	1.951422	-0.002076	0.008829	-0.002918	-0.671143	-0.440430	-0.325684	0.668359	0.362473	-0.519391	0.390054
23774		9.528268	0.743568	1.969065	-0.003088	0.010708	0.000939	-0.673340	-0.441406	-0.320068	0.668457	0.362254	-0.519377	0.390108
23775		9.557661	0.737194	1.919633	-0.000267	0.009658	-0.000074	-0.667236	-0.447021	-0.326660	0.668477	0.362139	-0.519367	0.390194
23776		9.557528	0.750253	1.917621	0.003996	0.015172	-0.000617	-0.672363	-0.447754	-0.326416	0.668603	0.362040	-0.519203	0.390287
23777		9.528249	0.767716	1.981161	0.003007	0.010553	-0.002934	-0.673584	-0.442139	-0.322510	0.668690	0.361970	-0.519101	0.390341
23778		9.544582	0.795569	1.959136	-0.004462	0.011643	-0.005256	-0.662598	-0.451416	-0.320557	0.668781	0.361834	-0.519063	0.390360
23779		9.513584	0.766659	1.958723	-0.003812	0.009308	-0.002557	-0.678223	-0.444092	-0.322754	0.668868	0.361841	-0.518930	0.390382
23780		9.474437	0.777039	1.964835	-0.009965	0.007411	-0.000588	-0.674072	-0.452148	-0.331055	0.668917	0.361656	-0.518993	0.390386
23781		9.599040	0.755081	1.999193	-0.008492	0.019609	-0.006235	-0.667969	-0.443115	-0.326904	0.669162	0.361463	-0.518835	0.390355
23782		9.591969	0.809511	1.949902	-0.009377	0.018162	-0.004950	-0.670654	-0.450439	-0.324707	0.669366	0.361245	-0.518726	0.390352
23783		9.481149	0.792821	1.936729	-0.012500	0.015630	-0.005769	-0.675781	-0.451416	-0.332275	0.669544	0.361106	-0.518623	0.390313
23784		9.428446	0.714983	2.001139	-0.009162	0.017829	-0.005418	-0.669678	-0.444580	-0.322510	0.669765	0.360901	-0.518505	0.390279
23785		9.512393	0.723945	1.993480	-0.000398	0.006884	-0.007981	-0.671875	-0.451172	-0.328613	0.669810	0.360904	-0.518439	0.390287
23786		9.588688	0.786072	1.986777	-0.003426	0.008274	-0.006500	-0.665771	-0.452393	-0.325195	0.669923	0.360852	-0.518354	0.390254
23787		9.548758	0.756451	2.021440	0.000403	0.011276	-0.002381	-0.666016	-0.443604	-0.322021	0.670009	0.360853	-0.518205	0.390303
23788		9.535546	0.752007	2.010136	0.005935	0.012688	-0.000322	-0.674805	-0.445312	-0.326172	0.670028	0.360839	-0.518084	0.390445
23789		9.488434	0.721940	2.024662	0.008324	0.012888	-0.003195	-0.667236	-0.444336	-0.318359	0.670058	0.360811	-0.517973	0.390565
23790		9.487742	0.773963	2.063498	0.004080	0.009057	-0.003769	-0.677246	-0.446777	-0.323975	0.670039	0.360866	-0.517881	0.390670
23791		9.539159	0.759495	2.011552	-0.000008	0.012711	-0.002745	-0.667969	-0.444580	-0.325684	0.670075	0.360795	-0.517823	0.390750
23792		9.559836	0.738204	2.016937	0.000223	0.014062	-0.004318	-0.678223	-0.449707	-0.322021	0.670172	0.360720	-0.517704	0.390812
23793		9.522242	0.757921	2.046690	-0.004130	0.016002	-0.004727	-0.672607	-0.450439	-0.327637	0.670235	0.360660	-0.517617	0.390874
23794		9.487863	0.745877	2.071534	-0.002117	0.018000	-0.004954	-0.667969	-0.440674	-0.331055	0.670369	0.360575	-0.517463	0.390926
23795		9.502733	0.735018	2.064910	-0.007127	0.007875	-0.004218	-0.673340	-0.449463	-0.318604	0.670498	0.360384	-0.517457	0.390889
23796		9.514676	0.755289	2.061943	-0.008726	0.002940	-0.001022	-0.662598	-0.453125	-0.326172	0.670455	0.360381	-0.517492	0.390919
23797		9.534183	0.752456	2.019236	-0.009825	0.002580	-0.000574	-0.666016	-0.447998	-0.328369	0.670515	0.360356	-0.517447	0.390899
23798		9.530898	0.769087	2.044076	-0.006751	0.003820	-0.002952	-0.667480	-0.446289	-0.319580	0.670587	0.360287	-0.517420	0.390874
23799		9.506221	0.757391	2.030856	-0.002506	0.007655	-0.002371	-0.668945	-0.447266	-0.319824	0.670580	0.360301	-0.517366	0.390945
23800		9.489763	0.756639	2.047021	-0.002131	0.004351	-0.002410	-0.664551	-0.443115	-0.323242	0.670547	0.360337	-0.517340	0.391004
23801		9.505578	0.758433	2.033478	0.001393	0.005277	-0.002722	-0.670410	-0.449707	-0.324219	0.670551	0.360337	-0.517290	0.391063
23802		9.497878	0.781500	2.073735	0.000290	0.004161	-0.000971	-0.666748	-0.444580	-0.327637	0.670530	0.360363	-0.517248	0.391131
23803		9.566601	0.722786	2.061630	0.005603	0.007996	-0.003844	-0.668457	-0.442383	-0.327148	0.670569	0.360356	-0.517150	0.391198
23804		9.562382	0.798776	2.028398	0.005201	0.020823	-0.002833	-0.668701	-0.447510	-0.325439	0.670681	0.360253	-0.516980	0.391327
23805		9.496223	0.761494	2.022618	0.006162	0.013876	-0.003380	-0.670410	-0.449951	-0.328857	0.670721	0.360270	-0.516824	0.391450
23806		9.414353	0.743642	2.103987	0.009455	0.013452	-0.002117	-0.667236	-0.452148	-0.331543	0.670758	0.360294	-0.516652	0.391590
23807		9.485379	0.734806	2.087335	0.015348	0.012136	-0.002888	-0.668945	-0.455566	-0.325439	0.670792	0.360385	-0.516424	0.391748
23808		9.542288	0.776577	2.065142	0.009137	0.008928	-0.004150	-0.673828	-0.448975	-0.333008	0.670778	0.360536	-0.516235	0.391883
23809		9.531009	0.753563	2.098197	0.010155	0.004788	-0.004094	-0.662842	-0.447266	-0.320068	0.670791	0.360556	-0.516155	0.391947
23810		9.514455	0.768827	2.094632	0.005221	-0.000846	-0.003868	-0.671143	-0.451904	-0.335938	0.670711	0.360701	-0.516099	0.392024
23811		9.469038	0.749441	2.115137	0.003820	0.005092	-0.001282	-0.671143	-0.453613	-0.328369	0.670767	0.360660	-0.516020	0.392070
23812		9.469257	0.762777	2.111190	0.002699	0.003793	-0.001035	-0.670898	-0.444824	-0.318604	0.670755	0.360700	-0.515950	0.392146
23813		9.503372	0.759188	2.123805	-0.001020	0.005467	-0.004166	-0.664062	-0.450195	-0.325439	0.670722	0.360717	-0.515944	0.392195
23814		9.500481	0.754093	2.088829	-0.007039	0.001732	-0.007402	-0.663574	-0.445068	-0.323730	0.670769	0.360743	-0.515892	0.392159
23815		9.521915	0.761357	2.068305	-0.007018	0.002670	-0.007202	-0.665771	-0.445801	-0.328125	0.670816	0.360725	-0.515875	0.392118
23816		9.510634	0.752857	2.081958	-0.008339	0.001137	-0.003680	-0.668457	-0.444336	-0.330078	0.670870	0.360640	-0.515900	0.392070
23817		9.514104	0.721497	2.076263	-0.004941	-0.005065	-0.002581	-0.664062	-0.453857	-0.327148	0.670876	0.360566	-0.515992	0.392008
23818		9.486779	0.726595	2.084600	-0.000728	-0.002340	-0.003699	-0.659668	-0.450928	-0.330566	0.670852	0.360670	-0.515929	0.392036
23819		9.484792	0.754317	2.116916	0.000662	0.000103	0.000293	-0.668701	-0.450928	-0.332031	0.670859	0.360700	-0.515852	0.392096
23820		9.505395	0.749428	2.086664	-0.001597	-0.003432	0.000587	-0.666504	-0.451416	-0.322510	0.670845	0.360681	-0.515873	0.392111
23821		9.498630	0.748908	2.065193	-0.000273	-0.003227	0.001173	-0.667480	-0.453369	-0.325195	0.670754	0.360765	-0.515875	0.392188
23822		9.522489	0.763391	2.064907	-0.002159	-0.008739	-0.002679	-0.672363	-0.457275	-0.329590	0.670669	0.360880	-0.515901	0.392193
23823		9.511499	0.769743	2.057674	0.000081	-0.006141	-0.003173	-0.666504	-0.450195	-0.336670	0.670607	0.360993	-0.515885	0.392215
23824		9.491033	0.790111	2.067541	-0.001005	-0.006321	-0.001223	-0.662598	-0.450195	-0.323486	0.670617	0.360972	-0.515901	0.392197
23825		9.526597	0.768678	2.110373	-0.002215	-0.000906	-0.000608	-0.666992	-0.445068	-0.327881	0.670580	0.361026	-0.515871	0.392250
23826		9.567637	0.787324	2.027751	-0.010459	0.004916	-0.003283	-0.669434	-0.446777	-0.324707	0.670669	0.360888	-0.515888	0.392202
23827		9.483254	0.793347	2.033190	-0.007832	-0.004923	-0.009092	-0.670654	-0.451660	-0.319580	0.670678	0.360895	-0.515953	0.392095
23828		9.396230	0.757953	2.122001	-0.007561	-0.003780	-0.004854	-0.665527	-0.447266	-0.332031	0.670622	0.360962	-0.515994	0.392074
23829		9.463436	0.741660	2.121367	-0.005883	-0.008572	-0.003204	-0.671387	-0.448486	-0.331787	0.670626	0.360931	-0.516068	0.391999
23830		9.535441	0.747589	2.080781	-0.004684	-0.014166	-0.005324	-0.671631	-0.448730	-0.321045	0.670584	0.360944	-0.516200	0.391885
23831		9.549837	0.764353	2.099973	-0.003866	-0.017209	-0.006102	-0.670654	-0.445557	-0.325195	0.670450	0.361065	-0.516358	0.391794
23832		9.500453	0.781510	2.094507	-0.002727	-0.014972	-0.006149	-0.674072	-0.445068	-0.337158	0.670368	0.361118	-0.516509	0.391687
23833		9.491303	0.719710	2.080894	-0.000544	-0.018024	-0.000533	-0.665771	-0.440918	-0.328125	0.670306	0.361059	-0.516715	0.391576
23834		9.513994	0.710909	2.074561	0.004155	-0.012230	-0.001793	-0.668457	-0.447754	-0.329834	0.670230	0.361075	-0.516831	0.391539
23835		9.512172	0.754128	2.086357	0.001167	-0.006708	-0.003824	-0.672119	-0.458008	-0.324463	0.670204	0.361103	-0.516862	0.391515
23836		9.517610	0.747550	2.082502	0.001695	-0.011825	-0.009041	-0.667969	-0.453125	-0.328613	0.670103	0.361333	-0.516848	0.391496
23837		9.489844	0.756221	2.075486	0.000858	-0.010472	-0.007159	-0.669189	-0.451904	-0.322021	0.670052	0.361466	-0.516848	0.391460
23838		9.480066	0.745780	2.099593	-0.005716	-0.011712	-0.004266	-0.668701	-0.451172	-0.322510	0.669967	0.361558	-0.516927	0.391415
23839		9.528113	0.724356	2.062122	-0.008853	-0.015944	-0.003990	-0.666260	-0.452637	-0.331299	0.669875	0.361633	-0.517060	0.391329
23840		9.505740	0.751366	2.029431	-0.010784	-0.013442	-0.004263	-0.667725	-0.449219	-0.327881	0.669865	0.361645	-0.517142	0.391225
23841		9.506324	0.751763	2.026544	-0.006584	-0.012228	-0.002784	-0.670654	-0.446045	-0.319092	0.669823	0.361656	-0.517243	0.391154
23842		9.527902	0.716652	2.031383	-0.003608	-0.007119	0.001918	-0.667725	-0.446777	-0.323730	0.669730	0.361648	-0.517362	0.391165
23843		9.506088	0.712858	2.036604	0.002391	-0.013620	-0.001843	-0.667480	-0.447998	-0.324463	0.669616	0.361736	-0.517457	0.391152
23844		9.519372	0.746825	2.023734	0.005184	-0.015775	-0.004555	-0.671143	-0.453613	-0.327881	0.669492	0.361885	-0.517530	0.391131
23845		9.513507	0.796488	2.049414	0.000150	-0.014880	-0.005450	-0.677002	-0.451660	-0.328857	0.669403	0.362016	-0.517585	0.391089
23846		9.512201	0.788871	2.023544	-0.002672	-0.015348	-0.001835	-0.667236	-0.445557	-0.324463	0.669313	0.362047	-0.517727	0.391027
23847		9.493527	0.740825	2.027809	-0.008303	-0.010062	-0.003519	-0.673340	-0.451660	-0.321777	0.669294	0.362016	-0.517840	0.390936
23848		9.589196	0.782001	2.062071	-0.007398	-0.006158	-0.007204	-0.671631	-0.444580	-0.319580	0.669274	0.362059	-0.517885	0.390870
23849		9.521736	0.842923	2.019748	-0.022388	0.002309	-0.007173	-0.667725	-0.448975	-0.327148	0.669387	0.361876	-0.517987	0.390712
23850		9.428389	0.755334	2.052826	-0.026676	-0.006019	-0.007246	-0.672852	-0.449707	-0.327393	0.669501	0.361718	-0.518108	0.390504
23851		9.478910	0.688998	2.017127	-0.023314	-0.002701	-0.005189	-0.666504	-0.443115	-0.323242	0.669602	0.361547	-0.518218	0.390343
23852		9.542056	0.719275	2.004071	-0.016728	-0.002790	-0.003988	-0.670898	-0.444580	-0.319824	0.669666	0.361406	-0.518323	0.390223
23853		9.535164	0.676079	2.026306	-0.008648	0.009874	-0.003892	-0.667480	-0.446045	-0.330811	0.669744	0.361296	-0.518297	0.390228
23854		9.561163	0.830978	2.208431	-0.018805	0.016271	0.000115	-0.671631	-0.438721	-0.320068	0.669955	0.361000	-0.518245	0.390207
23855		9.709037	0.878223	2.021042	-0.050572	-0.002014	0.003769	-0.667480	-0.446289	-0.326660	0.670117	0.360487	-0.518608	0.389920
23856		9.479684	0.530386	1.926369	-0.036728	-0.009850	-0.002936	-0.666260	-0.448730	-0.328613	0.670219	0.360236	-0.518841	0.389667
23857		9.376589	0.606433	1.922919	-0.004722	-0.005552	-0.004552	-0.668945	-0.447021	-0.330078	0.670218	0.360265	-0.518844	0.389638
23858		9.597048	0.718012	2.000088	0.019059	0.018159	-0.003980	-0.676025	-0.444824	-0.331055	0.670271	0.360334	-0.518566	0.389854
23859		9.575126	0.847128	2.004781	0.020870	0.009708	-0.007937	-0.670410	-0.450439	-0.325684	0.670283	0.360426	-0.518393	0.389977
23860		9.469829	0.887343	2.019320	0.008382	0.010006	-0.010051	-0.668945	-0.443604	-0.331055	0.670322	0.360542	-0.518194	0.390068
23861		9.414714	0.792169	2.049859	-0.002220	0.006515	-0.015109	-0.676514	-0.449219	-0.325928	0.670466	0.360511	-0.518103	0.389970
23862		9.500426	0.735051	2.035958	-0.007475	0.003777	-0.010530	-0.674805	-0.453857	-0.333252	0.670534	0.360487	-0.518080	0.389905
23863		9.530180	0.718102	1.988393	-0.007196	-0.009863	-0.005495	-0.671387	-0.451172	-0.329102	0.670526	0.360500	-0.518147	0.389818
23864		9.521577	0.710682	1.942806	0.005264	-0.012020	-0.003784	-0.659912	-0.444580	-0.327637	0.670424	0.360631	-0.518181	0.389827
23865		9.505511	0.789190	1.968474	0.008404	-0.007613	-0.002551	-0.666992	-0.447266	-0.326172	0.670353	0.360743	-0.518157	0.389878
23866		9.546793	0.829582	1.957349	0.002341	-0.002585	-0.003481	-0.662354	-0.449951	-0.329834	0.670324	0.360794	-0.518135	0.389909
23867		9.583289	0.799250	1.935206	0.003662	-0.002382	-0.002900	-0.671631	-0.448730	-0.322998	0.670310	0.360870	-0.518061	0.389962
23868		9.570915	0.767189	1.943417	0.006905	-0.004850	-0.003556	-0.672852	-0.447266	-0.329590	0.670218	0.360988	-0.518053	0.390021
23869		9.467363	0.787991	1.988288	0.005345	0.008349	-0.003368	-0.674316	-0.451172	-0.325439	0.670262	0.360962	-0.517961	0.390093
23870		9.584497	0.754520	2.007343	0.000754	0.024443	-0.004296	-0.675781	-0.446045	-0.329102	0.670398	0.360886	-0.517730	0.390235
23871		9.576470	0.831526	2.019375	0.005608	0.024240	0.000073	-0.675781	-0.452148	-0.331787	0.670520	0.360744	-0.517547	0.390399
23872		9.431467	0.802245	2.014493	-0.008201	0.023563	-0.001329	-0.668457	-0.458984	-0.322021	0.670707	0.360543	-0.517383	0.390482
23873		9.430738	0.724329	2.006628	-0.011584	0.021248	-0.010500	-0.672119	-0.442383	-0.333008	0.670870	0.360545	-0.517121	0.390547
23874		9.542059	0.756524	1.983526	-0.008385	0.030750	-0.012555	-0.671143	-0.449707	-0.327881	0.671187	0.360294	-0.516906	0.390519
23875		9.547857	0.771024	2.006476	-0.009235	0.027537	-0.002869	-0.667480	-0.451660	-0.330811	0.671388	0.360100	-0.516705	0.390616
23876		9.509832	0.682466	2.050443	-0.001835	0.037669	-0.000632	-0.668701	-0.439209	-0.334473	0.671624	0.359922	-0.516358	0.390835
23877		9.548761	0.734888	2.047848	0.005357	0.061995	0.001089	-0.665527	-0.447266	-0.326172	0.672020	0.359528	-0.515885	0.391140
23878		9.507078	0.698749	2.124674	0.003202	0.087656	0.004108	-0.664795	-0.454102	-0.333984	0.672505	0.359121	-0.515141	0.391662
23879		9.558515	0.684386	2.156070	-0.001745	0.101122	0.006324	-0.672607	-0.444092	-0.335205	0.673110	0.358616	-0.514263	0.392240
23880		9.502378	0.623024	2.261820	-0.014447	0.141791	0.016360	-0.656982	-0.445801	-0.335449	0.673992	0.357616	-0.513273	0.392933
23881		9.399682	0.476008	2.359890	-0.021488	0.142688	0.013552	-0.667725	-0.449463	-0.338867	0.674921	0.356658	-0.512197	0.393613
23882		9.180307	0.674416	2.478208	-0.022890	0.140627	0.001236	-0.665039	-0.446045	-0.342285	0.675882	0.355768	-0.511121	0.394168
23883		8.968289	0.693114	2.579979	-0.025448	0.097145	0.000796	-0.664551	-0.445557	-0.336670	0.676591	0.355043	-0.510436	0.394493
23884		8.910704	0.618800	2.610269	-0.008885	0.014321	0.005114	-0.657471	-0.447998	-0.346191	0.676633	0.354884	-0.510388	0.394626
23885		8.821688	0.683894	2.513035	-0.001189	-0.074317	-0.003837	-0.655273	-0.442139	-0.344482	0.676171	0.355277	-0.510951	0.394334
23886		8.667509	0.733591	2.623731	0.006163	-0.133487	-0.008771	-0.658691	-0.442383	-0.337158	0.675338	0.356011	-0.511986	0.393758
23887		8.264402	0.806744	2.508049	0.044076	-0.170155	0.015973	-0.666260	-0.452881	-0.339844	0.673944	0.357111	-0.513261	0.393490
23888		7.213612	0.854443	2.747260	0.071991	-0.168491	0.051277	-0.659668	-0.441406	-0.333496	0.672260	0.358255	-0.514485	0.393734
23889		5.740755	0.827139	2.298268	0.159600	-0.325266	0.121362	-0.667969	-0.439209	-0.328613	0.668843	0.360389	-0.516942	0.394387
23890		4.748861	1.144496	1.326351	0.121883	-0.456833	0.278957	-0.677979	-0.448975	-0.319092	0.663958	0.361782	-0.521410	0.395481
23891		4.351437	1.319750	0.859083	-0.119023	-0.476337	0.374853	-0.681641	-0.439453	-0.309814	0.659484	0.360757	-0.527540	0.395773
23892		5.721553	0.405966	-0.100369	-0.317968	-0.674534	0.222220	-0.702637	-0.435303	-0.308350	0.655301	0.360064	-0.535556	0.392575
23893		7.643803	0.024461	-0.761829	-0.215653	-0.729055	-0.334508	-0.693115	-0.427246	-0.291992	0.652981	0.364098	-0.541013	0.385166
23894		9.784948	-0.389530	0.225070	0.241709	-0.828157	-0.461736	-0.703125	-0.436279	-0.284180	0.648449	0.373104	-0.544482	0.379270
23895		11.819945	0.835590	0.985510	0.351621	-0.908757	0.161842	-0.703857	-0.433105	-0.260010	0.639846	0.378988	-0.550960	0.378693
23896		11.096148	0.801289	-0.193553	-0.017927	-0.626907	0.345342	-0.721436	-0.442139	-0.246094	0.633975	0.379305	-0.557722	0.378351
23897		13.019607	0.006649	-0.734656	0.246197	-0.526030	-0.120036	-0.722412	-0.446045	-0.227783	0.629665	0.384576	-0.560135	0.376659
23898		17.936024	0.767612	-0.269789	0.724062	-0.650352	0.068902	-0.723145	-0.449463	-0.221680	0.621201	0.392868	-0.562135	0.379168
23899		21.442590	2.939965	-1.342022	0.090365	-0.535187	0.246148	-0.732910	-0.442627	-0.203857	0.615835	0.394352	-0.567028	0.379095
23900		21.932478	0.412534	-2.609184	-0.131577	-0.076774	-0.189402	-0.727051	-0.439209	-0.206055	0.616819	0.395020	-0.567337	0.376326
23901		27.799278	-1.489484	-2.206620	0.540050	-0.032978	-0.038211	-0.729248	-0.444336	-0.195312	0.614090	0.399529	-0.564908	0.379670
23902		27.229866	2.486297	-1.759527	0.342408	0.152516	0.183798	-0.727539	-0.442139	-0.199463	0.612555	0.400079	-0.563098	0.384231
23903		22.264481	1.726079	0.923469	0.022038	0.704730	0.183500	-0.724609	-0.442139	-0.204346	0.616513	0.395481	-0.558562	0.389249
23904		15.868247	-0.279469	5.222382	0.059272	1.348468	0.022159	-0.718506	-0.435303	-0.237549	0.625419	0.389157	-0.547982	0.396389
23905		4.879727	-1.535127	5.776950	0.067165	0.964582	-0.177438	-0.705322	-0.449463	-0.241455	0.632547	0.385996	-0.539260	0.400112
23906		-3.679183	2.591201	3.104951	0.045900	-0.204496	-0.169313	-0.705811	-0.435547	-0.234131	0.631758	0.388576	-0.539836	0.398081
23907		-5.488384	0.943102	2.459476	-0.292767	0.119131	-0.083990	-0.708496	-0.439453	-0.239990	0.634322	0.386212	-0.539987	0.396094
23908		-2.055719	-0.965407	3.112964	-0.188273	0.336977	0.009030	-0.698975	-0.439209	-0.240479	0.637375	0.382981	-0.538316	0.396604
23909		0.229799	-0.679487	2.044734	-0.034067	0.374142	-0.008523	-0.702393	-0.439697	-0.249756	0.639985	0.380974	-0.535460	0.398196
23910		0.253418	0.694032	-0.453109	0.021233	0.127054	-0.103390	-0.689209	-0.438232	-0.254150	0.641141	0.381249	-0.533848	0.398239
23911		0.639796	1.622275	-0.756229	-0.084756	0.106812	-0.096435	-0.697510	-0.444580	-0.260254	0.642668	0.380716	-0.532935	0.397509
23912		0.054575	0.339596	0.185418	-0.094734	0.139218	-0.029509	-0.691406	-0.440186	-0.259766	0.644125	0.379485	-0.532140	0.397394
23913		-0.777562	-0.271829	0.806331	-0.097466	0.218569	-0.038949	-0.694336	-0.437988	-0.271484	0.646153	0.377903	-0.530675	0.397567
23914		-1.002184	-0.123670	1.363279	-0.035857	0.228123	-0.058823	-0.694824	-0.448730	-0.258545	0.648075	0.376832	-0.528736	0.398037
23915		-1.178773	0.015682	1.472034	0.010831	0.127048	-0.073239	-0.693359	-0.444092	-0.278564	0.649070	0.376910	-0.527294	0.398255
23916		-0.160568	-0.141852	1.193632	-0.024694	0.114355	-0.070945	-0.690430	-0.450195	-0.277100	0.650241	0.376590	-0.526142	0.398172
23917		4.068917	-0.645428	2.781131	0.023231	0.418593	-0.071298	-0.684570	-0.453125	-0.295166	0.653156	0.375209	-0.522243	0.399834
23918		17.259999	3.965337	4.188575	-0.169057	-0.022223	0.145646	-0.680420	-0.452881	-0.292969	0.653060	0.372992	-0.523882	0.399922
23919		43.618907	7.014045	0.341260	-0.803831	-1.030797	-0.325450	-0.693848	-0.444824	-0.281006	0.651570	0.373735	-0.534626	0.387238
23920		41.424955	0.600957	1.923715	-0.898653	-0.367434	-0.424681	-0.690430	-0.451416	-0.290039	0.655274	0.370989	-0.539937	0.376102
23921		35.694600	-2.305565	0.992868	-0.368763	0.102800	0.077468	-0.694580	-0.448486	-0.293213	0.657293	0.366965	-0.541160	0.374763
23922		25.885793	1.800193	3.203984	-0.334500	0.012574	0.330177	-0.688965	-0.442871	-0.291992	0.657320	0.361931	-0.544132	0.375309
23923		13.921963	1.821849	3.880944	-0.386748	0.105006	0.126624	-0.694336	-0.424805	-0.302002	0.659137	0.357480	-0.545626	0.374217
23924		2.147385	0.398226	3.083820	-0.195525	0.152653	0.063921	-0.691406	-0.418945	-0.311035	0.660728	0.354661	-0.545593	0.374143
23925		-6.507064	-0.210302	2.861174	-0.172881	0.077675	0.120049	-0.694336	-0.417236	-0.307373	0.661462	0.351958	-0.546303	0.374362
23926		-5.829747	0.699043	2.514945	-0.459034	0.179717	0.133476	-0.692627	-0.404785	-0.316162	0.664032	0.346359	-0.547551	0.373210
23927		-0.581098	-0.005927	0.765276	-0.567846	0.210854	0.109745	-0.695068	-0.403076	-0.314453	0.667374	0.339807	-0.548924	0.371250
23928		2.996602	-0.218147	-0.905573	-0.257731	-0.148964	0.011859	-0.692627	-0.405273	-0.319092	0.667293	0.338263	-0.551430	0.369084
23929		1.776110	1.624327	-0.993512	-0.377489	-0.173854	-0.024573	-0.698730	-0.400391	-0.317383	0.667729	0.336105	-0.554501	0.365651
23930		-1.105594	0.977343	-0.058622	-0.470016	-0.072866	-0.076857	-0.688721	-0.398926	-0.320801	0.669458	0.333040	-0.556951	0.361545
23931		-1.557300	-0.408400	0.550464	-0.407317	-0.006791	-0.114039	-0.697510	-0.394043	-0.336914	0.671549	0.330490	-0.558358	0.357819
23932		-0.673327	-0.744381	0.901192	-0.282400	0.005917	-0.130259	-0.676514	-0.399414	-0.335693	0.673323	0.328910	-0.559047	0.354854
23933		0.126228	-0.518131	1.259271	-0.109418	0.015063	-0.152036	-0.696289	-0.405762	-0.336426	0.674535	0.329036	-0.558704	0.352969
23934		1.213684	-1.561456	2.168981	0.293887	0.168415	-0.199782	-0.683105	-0.412598	-0.339111	0.675319	0.332194	-0.555138	0.354138
23935		5.762017	-1.078027	3.401822	0.234637	0.441955	-0.097128	-0.684326	-0.416748	-0.350098	0.677790	0.332950	-0.549875	0.356906
23936		21.313818	3.164631	6.512035	-0.005479	0.083232	-0.208294	-0.683350	-0.423096	-0.350830	0.679289	0.333987	-0.548245	0.355594
23937		40.394798	1.809591	0.268698	-0.009842	-0.295640	-0.376261	-0.675049	-0.425293	-0.348633	0.678930	0.337844	-0.549125	0.351252
23938		35.402416	0.985838	-2.660398	0.656633	-1.020862	-0.281695	-0.690186	-0.430664	-0.322998	0.670301	0.349813	-0.553560	0.349140
23939		36.029694	-0.167082	-3.416666	0.531489	0.030196	0.107710	-0.691162	-0.437256	-0.309570	0.667699	0.353308	-0.551457	0.353903
23940		29.339621	0.322431	1.938977	1.168946	0.153250	0.337991	-0.685547	-0.437256	-0.301758	0.661978	0.360005	-0.546474	0.365443
23941		16.142180	3.467000	6.716322	1.192158	0.507266	0.415083	-0.691406	-0.436279	-0.299805	0.658067	0.364647	-0.538638	0.379275
23942		2.660036	3.756439	7.420684	0.667290	0.074955	0.428875	-0.697754	-0.435791	-0.283203	0.653455	0.366805	-0.536822	0.387650
23943		-6.106131	0.272409	3.627907	0.393989	-0.366813	0.305847	-0.690918	-0.430664	-0.286621	0.647617	0.369741	-0.539328	0.391165
23944		-4.661074	-0.665347	0.922051	0.341939	0.168299	0.005449	-0.696777	-0.430420	-0.272705	0.647147	0.371607	-0.536259	0.394379
23945		-0.352099	0.159028	-0.092060	0.029438	0.428132	0.074092	-0.687012	-0.431641	-0.283203	0.649447	0.369217	-0.532994	0.397258
23946		3.098908	1.058693	-1.450950	0.025657	0.143491	0.052049	-0.679932	-0.431885	-0.287598	0.649986	0.368382	-0.531899	0.398618
23947		2.037624	1.215543	-1.355028	0.060169	-0.095965	0.054689	-0.685791	-0.430664	-0.283447	0.648777	0.369018	-0.532563	0.399112
23948		-1.421172	-0.287746	-0.432831	0.125922	-0.141040	0.087931	-0.691650	-0.426025	-0.279541	0.646787	0.370174	-0.533448	0.400089
23949		-1.879059	-0.579391	0.265891	0.183878	-0.164971	0.098247	-0.697021	-0.426025	-0.266113	0.644317	0.371794	-0.534316	0.401411
23950		-0.731893	-0.235445	0.382342	0.189355	-0.138296	0.077541	-0.702881	-0.436523	-0.275391	0.642046	0.373504	-0.534859	0.402737
23951		0.092270	-0.673365	0.997688	0.272555	-0.077123	0.058905	-0.699951	-0.428223	-0.270996	0.639927	0.375704	-0.534335	0.404755
23952		1.639976	-0.584280	1.547724	0.619859	-0.106543	0.051012	-0.704102	-0.430664	-0.263428	0.636017	0.380799	-0.532259	0.408870
23953		8.063449	-1.497308	2.779796	0.705069	0.321903	0.133465	-0.700439	-0.441895	-0.258301	0.634083	0.383784	-0.526696	0.416222
23954		21.896935	2.260279	8.230397	0.665544	0.215833	0.318736	-0.704590	-0.441162	-0.252197	0.630579	0.385863	-0.522960	0.424256
23955		32.431074	5.005170	10.621919	0.118876	-0.666881	0.375438	-0.701904	-0.438965	-0.248047	0.623559	0.387929	-0.529293	0.424893
23956		17.740283	-0.249875	-4.553723	0.260422	-0.933732	-0.004416	-0.722900	-0.431641	-0.228027	0.616079	0.395009	-0.534964	0.422172
23957		21.314949	3.808848	-8.768874	0.047484	-0.994960	-0.052738	-0.730225	-0.442139	-0.213867	0.609411	0.400901	-0.542028	0.417257
23958		21.276982	-0.265477	-0.165608	-0.505411	0.515431	-0.047343	-0.720215	-0.433838	-0.223389	0.615667	0.394656	-0.540439	0.416086
23959		18.156542	-1.453663	2.682554	0.019034	0.744543	-0.336743	-0.704590	-0.447998	-0.233398	0.622321	0.393164	-0.532909	0.417309
23960		3.880174	2.014317	1.927466	-0.114239	0.350791	-0.267467	-0.704590	-0.449219	-0.236084	0.626585	0.392308	-0.529395	0.416204
23961		-0.993321	-0.352996	1.293982	-0.103587	-0.019567	0.044748	-0.709717	-0.446777	-0.239746	0.626687	0.391374	-0.530281	0.415803
23962		3.400637	-1.542097	2.971936	0.047098	0.426047	-0.034868	-0.707764	-0.443848	-0.247559	0.629416	0.389792	-0.526497	0.417970
23963		7.050239	-1.317241	3.373610	0.103798	0.334772	-0.151577	-0.697021	-0.447021	-0.258057	0.631864	0.389856	-0.522553	0.419164
23964		9.209009	1.462782	3.195056	-0.092970	0.358245	-0.300391	-0.687744	-0.449463	-0.267334	0.636214	0.389200	-0.518671	0.418013
23965		10.259880	1.770217	1.618695	-0.200373	0.051252	-0.287696	-0.695068	-0.456299	-0.263916	0.639027	0.389185	-0.517828	0.414770
23966		10.360380	-0.363483	0.266054	-0.296102	-0.053764	-0.082871	-0.692383	-0.455566	-0.262207	0.640508	0.387642	-0.519343	0.412025
23967		9.768585	-0.913641	-0.036885	-0.195281	0.100849	-0.033364	-0.695312	-0.452881	-0.272705	0.642231	0.385804	-0.519349	0.411060
23968		10.646600	0.661477	0.509110	-0.244011	0.220530	-0.087276	-0.684082	-0.455322	-0.281982	0.645257	0.383250	-0.518379	0.409935
23969		10.437550	0.752785	0.563431	-0.320095	0.161121	-0.078738	-0.686035	-0.449219	-0.287354	0.648227	0.380356	-0.518280	0.408065
23970		9.395676	0.221441	0.957792	-0.336643	0.188597	-0.071325	-0.685791	-0.456787	-0.294189	0.651399	0.377081	-0.518099	0.406280
23971		9.074841	0.314307	1.410752	-0.279790	0.192077	-0.083781	-0.680176	-0.455811	-0.296631	0.654361	0.374390	-0.517515	0.404749
23972		9.268879	0.790884	1.805710	-0.160198	0.144442	-0.104881	-0.678223	-0.444824	-0.309082	0.656545	0.373069	-0.516617	0.403579
23973		9.169246	1.424485	1.812109	-0.119653	0.120009	-0.147491	-0.677002	-0.457031	-0.309814	0.658631	0.372355	-0.515517	0.402243
23974		9.614785	1.026508	1.771448	0.041012	0.146444	-0.192680	-0.670166	-0.457764	-0.313232	0.660338	0.373209	-0.513163	0.401662
23975		9.370969	0.997324	2.190769	0.242190	0.073036	-0.165296	-0.667480	-0.462891	-0.309570	0.660504	0.375894	-0.510523	0.402248
23976		8.628844	1.856802	1.767357	0.334485	-0.075949	-0.049905	-0.660156	-0.471191	-0.296875	0.658688	0.379359	-0.509188	0.403665
23977		9.408466	2.925301	1.094165	0.120409	-0.147985	-0.002557	-0.656982	-0.467773	-0.294922	0.657165	0.381198	-0.509740	0.403717
23978		10.192352	2.937955	1.027454	-0.102360	-0.261067	-0.051894	-0.667480	-0.473633	-0.295654	0.656247	0.382057	-0.512108	0.401394
23979		9.833939	2.587143	1.043957	-0.297814	-0.263802	-0.044603	-0.668701	-0.462646	-0.293457	0.656188	0.381282	-0.515501	0.397870
23980		9.056206	1.152122	2.251331	-0.310740	-0.176749	0.059755	-0.676758	-0.458252	-0.295654	0.656228	0.379215	-0.518764	0.395529
23981		9.227399	0.599694	2.100143	-0.256139	-0.207508	0.177004	-0.673340	-0.462402	-0.289795	0.655212	0.376956	-0.522562	0.394375
23982		9.876887	1.048910	1.710014	-0.217749	-0.207550	0.186933	-0.684326	-0.455078	-0.291748	0.653939	0.375035	-0.526186	0.393497
23983		9.907734	1.171720	1.989877	-0.239372	-0.097991	0.087634	-0.684814	-0.445557	-0.294922	0.653964	0.373004	-0.528557	0.392207
23984		9.598570	1.137603	2.335702	-0.335005	0.010290	0.046512	-0.684570	-0.441406	-0.292480	0.655357	0.369877	-0.530317	0.390463
23985		9.242915	0.632634	2.131238	-0.534466	0.014380	0.120042	-0.691162	-0.437988	-0.310303	0.657305	0.364606	-0.533360	0.387993
23986		9.402701	-0.210041	1.838367	-0.644054	0.030397	0.102046	-0.680908	-0.428467	-0.307617	0.659924	0.358444	-0.536652	0.384737
23987		9.730794	-1.209542	1.493845	-0.581050	0.117678	0.011638	-0.687500	-0.429932	-0.314697	0.663240	0.352986	-0.538505	0.381478
23988		10.052150	-1.440433	1.370597	-0.420714	0.101864	0.008443	-0.687988	-0.422607	-0.318848	0.665706	0.348975	-0.539688	0.379196
23989		10.611401	-1.353703	1.025044	-0.252934	0.082474	0.065830	-0.684326	-0.416016	-0.331055	0.667017	0.346032	-0.540491	0.378443
23990		10.107049	-1.242328	1.110181	-0.088661	0.020915	0.037366	-0.687500	-0.416992	-0.330078	0.667360	0.344906	-0.540880	0.378311
23991		8.764363	-0.884562	1.185905	0.134639	0.075609	-0.125450	-0.683594	-0.416992	-0.324707	0.667864	0.346500	-0.539059	0.378564
23992		8.904274	0.979345	1.645943	0.272285	0.255076	-0.248343	-0.678467	-0.428223	-0.328125	0.669544	0.349205	-0.534568	0.379479
23993		10.179411	1.199030	2.307758	0.319110	0.239529	-0.147690	-0.678223	-0.434814	-0.336426	0.670419	0.351725	-0.530390	0.381463
23994		10.888423	-0.213362	2.088789	0.329926	-0.037653	0.002935	-0.677490	-0.436035	-0.328857	0.668686	0.354640	-0.529110	0.383578
23995		9.437237	-1.095024	1.926389	0.393774	-0.132512	0.036341	-0.675293	-0.439453	-0.318604	0.665862	0.358314	-0.528464	0.385959
23996		8.493518	-0.053107	2.138447	0.395832	0.046525	-0.006445	-0.685791	-0.444092	-0.319336	0.664396	0.361436	-0.526112	0.388777
23997		9.164052	1.763469	2.406130	0.373740	0.165408	-0.037993	-0.675049	-0.445068	-0.316162	0.663934	0.363977	-0.522724	0.391755
23998		9.658041	2.085431	2.336152	0.268098	0.120114	-0.064364	-0.679932	-0.458984	-0.315430	0.663788	0.366030	-0.520093	0.393587
23999		9.759349	1.376906	1.806395	0.172815	-0.023466	-0.044084	-0.675537	-0.448730	-0.307373	0.663016	0.367929	-0.519189	0.394311
24000		9.513457	0.965984	1.758624	0.081312	0.021700	-0.043750	-0.681885	-0.454834	-0.320801	0.662963	0.368772	-0.518411	0.394636
24001		9.310760	1.330004	1.693960	0.060919	0.033303	-0.083873	-0.680176	-0.456299	-0.312012	0.663289	0.369643	-0.517405	0.394594
24002		9.258867	1.392890	1.852501	0.108603	0.057327	-0.045929	-0.669678	-0.456543	-0.316895	0.663344	0.370560	-0.516168	0.395260
24003		9.246298	1.223675	1.824631	0.132448	0.027249	0.034869	-0.667725	-0.450928	-0.305664	0.662724	0.371298	-0.515406	0.396600
24004		9.451100	1.138546	1.875708	0.092754	0.014435	0.058164	-0.672363	-0.454102	-0.313232	0.662080	0.371598	-0.515102	0.397788
24005		9.538103	1.428713	2.000073	0.016921	0.012331	0.046078	-0.681885	-0.451416	-0.312500	0.661840	0.371360	-0.515107	0.398403
24006		9.332410	1.454331	2.166901	-0.048351	0.033765	0.043457	-0.668701	-0.452881	-0.311279	0.662038	0.370465	-0.515273	0.398692
24007		9.172675	1.313738	2.299764	-0.132387	0.002069	0.038481	-0.674072	-0.444580	-0.304199	0.662461	0.369109	-0.516070	0.398214
24008		9.427025	0.949809	1.977288	-0.143225	-0.073051	0.008960	-0.677002	-0.447754	-0.315186	0.662575	0.368191	-0.517457	0.397074
24009		9.605746	0.696556	1.755313	-0.100964	-0.080372	0.006711	-0.677002	-0.445801	-0.308838	0.662470	0.367678	-0.518645	0.396174
24010		9.671769	0.802925	1.890987	-0.076753	-0.026837	0.027949	-0.674805	-0.446533	-0.309814	0.662482	0.366970	-0.519383	0.395843
24011		9.506061	0.858484	2.087363	-0.065409	-0.005084	0.011775	-0.676025	-0.446777	-0.313232	0.662667	0.366370	-0.519798	0.395544
24012		9.642874	0.759486	1.957200	-0.045547	0.009588	-0.016064	-0.669922	-0.448486	-0.307861	0.662998	0.366041	-0.519857	0.395216
24013		9.560188	0.769692	2.078064	-0.028745	0.052632	-0.025534	-0.671143	-0.449219	-0.315430	0.663570	0.365737	-0.519430	0.395098
24014		9.594206	0.649400	2.060027	-0.012684	0.046808	-0.004366	-0.675781	-0.443604	-0.315918	0.663939	0.365443	-0.519056	0.395244
24015		9.651684	0.601011	2.144830	0.015017	0.061748	0.010321	-0.679443	-0.448730	-0.321533	0.664201	0.365164	-0.518515	0.395771
24016		9.585978	0.726348	2.158345	0.032147	0.075435	0.002562	-0.676025	-0.445068	-0.315186	0.664510	0.365028	-0.517718	0.396420
24017		9.516278	0.737802	2.205754	0.026128	0.094726	0.012449	-0.665527	-0.442871	-0.314941	0.664912	0.364679	-0.516857	0.397190
24018		9.421253	0.567115	2.192637	0.035469	0.097755	0.034785	-0.668213	-0.456543	-0.322998	0.665196	0.364250	-0.516018	0.398197
24019		9.442921	0.614723	2.142318	0.022349	0.072370	0.033872	-0.673340	-0.435059	-0.333496	0.665372	0.363920	-0.515395	0.399011
24020		9.496930	0.765406	2.147972	-0.004543	0.087626	0.017412	-0.676514	-0.433594	-0.317871	0.665893	0.363218	-0.514766	0.399593
24021		9.525643	0.754483	2.072539	-0.051993	0.066889	0.002089	-0.669922	-0.439209	-0.333984	0.666521	0.362358	-0.514515	0.399651
24022		9.548208	0.752291	2.051786	-0.090091	0.054583	-0.012116	-0.673340	-0.446777	-0.333740	0.667356	0.361341	-0.514441	0.399274
24023		9.476106	0.643807	2.027052	-0.115956	0.015842	-0.022572	-0.674316	-0.442871	-0.328125	0.668086	0.360423	-0.514755	0.398477
24024		9.486791	0.574584	2.005598	-0.104304	0.012748	-0.023864	-0.677246	-0.442871	-0.325439	0.668729	0.359625	-0.515052	0.397736
24025		9.573057	0.588577	2.036166	-0.095349	0.017458	-0.012406	-0.679199	-0.450684	-0.327881	0.669285	0.358814	-0.515324	0.397178
24026		9.519897	0.704123	2.098980	-0.102419	0.000947	-0.004740	-0.665283	-0.440918	-0.324707	0.669719	0.358025	-0.515779	0.396570
24027		9.523511	0.648290	2.020549	-0.102393	-0.005789	-0.000365	-0.666504	-0.444336	-0.322510	0.670109	0.357212	-0.516320	0.395938
24028		9.491192	0.543092	2.109997	-0.094636	-0.006342	0.009010	-0.674805	-0.437500	-0.334229	0.670397	0.356443	-0.516858	0.395442
24029		9.550587	0.556877	2.131709	-0.096481	-0.002843	0.008987	-0.669189	-0.436768	-0.327881	0.670739	0.355559	-0.517399	0.394950
24030		9.510368	0.580079	2.089160	-0.091391	-0.019564	0.008844	-0.671387	-0.437744	-0.325439	0.670940	0.354831	-0.518050	0.394410
24031		9.484497	0.500935	2.065104	-0.080581	-0.033064	0.013701	-0.670410	-0.435303	-0.339600	0.670964	0.354249	-0.518781	0.393931
24032		9.565850	0.505177	1.970613	-0.071002	-0.037149	0.014272	-0.674561	-0.435547	-0.342773	0.670961	0.353714	-0.519489	0.393484
24033		9.642955	0.518687	1.987037	-0.055992	-0.002435	0.013034	-0.666748	-0.435303	-0.340088	0.671124	0.353135	-0.519825	0.393280
24034		9.560168	0.415245	2.078289	-0.045816	-0.007397	0.013662	-0.668213	-0.428467	-0.339111	0.671209	0.352687	-0.520143	0.393118
24035		9.443366	0.413174	2.099600	-0.021811	0.000015	0.015432	-0.669922	-0.431641	-0.337158	0.671232	0.352351	-0.520317	0.393150
24036		9.429782	0.461841	2.188422	-0.013585	-0.000905	0.013241	-0.675293	-0.436523	-0.332275	0.671207	0.352133	-0.520438	0.393226
24037		9.541350	0.481982	2.133721	-0.002212	-0.026524	0.009245	-0.675293	-0.429443	-0.338379	0.670954	0.352207	-0.520694	0.393255
24038		9.530981	0.535537	2.160226	-0.004841	-0.026272	0.005290	-0.664551	-0.438721	-0.341309	0.670764	0.352217	-0.520965	0.393212
24039		9.502512	0.574992	2.099587	-0.015391	-0.034129	0.000653	-0.677490	-0.436768	-0.330811	0.670605	0.352276	-0.521268	0.393027
24040		9.488149	0.551673	2.047465	-0.010900	-0.020874	-0.001359	-0.669678	-0.442383	-0.334229	0.670474	0.352323	-0.521471	0.392940
24041		9.497626	0.595506	2.128629	-0.020889	-0.019152	-0.004583	-0.675293	-0.429932	-0.332275	0.670427	0.352339	-0.521649	0.392769
24042		9.511833	0.550307	2.099308	-0.020557	-0.029580	-0.003384	-0.673828	-0.427246	-0.340088	0.670314	0.352310	-0.521986	0.392541
24043		9.463287	0.565063	2.091197	-0.025568	-0.035464	0.000060	-0.673340	-0.433105	-0.332520	0.670197	0.352209	-0.522410	0.392266
24044		9.565011	0.603656	2.036496	-0.026758	-0.023230	-0.003520	-0.676514	-0.425293	-0.340088	0.670151	0.352127	-0.522700	0.392033
24045		9.559201	0.546130	2.056991	-0.022296	-0.011694	-0.004451	-0.677979	-0.436523	-0.335938	0.670197	0.351951	-0.522901	0.391843
24046		9.525656	0.521643	2.065021	-0.023038	-0.019996	-0.005176	-0.672607	-0.434326	-0.340576	0.670161	0.351904	-0.523128	0.391643
24047		9.514884	0.514145	2.059985	-0.024083	-0.019273	-0.003003	-0.668213	-0.437744	-0.334229	0.670149	0.351812	-0.523355	0.391444
24048		9.485587	0.533062	2.089566	-0.031700	-0.023040	-0.003074	-0.672852	-0.430664	-0.331787	0.670128	0.351724	-0.523629	0.391192
24049		9.533608	0.486145	2.056388	-0.032948	-0.034835	-0.008228	-0.676270	-0.435791	-0.334473	0.670059	0.351669	-0.524030	0.390823
24050		9.548876	0.480830	2.011796	-0.021798	-0.028135	-0.006544	-0.672363	-0.424805	-0.322998	0.669970	0.351689	-0.524306	0.390587
24051		9.569365	0.514529	2.019646	-0.009285	-0.011495	-0.006415	-0.677979	-0.435059	-0.342773	0.669930	0.351690	-0.524437	0.390479
24052		9.551065	0.466924	2.022054	-0.001508	-0.015181	-0.005554	-0.676270	-0.433594	-0.340088	0.669855	0.351780	-0.524507	0.390433
24053		9.460693	0.506653	2.061091	0.008031	-0.013139	-0.006566	-0.670166	-0.436279	-0.325439	0.669754	0.351946	-0.524514	0.390448
24054		9.514247	0.561872	1.979516	0.009248	-0.017888	-0.010085	-0.674316	-0.434082	-0.330078	0.669597	0.352234	-0.524526	0.390440
24055		9.654231	0.586497	2.005581	0.013222	-0.011914	-0.008565	-0.681396	-0.426270	-0.334961	0.669468	0.352479	-0.524492	0.390486
24056		9.594706	0.659170	1.994575	-0.002430	0.000864	-0.004202	-0.677490	-0.429199	-0.335449	0.669494	0.352417	-0.524501	0.390485
24057		9.440081	0.607541	2.000898	-0.007334	-0.011367	-0.007046	-0.681152	-0.427979	-0.331299	0.669474	0.352421	-0.524597	0.390387
24058		9.436544	0.572218	2.040921	-0.014053	-0.009174	-0.008787	-0.672363	-0.428223	-0.336670	0.669493	0.352365	-0.524721	0.390238
24059		9.578572	0.596771	2.025236	-0.012052	-0.016452	-0.017445	-0.676025	-0.435791	-0.325928	0.669524	0.352420	-0.524827	0.389993
24060		9.522492	0.600073	2.017659	-0.010765	-0.024170	-0.014310	-0.675537	-0.431885	-0.337646	0.669432	0.352580	-0.524987	0.389791
24061		9.556779	0.587972	2.014521	-0.007629	-0.016887	-0.010878	-0.679688	-0.440186	-0.327881	0.669401	0.352646	-0.525094	0.389640
24062		9.593295	0.609582	2.027361	-0.003663	-0.004865	-0.012353	-0.673096	-0.432373	-0.333008	0.669390	0.352775	-0.525052	0.389600
24063		9.505121	0.559319	2.014309	0.008442	-0.008788	-0.012251	-0.672852	-0.431641	-0.334473	0.669337	0.352964	-0.525002	0.389586
24064		9.501880	0.593678	2.018128	0.009544	-0.014326	-0.008206	-0.677734	-0.431885	-0.333984	0.669231	0.353151	-0.525015	0.389583
24065		9.550737	0.599680	1.984322	0.011951	-0.005869	-0.010647	-0.679199	-0.436768	-0.322266	0.669175	0.353325	-0.524946	0.389612
24066		9.507516	0.591502	2.011992	0.024781	-0.004909	-0.007672	-0.673096	-0.437744	-0.334717	0.669011	0.353645	-0.524811	0.389785
24067		9.561735	0.615738	1.968089	0.027617	-0.006568	-0.005933	-0.676270	-0.441650	-0.332520	0.668855	0.353967	-0.524650	0.389979
24068		9.581848	0.615415	1.935814	0.033907	-0.004819	-0.006890	-0.674561	-0.433838	-0.332031	0.668669	0.354365	-0.524429	0.390232
24069		9.542317	0.638122	1.990723	0.035932	-0.003308	-0.002806	-0.681396	-0.427734	-0.329346	0.668485	0.354689	-0.524245	0.390500
24070		9.471767	0.620095	2.032181	0.035033	-0.010335	-0.002831	-0.677490	-0.437500	-0.313477	0.668264	0.354983	-0.524183	0.390695
24071		9.502736	0.616590	1.989636	0.037344	-0.015632	-0.007009	-0.673584	-0.430420	-0.326172	0.667958	0.355468	-0.524084	0.390911
24072		9.511577	0.671639	1.988120	0.028916	-0.014544	-0.005780	-0.688721	-0.432861	-0.330566	0.667748	0.355786	-0.524040	0.391039
24073		9.514532	0.681613	2.006620	0.024414	-0.015526	-0.001976	-0.668213	-0.437256	-0.324951	0.667526	0.356022	-0.524070	0.391163
24074		9.567387	0.667204	1.961387	0.020637	-0.005439	0.003175	-0.675781	-0.433105	-0.329346	0.667357	0.356227	-0.523976	0.391389
24075		9.521793	0.622315	1.975519	0.014774	-0.006914	0.003401	-0.674316	-0.441406	-0.326904	0.667220	0.356331	-0.523968	0.391541
24076		9.527137	0.669682	1.939415	0.010311	-0.012843	-0.003147	-0.674316	-0.433105	-0.327148	0.667070	0.356540	-0.523950	0.391628
24077		9.535456	0.710141	1.944248	-0.000142	-0.004465	-0.008371	-0.674561	-0.431641	-0.325928	0.667071	0.356591	-0.523939	0.391596
24078		9.608212	0.709208	2.000842	-0.001676	-0.000921	-0.010618	-0.668701	-0.441895	-0.325439	0.667113	0.356617	-0.523907	0.391544
24079		9.563827	0.671173	1.905566	-0.005707	0.007483	-0.006925	-0.674316	-0.434814	-0.322510	0.667189	0.356631	-0.523766	0.391590
24080		9.449424	0.646612	1.910056	-0.005147	-0.001843	-0.010277	-0.679688	-0.432129	-0.332764	0.667222	0.356662	-0.523745	0.391533
24081		9.496306	0.623482	1.944069	-0.004273	0.004113	-0.011982	-0.681152	-0.436279	-0.323730	0.667328	0.356625	-0.523688	0.391463
24082		9.517642	0.667464	1.979595	0.003294	0.004054	-0.014309	-0.681885	-0.428467	-0.316650	0.667374	0.356719	-0.523571	0.391454
24083		9.545639	0.650273	1.987818	0.001017	-0.002715	-0.004103	-0.676270	-0.437988	-0.328369	0.667337	0.356718	-0.523621	0.391452
24084		9.595774	0.627964	1.922268	-0.002874	-0.002985	-0.002807	-0.677490	-0.433594	-0.327881	0.667322	0.356726	-0.523619	0.391473
24085		9.558996	0.646008	1.950559	-0.003936	0.009951	-0.005164	-0.681641	-0.436523	-0.322510	0.667417	0.356644	-0.523533	0.391501
24086		9.518212	0.633238	1.953359	-0.000469	0.009951	-0.005718	-0.673340	-0.437988	-0.319580	0.667472	0.356625	-0.523425	0.391569
24087		9.507490	0.657904	2.025366	-0.006034	0.014931	-0.001468	-0.677734	-0.426270	-0.330078	0.667558	0.356542	-0.523291	0.391678
24088		9.594936	0.641272	1.940525	-0.016309	0.007818	-0.004787	-0.674316	-0.435059	-0.328125	0.667715	0.356305	-0.523329	0.391573
24089		9.582079	0.595265	1.956625	-0.010408	0.016572	-0.004803	-0.675293	-0.435303	-0.333008	0.667877	0.356153	-0.523204	0.391602
24090		9.538621	0.636940	1.971838	-0.008243	0.014678	-0.004851	-0.669678	-0.436279	-0.325928	0.668030	0.356014	-0.523085	0.391628
24091		9.507615	0.670760	2.005754	-0.012411	0.017699	-0.009742	-0.672852	-0.429688	-0.330078	0.668224	0.355898	-0.522920	0.391622
24092		9.522151	0.648187	2.003773	-0.017635	0.013530	-0.009878	-0.673096	-0.436768	-0.330566	0.668439	0.355695	-0.522861	0.391519
24093		9.540020	0.622915	1.971845	-0.012655	0.009835	-0.009688	-0.681396	-0.436035	-0.333984	0.668590	0.355599	-0.522770	0.391469
24094		9.566820	0.620246	1.964247	-0.010426	0.007606	-0.003936	-0.669434	-0.436768	-0.338135	0.668691	0.355467	-0.522740	0.391457
24095		9.521514	0.653965	1.954995	-0.013042	0.007228	-0.005080	-0.674805	-0.431152	-0.324707	0.668831	0.355332	-0.522685	0.391415
24096		9.527640	0.682947	1.955559	-0.015624	0.011488	-0.005150	-0.671631	-0.433594	-0.326660	0.668971	0.355156	-0.522651	0.391379
24097		9.551256	0.682175	1.977441	-0.023876	0.008520	-0.005269	-0.680420	-0.434814	-0.328369	0.669132	0.354943	-0.522660	0.391284
24098		9.546147	0.640616	1.943376	-0.030605	0.005417	-0.005293	-0.671875	-0.438721	-0.324463	0.669295	0.354681	-0.522745	0.391132
24099		9.515069	0.633588	1.988769	-0.032539	0.007923	-0.005503	-0.669434	-0.435791	-0.328369	0.669470	0.354447	-0.522770	0.391011
24100		9.522678	0.596530	1.968694	-0.028418	0.005387	-0.004908	-0.675293	-0.442139	-0.336426	0.669626	0.354228	-0.522809	0.390889
24101		9.582369	0.601740	2.009318	-0.017360	0.005627	-0.004763	-0.669189	-0.429199	-0.337646	0.669739	0.354110	-0.522771	0.390853
24102		9.621724	0.676671	1.911461	-0.014257	0.017262	-0.003259	-0.675781	-0.433594	-0.338623	0.669945	0.353868	-0.522685	0.390834
24103		9.500723	0.668221	1.971667	-0.006903	0.011480	-0.002100	-0.672607	-0.434814	-0.330322	0.670059	0.353728	-0.522610	0.390865
24104		9.449468	0.657561	1.982757	-0.003244	0.009299	-0.003559	-0.669922	-0.436035	-0.332520	0.670123	0.353681	-0.522513	0.390929
24105		9.518270	0.650337	2.006637	-0.000003	0.010408	-0.004915	-0.677734	-0.428467	-0.327637	0.670193	0.353670	-0.522371	0.391009
24106		9.576023	0.674886	2.015972	-0.003692	0.003604	-0.002619	-0.673096	-0.445801	-0.339355	0.670215	0.353601	-0.522378	0.391024
24107		9.547033	0.642649	2.026102	0.001055	0.001009	-0.003242	-0.678467	-0.432373	-0.334229	0.670208	0.353670	-0.522273	0.391113
24108		9.470929	0.642795	2.067765	-0.003849	0.005290	0.002588	-0.672607	-0.436523	-0.332764	0.670229	0.353560	-0.522271	0.391180
24109		9.494608	0.607940	2.032018	-0.002815	0.005227	-0.002375	-0.669434	-0.439453	-0.338623	0.670260	0.353534	-0.522202	0.391242
24110		9.530491	0.654385	2.040231	0.002367	0.008185	-0.005442	-0.673340	-0.437256	-0.328125	0.670318	0.353561	-0.522044	0.391328
24111		9.546619	0.641909	2.045517	-0.001516	0.010549	-0.005010	-0.678223	-0.438965	-0.330078	0.670374	0.353556	-0.521911	0.391416
24112		9.544710	0.619280	2.043495	-0.001268	0.011440	-0.002263	-0.675781	-0.433838	-0.335693	0.670417	0.353529	-0.521785	0.391533
24113		9.470984	0.590925	2.067194	0.000284	0.014230	-0.000010	-0.676270	-0.434570	-0.336426	0.670492	0.353437	-0.521662	0.391651
24114		9.509602	0.607889	2.056317	0.000029	0.008062	-0.001053	-0.674072	-0.431152	-0.330322	0.670532	0.353383	-0.521584	0.391735
24115		9.547577	0.627331	2.030570	-0.006480	0.002132	0.000784	-0.674805	-0.438965	-0.337646	0.670544	0.353292	-0.521610	0.391764
24116		9.562330	0.618797	2.006769	-0.011075	-0.002236	-0.002099	-0.676514	-0.439941	-0.335693	0.670565	0.353233	-0.521637	0.391745
24117		9.516665	0.586277	2.017634	-0.008002	0.001343	0.000470	-0.677002	-0.436523	-0.339111	0.670572	0.353176	-0.521629	0.391794
24118		9.486113	0.604889	2.052484	-0.006907	0.001857	0.001523	-0.678223	-0.436768	-0.332520	0.670590	0.353085	-0.521637	0.391834
24119		9.564557	0.638227	2.025435	-0.006742	-0.003251	-0.001547	-0.678955	-0.441650	-0.336670	0.670567	0.353063	-0.521675	0.391844
24120		9.548831	0.635899	2.039601	-0.010629	-0.003526	-0.000265	-0.668701	-0.432129	-0.337646	0.670553	0.353021	-0.521712	0.391857
24121		9.527561	0.581685	2.007979	-0.010857	-0.005982	-0.000440	-0.679688	-0.437744	-0.337646	0.670560	0.352938	-0.521796	0.391807
24122		9.513882	0.573868	2.048623	0.008220	-0.004167	0.001404	-0.678467	-0.437256	-0.336670	0.670461	0.353018	-0.521778	0.391930
24123		9.490040	0.595378	2.088645	0.010385	-0.006851	0.002639	-0.677002	-0.435547	-0.337646	0.670328	0.353122	-0.521775	0.392065
24124		9.540983	0.661294	2.046499	0.010807	-0.013565	0.004672	-0.681152	-0.435059	-0.333008	0.670150	0.353236	-0.521842	0.392180
24125		9.603413	0.713666	1.945160	-0.004952	-0.000501	0.003239	-0.673096	-0.438477	-0.335449	0.670118	0.353166	-0.521885	0.392239
24126		9.557667	0.668036	1.960117	-0.013916	-0.003350	-0.004486	-0.678711	-0.439453	-0.346191	0.670151	0.353117	-0.521915	0.392187
24127		9.457431	0.575839	2.025778	-0.010265	-0.000395	-0.009151	-0.671631	-0.439453	-0.326416	0.670231	0.353083	-0.521891	0.392113
24128		9.524125	0.637125	2.054825	-0.009150	0.002901	-0.007444	-0.680176	-0.432129	-0.331787	0.670272	0.353095	-0.521826	0.392119
24129		9.565069	0.649456	2.068912	-0.004143	0.001335	-0.003817	-0.682617	-0.432861	-0.333496	0.670289	0.353054	-0.521835	0.392115
24130		9.543281	0.603588	2.103748	0.001940	0.001850	-0.001710	-0.672607	-0.434326	-0.330078	0.670272	0.353045	-0.521821	0.392171
24131		9.484733	0.622435	2.068627	-0.004616	-0.008073	-0.003755	-0.670166	-0.432861	-0.338379	0.670224	0.353079	-0.521874	0.392151
24132		9.516036	0.643333	2.018929	-0.005069	-0.010345	-0.004956	-0.671631	-0.434082	-0.332764	0.670198	0.353099	-0.521944	0.392085
24133		9.529498	0.619710	2.054528	-0.007168	0.002539	-0.003790	-0.677979	-0.440430	-0.333740	0.670240	0.353053	-0.521918	0.392089
24134		9.513114	0.592137	2.079004	-0.005445	0.003789	-0.005240	-0.681641	-0.433350	-0.330078	0.670270	0.353056	-0.521846	0.392130
24135		9.532684	0.550923	2.061815	0.004485	-0.003622	-0.004878	-0.673828	-0.428711	-0.333496	0.670212	0.353130	-0.521846	0.392163
24136		9.520533	0.573852	2.037552	0.012502	-0.006534	-0.002783	-0.679443	-0.425537	-0.327637	0.670118	0.353241	-0.521846	0.392224
24137		9.536005	0.619019	1.994900	0.019057	-0.000961	0.001179	-0.676270	-0.431885	-0.334473	0.670000	0.353340	-0.521821	0.392370
24138		9.576976	0.604111	2.016653	0.028237	-0.000145	0.009493	-0.668945	-0.438721	-0.333984	0.669811	0.353487	-0.521731	0.392681
24139		9.511675	0.587366	2.052502	0.028868	-0.004682	0.008694	-0.673096	-0.435547	-0.335449	0.669582	0.353724	-0.521607	0.393020
24140		9.501017	0.645880	2.028344	0.024667	-0.003922	-0.001137	-0.677490	-0.435303	-0.335205	0.669435	0.353954	-0.521487	0.393223
24141		9.517905	0.667022	2.087223	0.012345	0.002925	-0.001631	-0.678467	-0.436523	-0.333252	0.669387	0.354040	-0.521383	0.393365
24142		9.499908	0.658174	2.079324	0.004518	-0.003338	-0.001865	-0.676025	-0.424316	-0.336914	0.669325	0.354105	-0.521364	0.393437
24143		9.514472	0.624140	2.063551	0.004982	-0.001846	0.000620	-0.678711	-0.439209	-0.333008	0.669303	0.354059	-0.521412	0.393453
24144		9.497570	0.585336	2.076560	0.007577	-0.011236	0.003897	-0.684082	-0.434082	-0.333496	0.669141	0.354169	-0.521454	0.393575
24145		9.478156	0.635285	2.006314	0.010596	-0.023913	0.007074	-0.675049	-0.436035	-0.334717	0.668876	0.354302	-0.521646	0.393650
24146		9.578279	0.648934	1.962570	0.002388	-0.009062	0.003756	-0.678711	-0.431885	-0.333252	0.668770	0.354337	-0.521702	0.393725
24147		9.649308	0.684804	2.048188	0.001928	-0.000006	-0.002147	-0.674072	-0.442871	-0.334473	0.668757	0.354333	-0.521693	0.393762
24148		9.540877	0.715889	2.028287	-0.014759	0.009412	-0.005763	-0.674805	-0.427979	-0.336426	0.668880	0.354242	-0.521592	0.393769
24149		9.403746	0.632559	2.058509	-0.015408	0.002335	-0.003269	-0.679443	-0.438232	-0.331299	0.668986	0.354060	-0.521657	0.393666
24150		9.461912	0.575547	2.106675	-0.016102	0.000099	-0.006996	-0.674561	-0.440430	-0.331055	0.669054	0.353986	-0.521677	0.393591
24151		9.524770	0.647351	2.080893	-0.019598	-0.003753	-0.008819	-0.681152	-0.431152	-0.327637	0.669120	0.353936	-0.521711	0.393480
24152		9.564062	0.665227	2.066322	-0.024591	-0.007322	-0.009233	-0.670654	-0.427490	-0.331055	0.669191	0.353805	-0.521871	0.393264
24153		9.549889	0.598188	2.059958	-0.022344	-0.002297	-0.003253	-0.669678	-0.434570	-0.342041	0.669283	0.353611	-0.521997	0.393113
24154		9.525315	0.560052	2.053987	-0.011086	0.000259	-0.004437	-0.671143	-0.437256	-0.338867	0.669365	0.353522	-0.521997	0.393053
24155		9.515736	0.560980	2.076055	-0.006553	-0.000295	-0.005656	-0.681641	-0.439697	-0.332520	0.669412	0.353507	-0.521961	0.393035
24156		9.504592	0.620105	2.053710	-0.006115	0.001836	-0.005959	-0.672607	-0.445557	-0.331787	0.669437	0.353509	-0.521917	0.393050
24157		9.527184	0.596619	2.069415	-0.004353	0.007862	-0.004818	-0.678711	-0.439697	-0.332275	0.669481	0.353540	-0.521758	0.393158
24158		9.533995	0.563454	2.034939	-0.002836	0.002447	-0.003022	-0.673096	-0.427002	-0.328857	0.669482	0.353552	-0.521698	0.393226
24159		9.534202	0.603641	2.022265	-0.000914	0.001518	-0.005388	-0.670166	-0.427246	-0.330566	0.669506	0.353532	-0.521688	0.393214
24160		9.513159	0.636620	2.031249	-0.002394	0.005505	-0.003107	-0.665771	-0.432373	-0.331787	0.669559	0.353468	-0.521652	0.393231
24161		9.535707	0.611808	2.047594	-0.007077	0.009589	0.003754	-0.671387	-0.431396	-0.330811	0.669619	0.353337	-0.521591	0.393328
24162		9.564672	0.581533	2.005989	-0.007989	0.005831	0.000066	-0.676758	-0.439453	-0.341064	0.669670	0.353231	-0.521570	0.393363
24163		9.505544	0.607264	2.038107	-0.007400	0.004433	-0.005880	-0.674316	-0.435547	-0.329102	0.669742	0.353193	-0.521499	0.393368
24164		9.510619	0.626317	2.028788	-0.011282	0.006794	-0.005443	-0.672119	-0.431396	-0.332764	0.669823	0.353120	-0.521444	0.393369
24165		9.536807	0.672020	2.059563	-0.014033	0.009164	0.000340	-0.679199	-0.433838	-0.340820	0.669924	0.352941	-0.521429	0.393378
24166		9.574947	0.655045	2.127189	-0.032588	0.011893	0.004661	-0.675049	-0.437500	-0.338135	0.670112	0.352551	-0.521506	0.393306
24167		9.601298	0.890895	2.284792	-0.063026	0.011065	0.009652	-0.674316	-0.438965	-0.336426	0.670389	0.351918	-0.521725	0.393110
24168		9.511425	1.083226	2.343689	-0.142949	-0.006228	0.014512	-0.674561	-0.426025	-0.331787	0.670868	0.350691	-0.522486	0.392379
24169		9.446778	1.091492	2.388245	-0.221144	0.025969	-0.005491	-0.664307	-0.432129	-0.337891	0.672006	0.348719	-0.523340	0.391047
24170		9.412309	1.103870	2.409464	-0.296438	0.028231	-0.022780	-0.666992	-0.426514	-0.342773	0.673564	0.346271	-0.524384	0.389139
24171		9.417591	1.109992	2.372592	-0.405132	0.025521	-0.041085	-0.670410	-0.429443	-0.350098	0.675659	0.343004	-0.525920	0.386317
24172		9.347854	1.094800	2.410820	-0.480755	0.036366	-0.063366	-0.671387	-0.419189	-0.350098	0.678225	0.339209	-0.527594	0.382874
24173		9.315231	1.004373	2.386062	-0.519828	0.032312	-0.084855	-0.670166	-0.415771	-0.367432	0.681008	0.335193	-0.529428	0.378918
24174		9.323168	0.960784	2.496571	-0.560541	0.022813	-0.102330	-0.672607	-0.408447	-0.370117	0.683978	0.330949	-0.531434	0.374467
24175		9.301257	0.839634	2.435817	-0.575419	-0.029918	-0.116489	-0.673584	-0.409180	-0.375000	0.686686	0.326877	-0.533910	0.369532
24176		9.416737	0.719595	2.497618	-0.566290	-0.042822	-0.128633	-0.665771	-0.401123	-0.380371	0.689277	0.323034	-0.536356	0.364511
24177		9.392146	0.573952	2.564621	-0.546789	-0.035874	-0.127259	-0.659912	-0.397949	-0.386963	0.691813	0.319278	-0.538639	0.359617
24178		9.304583	0.511988	2.679503	-0.544715	-0.012526	-0.109944	-0.660889	-0.395264	-0.388184	0.694395	0.315306	-0.540736	0.354968
24179		9.277503	0.259259	2.794974	-0.538948	0.001165	-0.086272	-0.660400	-0.399414	-0.396973	0.696895	0.311160	-0.542759	0.350613
24180		9.107289	-0.133579	2.998447	-0.551651	-0.031204	-0.066805	-0.668701	-0.391113	-0.402344	0.699098	0.306946	-0.545120	0.346254
24181		9.182221	-0.322604	2.585373	-0.549577	-0.131848	-0.058073	-0.661377	-0.383301	-0.391846	0.700532	0.303074	-0.548403	0.341549
24182		9.439936	-0.203839	2.302704	-0.544412	-0.114570	-0.056082	-0.659668	-0.385742	-0.402832	0.702003	0.299165	-0.551499	0.336958
24183		9.649673	-0.010773	2.305094	-0.583128	-0.047082	-0.022446	-0.659424	-0.377441	-0.406738	0.703914	0.294421	-0.554207	0.332679
24184		9.780552	-0.589921	1.887668	-0.582079	-0.132281	0.010517	-0.666016	-0.376709	-0.413330	0.705061	0.289780	-0.557766	0.328352
24185		9.944267	-0.842302	1.469318	-0.468195	-0.111336	0.002734	-0.665527	-0.366211	-0.413574	0.705931	0.286125	-0.560599	0.324843
24186		10.204092	-0.817910	1.125917	-0.370183	-0.015440	0.021473	-0.662109	-0.357666	-0.416504	0.707034	0.282771	-0.562271	0.322482
24187		9.858994	-1.022718	1.048521	-0.251024	0.006552	0.005594	-0.668457	-0.357422	-0.423828	0.707936	0.280461	-0.563217	0.320866
24188		9.859555	-0.963896	0.885091	-0.085012	0.019590	-0.013433	-0.665771	-0.357422	-0.427734	0.708419	0.279700	-0.563311	0.320298
24189		9.806955	-0.624760	1.032853	0.041174	0.045467	-0.008624	-0.664795	-0.360352	-0.425537	0.708630	0.279923	-0.562669	0.320764
24190		9.679264	-0.643839	0.964289	0.165417	0.055746	-0.004852	-0.660889	-0.357422	-0.417969	0.708451	0.281203	-0.561439	0.322193
24191		9.549940	-0.727196	1.046777	0.207817	0.031618	-0.037652	-0.672119	-0.367676	-0.420166	0.708079	0.283163	-0.560165	0.323508
24192		9.646350	-0.737454	0.926325	0.256921	0.015837	-0.091773	-0.660889	-0.367188	-0.418701	0.707613	0.286030	-0.558630	0.324658
24193		9.528799	-0.739717	1.040588	0.268944	-0.001662	-0.170391	-0.658936	-0.372803	-0.424072	0.707314	0.289599	-0.556898	0.325120
24194		9.808564	-0.323644	1.268515	0.245143	-0.061709	-0.183898	-0.658447	-0.372314	-0.412354	0.706747	0.293276	-0.555718	0.325078
24195		9.851587	-0.352649	1.979248	0.180752	0.007789	-0.189338	-0.663330	-0.379150	-0.417480	0.706903	0.296102	-0.554221	0.324732
24196		10.467758	0.751940	2.419583	0.188175	0.009790	-0.121017	-0.658936	-0.384521	-0.412354	0.706767	0.298498	-0.552925	0.325043
24197		10.720379	1.139685	2.372301	0.187469	0.096384	-0.021810	-0.659668	-0.388672	-0.412354	0.706815	0.299874	-0.551217	0.326569
24198		9.765158	0.212844	2.663334	0.232202	0.257673	-0.066707	-0.654785	-0.400391	-0.414551	0.707976	0.301303	-0.547722	0.328615
24199		8.608668	0.408376	2.954888	0.368587	0.352796	-0.114743	-0.644775	-0.400146	-0.407471	0.709434	0.303933	-0.542561	0.331596
24200		8.087161	1.405739	2.975789	0.462558	0.333314	-0.024682	-0.650879	-0.410889	-0.416992	0.709988	0.306840	-0.537530	0.335899
24201		8.653477	2.496226	2.764067	0.446755	0.228092	0.059323	-0.640869	-0.408447	-0.421387	0.709510	0.309472	-0.533785	0.340435
24202		9.521268	3.066323	2.476460	0.250964	0.101741	0.029156	-0.646240	-0.412354	-0.404541	0.709093	0.311055	-0.531857	0.342872
24203		9.744545	2.691970	2.491127	0.083530	0.049705	-0.128432	-0.644043	-0.414062	-0.414551	0.709601	0.312461	-0.530539	0.342582
24204		9.514252	2.594711	2.410091	-0.022356	0.026496	-0.241378	-0.635498	-0.419678	-0.410156	0.710879	0.313741	-0.529428	0.340477
24205		9.357583	2.111961	2.262768	-0.040755	0.000087	-0.191157	-0.635986	-0.415771	-0.406982	0.711824	0.314674	-0.528789	0.338629
24206		9.137893	1.425983	2.197418	0.009372	0.008469	-0.089069	-0.636230	-0.422852	-0.419922	0.712199	0.315292	-0.528334	0.337975
24207		8.959739	1.044411	2.182998	0.111164	-0.008129	-0.023880	-0.629395	-0.426758	-0.419434	0.711805	0.316466	-0.527795	0.338550
24208		8.830611	1.056278	2.162279	0.130715	-0.055853	0.023593	-0.635742	-0.432617	-0.407715	0.710817	0.317734	-0.527730	0.339537
24209		9.232725	0.986047	2.102108	0.082227	-0.118250	0.086864	-0.642822	-0.416748	-0.414551	0.709298	0.318466	-0.528683	0.340543
24210		9.180733	0.767242	2.229161	0.038366	-0.133025	0.174154	-0.634033	-0.419922	-0.411621	0.707538	0.318139	-0.530425	0.341798
24211		9.111962	0.878397	2.269062	0.051291	-0.111274	0.245980	-0.646484	-0.412842	-0.410889	0.705552	0.317427	-0.532095	0.343963
24212		9.232433	0.634361	2.515889	0.107625	-0.093695	0.321979	-0.650391	-0.404541	-0.406250	0.703127	0.316575	-0.533731	0.347166
24213		9.290546	0.351093	2.519583	0.202201	-0.144684	0.393877	-0.648682	-0.413086	-0.399658	0.699661	0.316261	-0.535707	0.351385
24214		9.360642	-0.040190	2.822572	0.231100	-0.184747	0.411113	-0.667725	-0.402832	-0.392090	0.695682	0.316366	-0.537825	0.355926
24215		10.004031	0.358306	3.048800	0.271539	-0.211951	0.307726	-0.669678	-0.402832	-0.389648	0.691788	0.317566	-0.539677	0.359625
24216		10.022214	1.453271	2.937074	0.230557	-0.279359	0.204355	-0.672363	-0.399658	-0.369629	0.688052	0.319420	-0.541826	0.361912
24217		8.587009	2.381989	2.501823	0.088722	-0.314327	0.159228	-0.683838	-0.395752	-0.360352	0.684806	0.320531	-0.544750	0.362697
24218		7.205635	2.227880	2.131576	-0.181379	-0.366742	0.166039	-0.683105	-0.389893	-0.372559	0.682227	0.319492	-0.549413	0.361437
24219		7.607517	1.176874	2.039956	-0.343158	-0.351244	0.139016	-0.683105	-0.390381	-0.371338	0.680552	0.317137	-0.554503	0.358885
24220		9.771300	-0.025868	1.744355	-0.305554	-0.421435	0.073289	-0.690918	-0.379395	-0.366211	0.678504	0.315912	-0.559670	0.355811
24221		10.832335	0.526747	1.293606	-0.281604	-0.580066	0.031540	-0.692627	-0.383545	-0.354004	0.675408	0.315814	-0.565947	0.351836
24222		10.883986	1.179966	0.702455	-0.296913	-0.597034	0.194021	-0.705078	-0.372559	-0.345703	0.671470	0.314563	-0.572979	0.349104
24223		10.866486	-0.525640	0.679667	-0.388070	-0.500515	0.294493	-0.705811	-0.370117	-0.345215	0.668094	0.311335	-0.580013	0.346850
24224		10.282821	-1.156407	0.644718	-0.385268	-0.457254	0.236248	-0.709229	-0.353760	-0.335449	0.665237	0.308392	-0.586329	0.344345
24225		10.318052	-0.466997	0.301456	-0.317309	-0.442411	0.238583	-0.725586	-0.351074	-0.325928	0.662179	0.305861	-0.592266	0.342329
24226		10.401505	-0.598292	0.284976	-0.234618	-0.352111	0.316427	-0.717041	-0.340576	-0.323242	0.659078	0.303058	-0.597395	0.341894
24227		10.026295	-0.752570	0.650343	-0.196777	-0.229146	0.345882	-0.727783	-0.326660	-0.322266	0.656626	0.299809	-0.601400	0.342456
24228		9.488958	-0.225968	1.083789	-0.239060	-0.141307	0.323540	-0.731934	-0.324219	-0.322754	0.655072	0.295935	-0.604820	0.342777
24229		9.456376	-0.157416	1.095201	-0.330665	-0.077721	0.263878	-0.737793	-0.317139	-0.327637	0.654570	0.291522	-0.607834	0.342185
24230		9.937060	-0.308797	1.073370	-0.383319	-0.066931	0.275240	-0.741699	-0.312988	-0.330811	0.654277	0.286528	-0.611004	0.341316
24231		10.110425	-0.252275	1.088692	-0.438975	-0.037996	0.312474	-0.743896	-0.302246	-0.329590	0.654217	0.280688	-0.614257	0.340445
24232		9.392357	-0.360269	1.115572	-0.499513	-0.048783	0.322552	-0.751709	-0.286865	-0.339600	0.654201	0.274305	-0.617877	0.339124
24233		9.624066	-0.614086	0.836347	-0.520355	-0.067734	0.267889	-0.745850	-0.281494	-0.335693	0.654322	0.268184	-0.621541	0.337085
24234		9.842491	-0.807609	0.742267	-0.513164	-0.029130	0.205854	-0.742188	-0.266846	-0.337891	0.654939	0.262477	-0.624590	0.334737
24235		9.778043	-1.003270	0.567482	-0.460500	-0.040731	0.200742	-0.750000	-0.261719	-0.343994	0.655294	0.257237	-0.627490	0.332680
24236		9.730826	-1.083252	0.480503	-0.412496	0.001764	0.176321	-0.755127	-0.248535	-0.344238	0.655906	0.252403	-0.629732	0.330936
24237		9.841486	-1.394077	0.503898	-0.318976	0.016102	0.160846	-0.756104	-0.249756	-0.345947	0.656370	0.248348	-0.631457	0.329794
24238		9.833268	-1.282925	0.424034	-0.254048	0.026989	0.128332	-0.748047	-0.246826	-0.354736	0.656836	0.245086	-0.632680	0.328962
24239		9.567369	-1.517683	0.291516	-0.189899	0.038843	0.125109	-0.750488	-0.243652	-0.350830	0.657241	0.242329	-0.633463	0.328688
24240		9.656835	-1.486005	0.227750	-0.133164	0.076678	0.089458	-0.754639	-0.235840	-0.358398	0.657893	0.240181	-0.633615	0.328667
24241		9.438977	-1.483012	0.231147	-0.148208	0.053700	0.053541	-0.753174	-0.228516	-0.357422	0.658561	0.238241	-0.633920	0.328151
24242		9.560097	-1.742931	0.073446	-0.132687	0.018301	0.014975	-0.755859	-0.229248	-0.360352	0.659050	0.236854	-0.634367	0.327311
24243		9.574490	-1.623239	0.164180	-0.138818	0.089714	-0.033361	-0.752197	-0.234863	-0.367920	0.660319	0.235516	-0.634095	0.326244
24244		9.920766	-1.822083	0.334564	-0.054813	0.098756	-0.028784	-0.756104	-0.236816	-0.365479	0.661414	0.234827	-0.633359	0.325950
24245		9.532364	-1.662162	0.501427	-0.003717	0.139209	-0.049359	-0.756836	-0.232178	-0.368896	0.662737	0.234580	-0.632046	0.325991
24246		9.783114	-1.782906	0.527273	0.066611	0.169391	-0.013065	-0.740967	-0.231934	-0.367188	0.663935	0.234471	-0.630325	0.326961
24247		9.929225	-1.298158	0.851524	-0.012131	0.225536	-0.067814	-0.744141	-0.240234	-0.355713	0.666036	0.233920	-0.628272	0.327033
24248		9.577282	-1.567170	0.935348	-0.020247	0.175576	-0.126787	-0.737793	-0.240479	-0.369385	0.667945	0.234044	-0.626552	0.326352
24249		9.695261	-1.796201	0.570349	0.103564	0.145669	-0.103946	-0.741943	-0.241699	-0.373291	0.669202	0.235109	-0.624584	0.326783
24250		9.738596	-1.860375	0.556448	0.234711	0.220238	-0.070910	-0.736084	-0.242920	-0.370361	0.670504	0.236690	-0.621567	0.328720
24251		9.822663	-2.105726	0.535046	0.391928	0.245147	-0.059766	-0.739990	-0.250732	-0.381836	0.671458	0.239396	-0.617734	0.332022
24252		9.727911	-1.586208	0.736840	0.508419	0.298011	-0.126015	-0.731445	-0.249268	-0.382568	0.672735	0.243352	-0.612716	0.335837
24253		9.706364	-1.440055	1.199245	0.553219	0.259654	-0.152694	-0.730957	-0.261475	-0.380615	0.673655	0.247992	-0.607739	0.339620
24254		9.433343	-0.527426	1.989789	0.435535	0.321773	-0.163656	-0.730225	-0.279053	-0.381592	0.675405	0.251481	-0.602678	0.342585
24255		9.347781	-1.056802	1.878874	0.327531	0.359613	-0.132620	-0.722412	-0.273926	-0.389648	0.677609	0.253716	-0.597805	0.345113
24256		9.542905	-1.782375	1.025914	0.527578	0.340471	-0.051648	-0.719727	-0.283203	-0.393066	0.678665	0.257039	-0.592474	0.349742
24257		11.236957	-1.745451	0.776480	0.738197	0.205250	0.125820	-0.718506	-0.290527	-0.391602	0.677217	0.261420	-0.587877	0.356983
24258		10.700521	-1.523156	1.625377	0.678886	0.234643	0.171387	-0.719971	-0.290527	-0.389893	0.675917	0.264822	-0.583380	0.364244
24259		10.140540	-0.316048	2.732361	0.593238	0.307477	0.169551	-0.717041	-0.287354	-0.399902	0.675373	0.267145	-0.578635	0.371060
24260		10.467755	-0.031427	2.243521	0.569486	0.358142	0.222452	-0.712646	-0.295166	-0.390625	0.675008	0.268568	-0.573689	0.378307
24261		10.572950	-0.316019	1.976352	0.494732	0.346978	0.174294	-0.712646	-0.290771	-0.393799	0.674964	0.269816	-0.568995	0.384535
24262		9.807155	0.194109	2.647032	0.423327	0.354777	-0.087456	-0.715820	-0.299561	-0.402588	0.676431	0.272237	-0.563701	0.388033
24263		9.115086	0.407476	2.794599	0.470998	0.360989	-0.213094	-0.705078	-0.311768	-0.402344	0.678358	0.275896	-0.557657	0.390807
24264		8.379605	1.314422	2.585964	0.581323	0.291364	-0.160540	-0.698242	-0.324951	-0.402588	0.679122	0.280476	-0.551779	0.394545
24265		7.782356	1.100752	2.343606	0.566889	0.198509	-0.085459	-0.697998	-0.333252	-0.399170	0.678894	0.284877	-0.546956	0.398481
24266		7.439776	1.483265	2.013772	0.485888	0.094811	-0.028946	-0.700928	-0.326416	-0.397705	0.677918	0.288722	-0.543605	0.401946
24267		7.647117	1.970554	1.746525	0.310483	-0.045999	-0.015263	-0.698975	-0.332764	-0.399658	0.676517	0.291630	-0.542440	0.403777
24268		8.034571	2.093265	1.581154	0.017572	-0.174412	-0.026287	-0.694580	-0.347900	-0.393066	0.675391	0.292770	-0.543751	0.403073
24269		8.023909	1.239645	1.919912	-0.140746	-0.230749	0.026157	-0.702881	-0.339844	-0.382812	0.674209	0.292573	-0.546440	0.401555
24270		8.249664	0.501551	2.473931	-0.149336	-0.229872	0.113961	-0.705322	-0.332764	-0.385498	0.672569	0.291704	-0.549562	0.400676
24271		8.270979	0.804245	2.715918	-0.110621	-0.218814	0.236804	-0.712402	-0.325684	-0.375000	0.670257	0.290216	-0.552832	0.401133
24272		8.995206	-0.519218	3.107387	-0.164190	-0.336515	0.313003	-0.719971	-0.317383	-0.385742	0.666889	0.288361	-0.557663	0.401396
24273		11.913432	-1.471425	2.673640	-0.086252	-0.427063	0.197568	-0.720947	-0.318604	-0.381836	0.663214	0.288335	-0.562376	0.400929
24274		13.024114	-0.439738	2.293280	-0.042455	-0.308377	0.037257	-0.728516	-0.312012	-0.371094	0.661028	0.289208	-0.565235	0.399888
24275		11.183159	1.157418	2.236414	0.024332	-0.231348	0.005028	-0.728271	-0.316162	-0.353271	0.659261	0.290474	-0.567064	0.399296
24276		9.537693	0.815894	2.073051	-0.022797	-0.188574	0.103120	-0.730469	-0.311279	-0.359375	0.657437	0.290512	-0.569149	0.399309
24277		8.871668	-1.274115	1.790943	-0.044782	-0.147445	0.181473	-0.726318	-0.303711	-0.353760	0.655623	0.289554	-0.571264	0.399969
24278		8.622345	-1.989275	1.707713	0.054640	-0.127232	0.198180	-0.737305	-0.309082	-0.357178	0.653503	0.289182	-0.572774	0.401544
24279		8.783388	-1.007612	1.742694	0.158734	-0.123068	0.180757	-0.729980	-0.304199	-0.350830	0.651128	0.289776	-0.573625	0.403753
24280		9.005222	-0.649655	1.695226	0.189105	-0.130043	0.105838	-0.743896	-0.305664	-0.343994	0.648974	0.291181	-0.574090	0.405545
24281		9.264156	-0.415475	1.830989	0.135581	-0.114911	0.085506	-0.747559	-0.298828	-0.337402	0.647183	0.292246	-0.574670	0.406818
24282		9.984808	-1.146946	1.947895	0.008813	-0.107372	0.120705	-0.746582	-0.299316	-0.342041	0.645701	0.291983	-0.576005	0.407473
24283		10.495477	-1.352487	1.683968	-0.087502	-0.097374	0.055369	-0.748047	-0.294922	-0.340088	0.645008	0.291343	-0.577461	0.406968
24284		9.760571	-1.756168	1.049527	-0.084384	-0.097900	0.018766	-0.733643	-0.293945	-0.338135	0.644476	0.290989	-0.578784	0.406183
24285		9.552824	-2.107184	0.753569	0.031096	-0.124571	0.047513	-0.741699	-0.297607	-0.331787	0.643220	0.291484	-0.579792	0.406382
24286		9.801389	-2.221973	0.916202	0.119618	-0.139120	0.077128	-0.740234	-0.297363	-0.334473	0.641357	0.292586	-0.580589	0.407396
24287		9.783555	-2.113152	1.064044	0.172132	-0.127057	0.052367	-0.748047	-0.296631	-0.331543	0.639541	0.294199	-0.580893	0.408653
24288		9.570137	-1.779366	1.131009	0.223826	-0.107567	-0.009435	-0.753418	-0.293945	-0.324219	0.637971	0.296570	-0.580567	0.409854
24289		9.624182	-1.304879	1.067898	0.227913	-0.082174	-0.047181	-0.754883	-0.298340	-0.317383	0.636725	0.299117	-0.579918	0.410859
24290		9.683534	-1.563719	1.149318	0.184046	-0.046463	-0.067482	-0.751465	-0.302734	-0.318359	0.635988	0.301298	-0.579139	0.411506
24291		9.641807	-1.601513	1.288482	0.144091	-0.008598	-0.069852	-0.751465	-0.307861	-0.315186	0.635707	0.302972	-0.578223	0.411999
24292		9.694287	-1.213779	1.719289	0.084872	0.047691	-0.108761	-0.752686	-0.306152	-0.311768	0.636251	0.304184	-0.577011	0.411965
24293		9.494284	-0.863098	2.237323	-0.039107	0.088458	-0.143639	-0.749512	-0.307373	-0.325195	0.637711	0.304452	-0.576016	0.410901
24294		9.426077	-1.286695	2.140900	-0.121345	0.138607	-0.155215	-0.740967	-0.309326	-0.326416	0.639943	0.303839	-0.574951	0.409373
24295		9.426856	-1.801074	1.438423	-0.013009	0.175975	-0.157351	-0.744629	-0.315430	-0.333496	0.642046	0.303918	-0.573007	0.408747
24296		9.516819	-1.625496	1.134380	0.111704	0.195246	-0.094763	-0.740234	-0.315430	-0.338135	0.643487	0.304453	-0.570495	0.409595
24297		9.549430	-1.526916	1.154882	0.165967	0.200876	-0.078233	-0.741211	-0.323730	-0.324463	0.644678	0.305256	-0.567714	0.410986
24298		9.539086	-1.293043	1.484946	0.115588	0.187884	-0.083843	-0.743896	-0.321777	-0.338623	0.645934	0.305844	-0.565316	0.411882
24299		9.610309	-1.019059	1.625156	0.041005	0.185892	-0.122081	-0.742920	-0.332031	-0.338867	0.647673	0.306052	-0.563155	0.411957
24300		9.679286	-0.911048	1.630219	-0.029026	0.208814	-0.154941	-0.736572	-0.327148	-0.350586	0.650002	0.305841	-0.561024	0.411352
24301		9.743086	-0.847247	1.554230	-0.053845	0.213884	-0.125198	-0.723877	-0.337158	-0.347900	0.652324	0.305135	-0.559077	0.410851
24302		10.138719	-1.182507	1.510081	-0.032600	0.174407	-0.071207	-0.726074	-0.330566	-0.348633	0.654025	0.304466	-0.557512	0.410771
24303		10.633969	-0.952108	1.366401	-0.018736	0.134339	-0.030451	-0.731689	-0.330811	-0.353516	0.655149	0.303822	-0.556407	0.410954
24304		10.989216	-1.069621	1.781571	-0.086646	0.208046	-0.050866	-0.720215	-0.325928	-0.363037	0.657134	0.302382	-0.554979	0.410777
24305		11.124932	-1.058712	2.100957	-0.062023	0.270314	-0.099510	-0.718994	-0.335938	-0.370850	0.659734	0.301115	-0.552697	0.410618
24306		11.384771	-0.762070	2.111908	-0.075935	0.292178	-0.107368	-0.713623	-0.332031	-0.367676	0.662581	0.299692	-0.550234	0.410382
24307		10.785845	-0.999765	2.625263	-0.041745	0.241637	-0.192790	-0.713867	-0.338379	-0.377197	0.665352	0.299408	-0.547732	0.409452
24308		11.353424	-0.958426	2.796106	0.080114	0.171973	-0.331302	-0.706787	-0.343262	-0.382324	0.667893	0.301437	-0.544639	0.407949
24309		11.109203	0.123189	2.471103	0.152149	0.119193	-0.398015	-0.710693	-0.350830	-0.370850	0.670139	0.304764	-0.541341	0.406180
24310		10.373644	0.356261	2.400053	0.150218	0.064976	-0.333722	-0.702881	-0.359375	-0.380371	0.671622	0.307960	-0.538810	0.404683
24311		10.337778	0.182849	2.306205	0.190974	0.015439	-0.315504	-0.698730	-0.362549	-0.375977	0.672551	0.311583	-0.536496	0.403440
24312		10.408358	0.695464	2.089510	0.168302	0.006565	-0.342591	-0.696777	-0.380371	-0.372803	0.673621	0.315231	-0.534276	0.401763
24313		9.953540	0.707864	2.075029	0.135301	0.002076	-0.317445	-0.694336	-0.379150	-0.366943	0.674655	0.318489	-0.532321	0.400050
24314		9.777547	0.387006	2.013114	0.181287	0.011346	-0.221564	-0.691650	-0.377197	-0.371338	0.675055	0.321437	-0.530477	0.399466
24315		9.470491	0.554913	2.044481	0.189696	0.062339	-0.161984	-0.688721	-0.386719	-0.363281	0.675466	0.323759	-0.528401	0.399648
24316		8.971537	0.459349	2.087204	0.137434	0.099298	-0.146031	-0.685303	-0.389404	-0.367920	0.676234	0.325387	-0.526335	0.399753
24317		8.897481	0.389767	2.206676	0.103453	0.107341	-0.126151	-0.683838	-0.388428	-0.365967	0.677105	0.326535	-0.524435	0.399841
24318		9.133098	0.469788	2.362607	0.158077	0.094870	-0.114955	-0.685547	-0.396729	-0.363037	0.677597	0.328130	-0.522435	0.400319
24319		9.063572	0.004393	2.266470	0.258207	0.063525	-0.072799	-0.679443	-0.394775	-0.367432	0.677239	0.330486	-0.520365	0.401680
24320		9.050241	0.082395	2.397066	0.351890	0.108788	-0.035755	-0.678955	-0.401367	-0.363770	0.676623	0.333110	-0.517578	0.404144
24321		8.917285	0.563360	2.511979	0.377920	0.084858	-0.019547	-0.682861	-0.407715	-0.358398	0.675639	0.335983	-0.514911	0.406809
24322		9.124420	0.829897	2.333601	0.345746	0.006693	-0.016294	-0.678223	-0.410400	-0.359863	0.674231	0.338984	-0.513080	0.408965
24323		9.189011	1.085962	2.413186	0.275797	0.031102	0.001570	-0.687012	-0.407959	-0.348633	0.673206	0.341119	-0.511447	0.410919
24324		9.163905	0.794707	2.330764	0.297288	0.027735	0.037145	-0.674316	-0.407715	-0.347900	0.671814	0.343257	-0.509939	0.413284
24325		9.099640	0.870723	2.364713	0.311698	0.056899	0.074003	-0.676758	-0.414551	-0.345703	0.670398	0.345082	-0.508234	0.416152
24326		8.968692	0.745045	2.536674	0.261164	0.069406	0.053614	-0.680664	-0.413574	-0.348633	0.669370	0.346569	-0.506571	0.418593
24327		8.757920	0.710444	2.363607	0.299055	0.009330	-0.030745	-0.672363	-0.409424	-0.333252	0.668232	0.349195	-0.504850	0.420303
24328		8.520451	0.898463	2.332439	0.356126	0.007633	-0.049455	-0.680908	-0.416748	-0.333252	0.666906	0.352432	-0.502784	0.422180
24329		8.576236	0.795452	2.364682	0.406597	0.008516	-0.040255	-0.682861	-0.423096	-0.338867	0.665282	0.356033	-0.500466	0.424469
24330		8.480216	0.674659	2.175764	0.372839	-0.009385	-0.089305	-0.677490	-0.436279	-0.328125	0.663972	0.359714	-0.498222	0.426054
24331		7.903956	0.977620	1.885252	0.343285	-0.070901	-0.114284	-0.684082	-0.426025	-0.318604	0.662521	0.363678	-0.496476	0.426984
24332		7.529011	1.019016	1.929988	0.305980	-0.050011	-0.088014	-0.684082	-0.425537	-0.316895	0.661187	0.367025	-0.494945	0.427963
24333		7.609132	0.904567	2.580638	0.219602	0.008172	-0.073264	-0.681641	-0.435303	-0.314209	0.660546	0.369224	-0.493456	0.428782
24334		8.024920	1.385385	3.194956	0.063784	0.065812	-0.031535	-0.676025	-0.437500	-0.312500	0.660766	0.369591	-0.492462	0.429269
24335		8.263322	2.051342	3.658300	-0.174924	0.058541	-0.014315	-0.672607	-0.441650	-0.322266	0.661967	0.367917	-0.492864	0.428394
24336		7.967824	1.651502	3.478229	-0.413337	0.048119	-0.044019	-0.674072	-0.437012	-0.325684	0.664371	0.364493	-0.494460	0.425753
24337		8.799319	0.527642	2.779919	-0.468432	0.036048	-0.089029	-0.675293	-0.427734	-0.326416	0.667164	0.360945	-0.496232	0.422333
24338		9.591354	-0.401136	2.265524	-0.291339	-0.036903	-0.095297	-0.671387	-0.435059	-0.334473	0.668714	0.359288	-0.497649	0.419618
24339		9.811233	-0.260990	1.792117	-0.052131	-0.088916	-0.062789	-0.672119	-0.430908	-0.328857	0.668701	0.359699	-0.498368	0.418431
24340		9.546337	0.540886	2.005347	0.110005	-0.075229	0.042546	-0.674561	-0.427490	-0.326172	0.667487	0.360737	-0.498606	0.419192
24341		9.427106	0.715970	1.965165	0.236574	-0.106439	0.079361	-0.672363	-0.436768	-0.326904	0.665310	0.362758	-0.498609	0.420902
24342		10.055224	0.612540	2.230781	0.274842	-0.091904	0.112535	-0.677734	-0.438965	-0.326416	0.662876	0.364811	-0.498418	0.423187
24343		9.850833	0.872600	2.618584	0.212848	-0.063736	0.121642	-0.669434	-0.439941	-0.318115	0.660845	0.366138	-0.498358	0.425284
24344		9.280964	0.916320	2.581387	0.174415	-0.034282	0.075430	-0.677734	-0.440918	-0.314697	0.659416	0.367279	-0.498039	0.426888
24345		9.161313	0.661624	2.479582	0.162761	-0.038959	0.041901	-0.687988	-0.432617	-0.312256	0.658179	0.368561	-0.497666	0.428125
24346		9.313171	0.787530	2.395005	0.129360	-0.027836	0.073632	-0.680420	-0.437500	-0.312012	0.656986	0.369304	-0.497536	0.429468
24347		9.000621	0.767384	2.440929	0.103302	0.020146	0.082731	-0.682373	-0.433838	-0.306885	0.656169	0.369517	-0.497184	0.430938
24348		8.687935	0.728980	2.321310	0.129523	0.008308	0.068755	-0.685059	-0.433105	-0.305908	0.655225	0.370098	-0.496724	0.432403
24349		8.614141	0.932875	2.221108	0.126304	0.045961	0.084538	-0.683105	-0.430176	-0.308838	0.654442	0.370349	-0.496044	0.434152
24350		8.401305	0.929739	2.261521	0.120092	0.057656	0.132128	-0.687500	-0.435547	-0.305664	0.653503	0.370182	-0.495522	0.436298
24351		8.493441	0.838827	2.163684	0.101075	0.071082	0.160668	-0.683105	-0.421387	-0.314941	0.652572	0.369617	-0.495118	0.438624
24352		8.638535	0.748248	2.253199	0.096308	0.069510	0.081678	-0.691162	-0.437744	-0.310547	0.652095	0.369488	-0.494394	0.440256
24353		8.407921	1.185751	2.244029	0.086737	0.049959	-0.016451	-0.686035	-0.435547	-0.309814	0.652070	0.370014	-0.493417	0.440946
24354		8.284712	1.330306	2.164336	0.040351	0.023312	-0.057078	-0.688232	-0.440186	-0.312012	0.652322	0.370556	-0.492725	0.440892
24355		8.227641	1.193827	2.047098	-0.116275	0.033814	-0.037771	-0.684570	-0.430908	-0.314697	0.653258	0.369645	-0.492898	0.440078
24356		7.982922	0.620773	1.990824	-0.230057	0.038319	-0.116270	-0.682373	-0.435547	-0.310547	0.655176	0.368252	-0.493301	0.437937
24357		8.667869	0.748350	2.177216	-0.250948	-0.031240	-0.133238	-0.680176	-0.428467	-0.317871	0.656842	0.367180	-0.494301	0.435205
24358		9.577243	0.615082	2.273018	-0.244900	-0.107998	-0.070196	-0.688232	-0.434814	-0.315430	0.657660	0.366171	-0.496187	0.432668
24359		9.557158	0.362667	2.148223	-0.274897	-0.061273	-0.070607	-0.684326	-0.433105	-0.320557	0.658891	0.364671	-0.497840	0.430156
24360		8.783464	0.255816	1.934056	-0.253654	0.029410	-0.151880	-0.678223	-0.434814	-0.324463	0.661024	0.363353	-0.498255	0.427509
24361		9.148737	0.850569	2.235020	-0.133936	0.013319	-0.128271	-0.678955	-0.431152	-0.330078	0.662384	0.362960	-0.498265	0.425722
24362		10.471122	1.067479	2.685121	-0.146232	0.032659	0.041661	-0.678467	-0.435059	-0.332764	0.663015	0.361295	-0.498953	0.425351
24363		9.940910	0.072636	2.422952	-0.208293	0.160343	-0.022128	-0.680908	-0.435059	-0.342529	0.665059	0.358835	-0.498618	0.424634
24364		8.195559	0.248741	2.466249	-0.085368	0.219709	-0.210811	-0.680176	-0.443115	-0.341064	0.667916	0.358250	-0.496285	0.423376
24365		10.331197	2.176343	3.008631	0.048302	-0.053194	0.037370	-0.675293	-0.437256	-0.332275	0.667156	0.358692	-0.496627	0.423798
24366		12.315172	0.643451	3.046365	-0.141610	-0.080485	0.375763	-0.688232	-0.427490	-0.337646	0.665272	0.355593	-0.499714	0.425737
24367		11.113718	-2.017976	2.326942	-0.018967	0.057695	0.151887	-0.684082	-0.428711	-0.340820	0.664885	0.354168	-0.500001	0.427191
24368		9.548426	0.351237	2.341721	0.110246	0.202758	-0.115507	-0.681641	-0.433594	-0.351318	0.666262	0.354708	-0.497201	0.427865
24369		9.456713	2.321388	2.320207	0.031673	0.100726	-0.111710	-0.675049	-0.435303	-0.344727	0.667336	0.355106	-0.495684	0.427620
24370		10.822345	1.771381	2.709061	-0.110549	-0.017970	0.200174	-0.676758	-0.425293	-0.351074	0.666633	0.353024	-0.497300	0.428564
24371		9.930482	-0.792062	2.602529	-0.111985	-0.049738	0.260508	-0.684326	-0.425781	-0.350586	0.665411	0.350713	-0.499453	0.429855
24372		8.843034	-0.723083	2.422125	0.008748	0.023619	0.129300	-0.694092	-0.416992	-0.349365	0.664816	0.349833	-0.499767	0.431127
24373		8.743246	1.054463	2.385072	-0.010010	0.012484	0.039818	-0.684326	-0.427734	-0.351074	0.664702	0.349418	-0.499884	0.431503
24374		9.808377	1.895117	2.431543	-0.067531	-0.085771	0.102188	-0.684814	-0.413086	-0.355957	0.663903	0.348663	-0.501395	0.431590
24375		10.138225	0.482247	2.413738	-0.065150	-0.089429	0.209386	-0.686279	-0.418457	-0.346436	0.662489	0.347264	-0.503392	0.432565
24376		9.257672	-0.507416	2.264813	0.025706	-0.023344	0.147787	-0.690918	-0.415039	-0.350586	0.661424	0.346655	-0.504079	0.433881
24377		8.469764	0.633090	2.250730	0.021083	0.013193	0.084272	-0.696045	-0.415771	-0.352295	0.660954	0.346205	-0.504212	0.434801
24378		9.312656	1.385974	2.358040	-0.058850	-0.048181	0.195674	-0.697510	-0.405762	-0.357422	0.659834	0.344724	-0.505768	0.435869
24379		9.283960	0.253772	2.308954	-0.159439	-0.034848	0.264695	-0.705811	-0.399658	-0.347656	0.658851	0.341895	-0.508056	0.436923
24380		8.701099	-0.429015	2.352221	-0.132647	0.010572	0.261457	-0.702637	-0.402832	-0.357178	0.658036	0.339067	-0.509803	0.438319
24381		8.729736	0.238563	2.654467	-0.156452	0.005411	0.306512	-0.707764	-0.389404	-0.350098	0.657049	0.335768	-0.511904	0.439887
24382		9.094291	-0.126477	2.810336	-0.237289	-0.020210	0.249070	-0.705811	-0.380859	-0.354736	0.656527	0.332318	-0.514409	0.440365
24383		10.174203	-1.123961	3.276128	-0.160397	-0.045667	0.104267	-0.707764	-0.375244	-0.355957	0.656313	0.330562	-0.516090	0.440038
24384		11.760419	-1.009611	3.487984	-0.041344	-0.115751	-0.028032	-0.712402	-0.385498	-0.363281	0.655877	0.331021	-0.517141	0.439108
24385		12.389904	0.731370	2.795046	-0.089321	-0.098040	-0.208417	-0.706055	-0.387695	-0.361084	0.656753	0.332145	-0.517559	0.436449
24386		11.193658	1.706069	2.126740	-0.319486	-0.053306	-0.250952	-0.711426	-0.380859	-0.356445	0.659097	0.331405	-0.518681	0.432126
24387		10.802902	0.489631	2.202095	-0.429407	-0.028775	-0.123362	-0.697754	-0.384766	-0.365479	0.661330	0.328800	-0.520712	0.428244
24388		10.800472	-0.726585	2.561592	-0.401560	0.067764	-0.009942	-0.701416	-0.385254	-0.372070	0.663469	0.325150	-0.522246	0.425847
24389		9.126373	-0.813293	2.362074	-0.330964	0.151329	0.001914	-0.701660	-0.375488	-0.379883	0.665789	0.321555	-0.522748	0.424336
24390		7.989086	-0.482110	2.100766	-0.241869	0.166166	0.005763	-0.709961	-0.379883	-0.378418	0.667809	0.318594	-0.522660	0.423504
24391		8.123587	-0.670218	2.101131	-0.197788	0.106125	-0.013605	-0.701660	-0.375000	-0.382812	0.669351	0.316449	-0.522760	0.422552
24392		8.715653	-0.804211	2.011380	-0.149311	0.051551	-0.070024	-0.696289	-0.367188	-0.383301	0.670640	0.315363	-0.522832	0.421230
24393		8.823872	-0.725851	2.028442	-0.140018	0.018001	-0.157959	-0.696533	-0.378418	-0.383301	0.672125	0.315109	-0.522785	0.419106
24394		9.465645	-0.742054	2.057972	-0.140666	-0.059233	-0.186134	-0.695557	-0.372070	-0.386963	0.673257	0.315433	-0.523277	0.416424
24395		10.187185	-0.750894	2.023093	-0.144647	-0.076984	-0.159843	-0.702148	-0.381836	-0.383789	0.674140	0.315642	-0.524038	0.413872
24396		9.952042	-0.916936	2.110021	-0.130205	-0.051977	-0.163299	-0.698242	-0.371094	-0.378906	0.675143	0.315865	-0.524499	0.411474
24397		9.898930	-1.011746	1.878597	-0.062503	-0.046393	-0.157545	-0.692139	-0.379639	-0.384277	0.675871	0.316600	-0.524583	0.409604
24398		10.065478	-1.020445	1.875086	-0.033719	-0.011412	-0.134861	-0.684570	-0.375488	-0.383301	0.676607	0.317240	-0.524312	0.408240
24399		9.792247	-0.964689	2.084439	-0.007717	0.012070	-0.088594	-0.693359	-0.388428	-0.386719	0.677153	0.317677	-0.523890	0.407534
24400		9.458950	-0.839434	2.187114	-0.005612	0.040398	-0.065791	-0.684814	-0.389404	-0.382812	0.677764	0.317835	-0.523311	0.407139
24401		9.827143	-1.045787	2.166467	0.055225	0.065614	-0.035861	-0.686523	-0.390137	-0.386475	0.678146	0.318185	-0.522325	0.407496
24402		10.124103	-0.883273	2.147463	0.122671	0.097157	0.008909	-0.689697	-0.395508	-0.387939	0.678235	0.318652	-0.520906	0.408798
24403		10.138150	-0.599867	2.399813	0.184613	0.124057	0.070284	-0.687500	-0.384521	-0.384277	0.677935	0.319104	-0.519184	0.411126
24404		10.533431	-0.143332	2.643152	0.202617	0.145629	0.141536	-0.697266	-0.387939	-0.383789	0.677320	0.319138	-0.517465	0.414268
24405		10.438744	-0.177257	2.743371	0.139171	0.180152	0.145856	-0.695557	-0.383789	-0.393066	0.677149	0.318426	-0.515795	0.417168
24406		9.943978	0.071212	2.716392	0.113488	0.198218	0.108980	-0.699463	-0.388184	-0.392334	0.677384	0.317633	-0.513954	0.419657
24407		9.796879	0.181791	3.118860	0.082768	0.169923	0.047457	-0.688232	-0.390869	-0.400391	0.677876	0.317122	-0.512265	0.421310
24408		9.694093	0.164109	3.154651	0.103024	0.106389	-0.025157	-0.690186	-0.386230	-0.396973	0.678269	0.317574	-0.510714	0.422218
24409		10.078951	0.596682	3.216012	0.139260	0.048139	-0.098647	-0.690918	-0.397461	-0.393311	0.678524	0.319114	-0.509174	0.422509
24410		10.751823	0.828773	3.359847	0.102115	-0.001169	-0.155066	-0.683838	-0.392578	-0.397461	0.678910	0.320957	-0.508019	0.421881
24411		10.885243	1.023896	3.462003	0.021164	-0.042586	-0.199143	-0.681885	-0.400146	-0.391602	0.679587	0.322607	-0.507463	0.420200
24412		10.858035	1.027125	3.459386	-0.043233	-0.046914	-0.226663	-0.686523	-0.398926	-0.391357	0.680636	0.323908	-0.507166	0.417853
24413		11.157782	0.711022	3.374486	-0.036815	-0.048460	-0.189178	-0.678711	-0.397217	-0.388428	0.681443	0.325033	-0.507000	0.415861
24414		10.907152	0.801579	3.395926	-0.026798	-0.046465	-0.175936	-0.680908	-0.408936	-0.392578	0.682149	0.326149	-0.506814	0.414052
24415		10.546574	0.900296	3.323822	-0.035240	-0.041616	-0.187561	-0.674561	-0.405273	-0.388916	0.682982	0.327236	-0.506580	0.412103
24416		10.220878	1.070802	3.243048	-0.084497	-0.035344	-0.195697	-0.669189	-0.406250	-0.395264	0.684092	0.327921	-0.506509	0.409798
24417		10.067181	0.999589	2.992845	-0.129792	-0.040010	-0.203723	-0.672607	-0.412842	-0.386963	0.685398	0.328286	-0.506672	0.407113
24418		9.880186	0.626940	2.842223	-0.170419	-0.041706	-0.218909	-0.669678	-0.410400	-0.386230	0.686925	0.328412	-0.506990	0.404031
24419		9.281533	0.415862	2.858553	-0.171100	-0.030540	-0.270344	-0.668213	-0.412354	-0.384521	0.688773	0.328798	-0.506998	0.400545
24420		8.829259	0.172028	2.620181	-0.095092	-0.027200	-0.321665	-0.670166	-0.415527	-0.391846	0.690573	0.330144	-0.506377	0.397109
24421		8.515522	0.289022	2.694946	0.001493	-0.006926	-0.307886	-0.663086	-0.426514	-0.379883	0.692025	0.332128	-0.505152	0.394480
24422		8.258772	0.613733	2.470181	0.061075	-0.027362	-0.312069	-0.658691	-0.433594	-0.388428	0.693107	0.334756	-0.503781	0.392104
24423		8.545517	0.693305	2.318404	0.151252	-0.056731	-0.258837	-0.649902	-0.434082	-0.378906	0.693364	0.337961	-0.502436	0.390624
24424		8.473368	0.668104	2.306824	0.217045	-0.068050	-0.149922	-0.653076	-0.435791	-0.374023	0.692728	0.341106	-0.501322	0.390450
24425		8.013037	0.927242	2.275348	0.152091	-0.046693	-0.113659	-0.655029	-0.446777	-0.364502	0.692315	0.343356	-0.500493	0.390273
24426		7.945030	0.957582	2.266025	0.078290	-0.043476	-0.137567	-0.656250	-0.442871	-0.370605	0.692349	0.345107	-0.499887	0.389444
24427		8.009624	0.766473	2.201119	0.065959	-0.052930	-0.152413	-0.664551	-0.444824	-0.366699	0.692449	0.346882	-0.499361	0.388363
24428		8.225023	0.804121	2.365491	0.096876	-0.045168	-0.126698	-0.651123	-0.447998	-0.361816	0.692329	0.348729	-0.498730	0.387733
24429		8.095500	0.776927	2.351648	0.079381	-0.002871	-0.125973	-0.648682	-0.442871	-0.360840	0.692549	0.350211	-0.497815	0.387181
24430		8.001039	0.824540	2.312894	0.096162	-0.015382	-0.158927	-0.645752	-0.452881	-0.368896	0.692774	0.352099	-0.496783	0.386390
24431		8.229078	1.082244	2.328889	0.117526	-0.031214	-0.136489	-0.648438	-0.455322	-0.352295	0.692703	0.354101	-0.495879	0.385848
24432		8.323559	0.853832	2.480149	0.109925	-0.021485	-0.065598	-0.648682	-0.459717	-0.353271	0.692371	0.355561	-0.495237	0.385926
24433		8.188597	0.770770	2.412995	0.058654	0.009646	-0.054712	-0.640381	-0.466309	-0.362549	0.692409	0.356356	-0.494620	0.385916
24434		8.071091	0.680795	2.477463	0.084496	-0.030763	-0.079383	-0.638184	-0.469727	-0.351562	0.692210	0.357714	-0.494115	0.385665
24435		8.317025	1.030250	2.577821	0.121904	-0.062231	-0.072490	-0.636230	-0.454590	-0.351807	0.691609	0.359509	-0.493727	0.385569
24436		9.097693	1.600921	2.736260	0.092333	-0.027612	-0.009146	-0.643799	-0.459961	-0.343994	0.691050	0.360483	-0.493474	0.385987
24437		9.255712	1.022409	2.808106	0.069462	-0.067515	0.027859	-0.643555	-0.462891	-0.340820	0.690163	0.361228	-0.493839	0.386409
24438		9.149644	0.854298	2.539033	0.156445	-0.226397	-0.002691	-0.651611	-0.467285	-0.346924	0.688047	0.363677	-0.495011	0.386385
24439		9.300977	1.084148	2.090526	0.186726	-0.195527	-0.017399	-0.650391	-0.466309	-0.330566	0.686051	0.366321	-0.495700	0.386554
24440		9.591220	1.635353	2.047100	0.171465	-0.136676	0.046596	-0.650391	-0.463135	-0.325928	0.684172	0.368152	-0.496245	0.387445
24441		9.649340	1.083986	1.865824	0.251083	-0.143263	0.098254	-0.646240	-0.475098	-0.328125	0.681628	0.370369	-0.496695	0.389235
24442		9.818191	1.567930	2.143614	0.259481	-0.118298	0.119702	-0.655518	-0.471191	-0.332031	0.679089	0.372397	-0.496983	0.391364
24443		9.636974	1.935691	2.409106	0.180962	-0.081187	0.113182	-0.655029	-0.468750	-0.325439	0.677171	0.373611	-0.497306	0.393117
24444		9.308912	1.331958	2.559097	0.087287	-0.041788	0.062340	-0.653809	-0.475342	-0.320312	0.676181	0.374153	-0.497517	0.394038
24445		9.244866	1.040725	2.350490	0.072840	-0.025324	-0.019915	-0.662842	-0.477295	-0.314453	0.675765	0.375004	-0.497272	0.394252
24446		9.405761	1.378638	2.364444	0.064433	-0.018020	-0.036384	-0.655518	-0.473633	-0.314941	0.675512	0.375851	-0.496927	0.394312
24447		9.476851	1.537557	2.314894	0.027870	-0.015755	-0.013630	-0.661621	-0.473633	-0.319092	0.675334	0.376237	-0.496852	0.394346
24448		9.200804	1.157238	2.374364	-0.001178	-0.017104	-0.014759	-0.663086	-0.468994	-0.320312	0.675289	0.376390	-0.496926	0.394183
24449		9.180460	1.236953	2.356765	0.008071	-0.011454	-0.027463	-0.665771	-0.464844	-0.317383	0.675298	0.376671	-0.496847	0.393998
24450		9.364938	1.294354	2.348603	-0.029420	-0.012067	-0.010630	-0.660645	-0.465088	-0.312012	0.675395	0.376536	-0.497036	0.393722
24451		9.305704	1.020522	2.259369	-0.043414	0.005027	-0.004398	-0.663086	-0.478516	-0.308594	0.675633	0.376161	-0.497178	0.393493
24452		9.241257	1.031233	2.326399	-0.028408	0.019815	-0.000372	-0.658936	-0.470947	-0.308350	0.675872	0.375816	-0.497138	0.393462
24453		9.377428	1.266497	2.398179	-0.027834	0.039662	0.018744	-0.659912	-0.474854	-0.313965	0.676138	0.375260	-0.497018	0.393689
24454		9.322991	1.284211	2.387971	-0.037319	0.031297	0.038576	-0.660156	-0.469971	-0.319824	0.676300	0.374539	-0.497108	0.393983
24455		9.014177	1.273443	2.364681	-0.029324	0.042128	0.027563	-0.658447	-0.471191	-0.317383	0.676546	0.373899	-0.497017	0.394282
24456		9.172032	1.436689	2.429261	-0.086652	0.109649	0.033953	-0.664795	-0.476074	-0.317139	0.677447	0.372403	-0.496665	0.394595
24457		8.717026	1.122944	2.471460	-0.158211	0.155478	0.000282	-0.656738	-0.465088	-0.325195	0.679126	0.370283	-0.496117	0.394393
24458		8.140442	0.751569	2.091443	-0.074809	0.125610	-0.080920	-0.653564	-0.471436	-0.325684	0.680632	0.369517	-0.495033	0.393877
24459		8.483026	0.594357	1.906979	0.084067	0.103836	-0.071390	-0.655518	-0.470459	-0.331543	0.681220	0.370151	-0.493394	0.394322
24460		8.644964	1.704336	2.446479	0.048469	0.172249	0.017985	-0.652588	-0.469727	-0.336426	0.681951	0.369590	-0.491761	0.395623
24461		8.989352	1.931102	2.617633	-0.116830	0.217230	0.101952	-0.651855	-0.471191	-0.345459	0.683303	0.366877	-0.490946	0.396826
24462		8.718863	0.638347	2.540653	-0.085318	0.127120	0.047698	-0.650635	-0.470703	-0.341309	0.684223	0.365209	-0.490493	0.397338
24463		8.560540	0.606238	2.333078	-0.066769	0.124166	-0.035977	-0.653076	-0.463867	-0.347412	0.685451	0.364229	-0.489586	0.397239
24464		8.161293	1.063032	2.301039	-0.091304	0.144627	-0.064407	-0.643066	-0.471680	-0.353271	0.687053	0.363109	-0.488496	0.396840
24465		8.408570	1.355778	2.253041	-0.096732	0.181789	-0.009351	-0.639160	-0.470215	-0.362305	0.688634	0.361417	-0.487361	0.397039
24466		9.002507	0.602593	2.494863	-0.077644	0.144040	0.058792	-0.649658	-0.460693	-0.364258	0.689560	0.359657	-0.486763	0.397764
24467		9.086404	0.740206	2.689474	-0.128382	0.219142	0.015913	-0.646240	-0.462646	-0.370605	0.691372	0.357348	-0.485573	0.398154
24468		8.101447	1.009662	2.392179	-0.042755	0.183487	-0.123160	-0.639648	-0.462158	-0.366943	0.693274	0.356795	-0.483639	0.397696
24469		8.824072	1.711050	2.428483	0.104189	0.047436	0.006984	-0.637695	-0.464111	-0.369141	0.693044	0.357407	-0.482730	0.398651
24470		10.403396	1.129961	2.696915	0.133612	-0.016306	0.194144	-0.641357	-0.461182	-0.367920	0.691364	0.357458	-0.483061	0.401112
24471		10.449012	0.961720	2.743430	0.086049	-0.021494	0.244229	-0.644531	-0.466064	-0.369629	0.689608	0.356818	-0.483896	0.403692
24472		9.379059	0.632734	2.449904	0.098168	-0.022012	0.167038	-0.642090	-0.457764	-0.372070	0.688181	0.356747	-0.484326	0.405668
24473		8.666207	1.195001	2.464241	0.199024	-0.029944	0.091057	-0.651367	-0.466797	-0.361816	0.686639	0.358038	-0.483974	0.407559
24474		9.640075	1.880968	2.436612	0.207646	-0.032427	0.116398	-0.650879	-0.463379	-0.368408	0.684905	0.359265	-0.483704	0.409713
24475		9.548925	1.861343	2.538158	0.080766	-0.023964	0.149605	-0.653076	-0.448730	-0.360840	0.683622	0.359153	-0.484163	0.411407
24476		9.004076	0.954024	2.643853	0.010321	-0.001028	0.140555	-0.663330	-0.460449	-0.353027	0.682830	0.358380	-0.484745	0.412710
24477		9.719318	1.104462	2.903149	0.011878	-0.057583	0.161296	-0.661133	-0.462891	-0.357666	0.681575	0.357790	-0.485887	0.413951
24478		10.155573	0.945503	2.967611	-0.087425	0.019519	0.160127	-0.661133	-0.455078	-0.361084	0.681244	0.355955	-0.486881	0.414910
24479		9.774860	0.839283	2.879196	-0.115798	0.067279	0.065254	-0.662109	-0.453613	-0.366943	0.681818	0.354205	-0.487192	0.415098
24480		9.320559	1.179551	2.843379	-0.073785	0.015806	-0.006238	-0.658691	-0.446533	-0.372803	0.682265	0.353513	-0.487408	0.414701
24481		10.111320	1.177566	2.812851	-0.012122	-0.039348	0.074623	-0.663818	-0.448975	-0.374756	0.681685	0.353136	-0.488134	0.415121
24482		9.900003	0.474337	2.743507	-0.031537	0.068822	0.082827	-0.661865	-0.448486	-0.362793	0.681808	0.351981	-0.488076	0.415967
24483		9.536774	0.656093	2.830368	0.027032	0.078018	0.008316	-0.664307	-0.449707	-0.369385	0.682109	0.351740	-0.487299	0.416588
24484		9.921647	1.359853	3.115126	0.031313	0.018955	0.123866	-0.669678	-0.441895	-0.374756	0.681431	0.351135	-0.487514	0.417955
24485		10.204171	0.724514	2.976002	-0.036995	0.022833	0.177998	-0.667480	-0.451172	-0.368652	0.680790	0.349596	-0.488289	0.419383
24486		9.922986	0.311878	2.737491	-0.028494	0.077616	0.088741	-0.660400	-0.447266	-0.371338	0.680915	0.348385	-0.488160	0.420337
24487		9.545064	1.045475	3.076188	-0.012306	0.073595	0.046401	-0.669189	-0.442871	-0.374512	0.681169	0.347589	-0.487795	0.421007
24488		10.101201	1.066933	2.985644	-0.037356	0.025233	0.125263	-0.663574	-0.442627	-0.373535	0.680815	0.346355	-0.488315	0.421992
24489		9.746802	0.505115	2.585778	-0.097013	0.074108	0.122464	-0.664062	-0.434814	-0.380127	0.681034	0.344370	-0.488720	0.422795
24490		8.889448	0.445877	2.667321	-0.125215	0.131688	0.058609	-0.666504	-0.430664	-0.383545	0.682059	0.342228	-0.488508	0.423126
24491		8.594305	0.793767	2.852652	-0.109406	0.078188	0.078542	-0.671387	-0.438721	-0.390381	0.682578	0.340382	-0.488751	0.423497
24492		8.848392	0.901072	2.689449	-0.132723	0.039541	0.109080	-0.663574	-0.424072	-0.387207	0.682804	0.338348	-0.489577	0.423810
24493		8.781288	0.477631	2.622052	-0.137603	0.001189	0.113649	-0.678955	-0.427246	-0.384766	0.682780	0.336452	-0.490770	0.423978
24494		9.357688	0.677314	2.877168	-0.116791	-0.043056	0.168557	-0.674561	-0.425537	-0.390137	0.682096	0.334634	-0.492456	0.424561
24495		9.562394	0.636119	3.069845	-0.209585	-0.035452	0.165085	-0.674805	-0.413574	-0.390137	0.681867	0.331997	-0.494553	0.424561
24496		9.353694	0.497472	2.926704	-0.271512	-0.036052	0.096685	-0.676270	-0.413818	-0.392090	0.682242	0.329258	-0.496693	0.423594
24497		9.524627	0.723319	3.102407	-0.287898	-0.070915	0.118231	-0.684570	-0.406250	-0.391602	0.682346	0.326423	-0.499298	0.422556
24498		10.007086	0.013152	3.224269	-0.281755	-0.096742	0.134031	-0.669678	-0.400391	-0.399658	0.682163	0.323678	-0.502146	0.421588
24499		10.014843	-0.239662	3.156196	-0.166131	-0.080206	0.124359	-0.681641	-0.401367	-0.399170	0.681670	0.321879	-0.504200	0.421309
24500		10.459784	0.140241	3.147976	-0.108754	-0.062638	0.137881	-0.676025	-0.396729	-0.393066	0.680979	0.320391	-0.505853	0.421580
24501		10.293870	0.386466	2.824447	-0.174941	-0.053402	0.059114	-0.685547	-0.396240	-0.397217	0.681021	0.318790	-0.507455	0.420800
24502		9.858250	0.221334	2.463839	-0.193085	-0.024631	-0.030993	-0.681885	-0.394531	-0.397705	0.681787	0.317453	-0.508548	0.419249
24503		9.402858	0.277130	2.624654	-0.169137	-0.026636	-0.055489	-0.679443	-0.390869	-0.397949	0.682571	0.316483	-0.509432	0.417629
24504		9.431275	0.072993	2.721303	-0.153874	-0.067477	-0.004608	-0.681152	-0.389404	-0.401123	0.682764	0.315533	-0.510783	0.416380
24505		8.747118	-0.407705	2.633677	-0.147345	-0.028351	-0.005488	-0.684082	-0.387939	-0.401367	0.683185	0.314438	-0.511762	0.415316
24506		8.414105	-0.393736	2.559289	-0.061293	0.005110	-0.031344	-0.681152	-0.392822	-0.406006	0.683611	0.314070	-0.511905	0.414715
24507		8.839789	-0.223964	2.753270	-0.028407	-0.007337	-0.041461	-0.689209	-0.390625	-0.400146	0.683888	0.314107	-0.511945	0.414181
24508		9.534007	-0.156424	2.785216	-0.037303	-0.028105	-0.056145	-0.679932	-0.393555	-0.397461	0.684133	0.314278	-0.512149	0.413395
24509		9.919356	-0.273386	2.869425	-0.086222	0.035657	-0.081584	-0.675537	-0.377197	-0.402100	0.685112	0.313861	-0.511958	0.412326
24510		9.728809	-0.298555	2.899252	-0.127760	0.058108	-0.138478	-0.673096	-0.389893	-0.403564	0.686679	0.313340	-0.511564	0.410600
24511		10.026209	-0.265599	2.635042	-0.147519	0.018491	-0.147217	-0.678223	-0.397461	-0.416504	0.688119	0.312902	-0.511573	0.408507
