// Start Time: Unknown
// Update Rate: 40.0Hz
// Filter Profile: human (46.1)
// Firmware Version: 4.6.0
PacketCounter	SampleTimeFine	Acc_X	Acc_Y	Acc_Z	Gyr_X	Gyr_Y	Gyr_Z	Mag_X	Mag_Y	Mag_Z	Quat_q0	Quat_q1	Quat_q2	Quat_q3
23593		5.488803	-0.318649	8.027066	-0.000601	-0.003598	0.001206	-0.702393	0.364990	-0.204834	0.296556	-0.285993	-0.075375	-0.908064
23594		5.487559	-0.309772	8.028163	-0.001933	-0.004413	0.002818	-0.708496	0.363037	-0.210449	0.296577	-0.286053	-0.075359	-0.908040
23595		5.474278	-0.330847	8.012205	-0.000553	-0.003011	0.000725	-0.696289	0.371582	-0.218506	0.296577	-0.286084	-0.075365	-0.908030
23596		5.488842	-0.297378	8.009730	-0.000647	-0.004187	0.001688	-0.701660	0.362305	-0.203857	0.296590	-0.286136	-0.075367	-0.908009
23597		5.473842	-0.322030	8.012749	-0.000532	-0.004754	0.001047	-0.702637	0.364502	-0.204590	0.296595	-0.286193	-0.075376	-0.907989
23598		5.479579	-0.316680	8.043575	-0.000463	-0.005909	0.000886	-0.700684	0.359619	-0.203125	0.296598	-0.286262	-0.075390	-0.907965
23599		5.473263	-0.315150	8.022292	-0.002159	-0.007383	0.001299	-0.699951	0.364746	-0.206299	0.296598	-0.286352	-0.075389	-0.907937
23600		5.482150	-0.304679	8.024248	-0.002436	-0.006838	0.003064	-0.692383	0.359863	-0.205566	0.296617	-0.286435	-0.075376	-0.907905
23601		5.488474	-0.335477	8.027978	-0.001653	-0.004960	0.001055	-0.704834	0.362061	-0.206299	0.296618	-0.286490	-0.075374	-0.907888
23602		5.475883	-0.319058	8.029327	-0.003688	-0.004762	-0.000535	-0.703369	0.364746	-0.206787	0.296594	-0.286548	-0.075351	-0.907879
23603		5.497203	-0.314176	8.021391	-0.001655	-0.009037	0.002179	-0.698975	0.365479	-0.207764	0.296606	-0.286645	-0.075356	-0.907844
23604		5.479198	-0.333685	8.044540	-0.002892	-0.008676	0.002830	-0.699219	0.364746	-0.209717	0.296621	-0.286743	-0.075345	-0.907809
23605		5.469722	-0.327110	8.043482	-0.004721	-0.011944	0.000761	-0.707275	0.359131	-0.203613	0.296605	-0.286876	-0.075329	-0.907774
23606		5.492109	-0.309518	8.017250	-0.005223	-0.014371	0.001008	-0.695557	0.364258	-0.209961	0.296579	-0.287035	-0.075314	-0.907733
23607		5.489323	-0.331298	8.010760	-0.004283	-0.012444	0.001803	-0.702148	0.354980	-0.206787	0.296581	-0.287163	-0.075301	-0.907693
23608		5.498699	-0.321069	8.012366	-0.003824	-0.006531	0.000915	-0.703125	0.364258	-0.205322	0.296560	-0.287223	-0.075277	-0.907683
23609		5.471394	-0.340418	8.025226	-0.001718	-0.003809	0.001218	-0.695557	0.359863	-0.217041	0.296566	-0.287248	-0.075263	-0.907674
23610		5.493264	-0.311171	8.052259	-0.004600	-0.008439	-0.001001	-0.698730	0.368408	-0.210693	0.296543	-0.287303	-0.075241	-0.907666
23611		5.490532	-0.317528	8.019289	-0.003591	-0.011746	0.000758	-0.696533	0.363037	-0.208008	0.296553	-0.287403	-0.075231	-0.907632
23612		5.484166	-0.331252	8.024474	-0.001920	-0.008526	0.000022	-0.703369	0.363281	-0.198975	0.296548	-0.287466	-0.075235	-0.907613
23613		5.494383	-0.331543	8.034164	0.000210	-0.007548	0.000646	-0.701904	0.370117	-0.209229	0.296540	-0.287538	-0.075255	-0.907592
23614		5.495446	-0.318340	8.015890	0.000232	-0.005214	-0.000158	-0.693604	0.369141	-0.208008	0.296569	-0.287542	-0.075264	-0.907580
23615		5.488978	-0.342622	8.029808	0.000734	-0.002788	-0.000404	-0.700439	0.357178	-0.202148	0.296611	-0.287525	-0.075268	-0.907571
23616		5.496017	-0.319867	8.024434	0.001285	-0.003853	-0.000007	-0.696777	0.371582	-0.205566	0.296574	-0.287541	-0.075293	-0.907576
23617		5.487230	-0.321493	8.022687	0.000689	-0.003377	0.000078	-0.699463	0.353516	-0.204346	0.296635	-0.287541	-0.075289	-0.907557
23618		5.490334	-0.330756	8.020275	0.000852	-0.007436	0.000081	-0.702637	0.358887	-0.204346	0.296566	-0.287585	-0.075333	-0.907562
23619		5.468435	-0.315403	8.020326	-0.000157	-0.004129	-0.001678	-0.701172	0.365234	-0.205322	0.296505	-0.287595	-0.075354	-0.907577
23620		5.495127	-0.337992	8.007787	0.000094	-0.002902	0.000163	-0.708008	0.367676	-0.208740	0.296519	-0.287585	-0.075353	-0.907575
23621		5.490927	-0.320889	8.020181	0.001400	-0.004421	-0.000648	-0.702148	0.360596	-0.209229	0.296531	-0.287567	-0.075383	-0.907575
23622		5.490576	-0.322372	8.029364	0.001352	-0.000929	-0.001293	-0.694092	0.364746	-0.214355	0.296505	-0.287502	-0.075410	-0.907602
23623		5.483472	-0.320243	8.008616	0.000074	-0.005238	0.000968	-0.694336	0.356689	-0.205566	0.296586	-0.287452	-0.075420	-0.907590
23624		5.483947	-0.335510	8.034774	-0.001414	-0.006103	-0.000220	-0.703125	0.362549	-0.207031	0.296533	-0.287486	-0.075426	-0.907596
23625		5.475307	-0.324411	8.015353	-0.001483	-0.004947	-0.000060	-0.700684	0.359619	-0.212158	0.296511	-0.287496	-0.075427	-0.907600
23626		5.491816	-0.315441	8.037718	-0.001388	-0.007850	0.000103	-0.703125	0.354492	-0.209961	0.296486	-0.287485	-0.075452	-0.907610
23627		5.468243	-0.328934	8.021334	-0.002549	-0.012729	0.001725	-0.694580	0.366211	-0.206055	0.296382	-0.287552	-0.075492	-0.907619
23628		5.506554	-0.335236	7.982028	-0.002279	-0.009193	-0.001168	-0.707031	0.357422	-0.214600	0.296447	-0.287619	-0.075478	-0.907578
23629		5.492898	-0.335413	8.019646	-0.000841	-0.004835	-0.000626	-0.700928	0.370605	-0.213867	0.296357	-0.287538	-0.075529	-0.907628
23630		5.492494	-0.324128	8.011285	-0.000341	-0.002406	-0.000875	-0.703369	0.369141	-0.209229	0.296503	-0.287445	-0.075526	-0.907611
23631		5.483421	-0.325962	8.009742	-0.000937	-0.001931	-0.000790	-0.705322	0.359375	-0.205811	0.296588	-0.287404	-0.075512	-0.907597
23632		5.492962	-0.339188	8.037475	0.000762	-0.004537	-0.000080	-0.699951	0.362061	-0.200928	0.296497	-0.287425	-0.075547	-0.907617
23633		5.502339	-0.312750	8.012601	0.000814	-0.008031	0.000567	-0.699219	0.361572	-0.219238	0.296470	-0.287546	-0.075562	-0.907587
23634		5.487539	-0.323927	7.997988	-0.000403	-0.005333	0.000414	-0.703613	0.366211	-0.212646	0.296537	-0.287393	-0.075607	-0.907609
23635		5.499336	-0.333208	8.006307	0.002070	-0.006057	-0.000891	-0.703613	0.357666	-0.201660	0.296608	-0.287340	-0.075662	-0.907598
23636		5.504752	-0.314042	8.019905	0.001744	-0.002017	0.000227	-0.697754	0.368164	-0.211182	0.296471	-0.287392	-0.075691	-0.907624
23637		5.489768	-0.322806	7.996504	0.002473	-0.000724	-0.001305	-0.703125	0.368896	-0.200195	0.296633	-0.287289	-0.075709	-0.907602
23638		5.487348	-0.327744	8.025016	0.003069	-0.001200	-0.001390	-0.702148	0.348389	-0.213623	0.296700	-0.287365	-0.075710	-0.907556
23639		5.504657	-0.314406	8.028970	-0.000133	-0.001769	0.001448	-0.702881	0.361572	-0.213379	0.296449	-0.287230	-0.075790	-0.907674
23640		5.481125	-0.323552	7.994716	0.001744	-0.002017	0.000228	-0.703369	0.363770	-0.213623	0.296467	-0.287112	-0.075845	-0.907701
23641		5.499951	-0.334767	8.023858	0.001585	-0.002039	0.001352	-0.701660	0.363281	-0.201416	0.296540	-0.286998	-0.075886	-0.907710
23642		5.486649	-0.317643	8.025822	0.000596	-0.000476	-0.000085	-0.700439	0.356689	-0.203613	0.296517	-0.287067	-0.075867	-0.907697
23643		5.478215	-0.330420	8.032508	0.002769	0.001094	0.000051	-0.704834	0.355957	-0.210205	0.296387	-0.287060	-0.075904	-0.907739
23644		5.488324	-0.312919	8.006826	0.003873	-0.001038	0.000847	-0.696533	0.375000	-0.201660	0.296255	-0.286971	-0.075998	-0.907802
23645		5.482991	-0.310495	8.046571	0.002314	-0.000746	-0.000181	-0.702881	0.361328	-0.209473	0.296561	-0.287044	-0.075920	-0.907686
23646		5.490724	-0.321301	8.004925	0.002270	-0.001336	0.000302	-0.708984	0.362793	-0.201660	0.296548	-0.286978	-0.075966	-0.907707
23647		5.486914	-0.315236	8.025736	0.003136	0.001753	0.001249	-0.695801	0.360352	-0.211426	0.296460	-0.287039	-0.075984	-0.907715
23648		5.457447	-0.335441	8.049222	0.001051	0.001363	0.000147	-0.695801	0.366699	-0.197754	0.296525	-0.286887	-0.076003	-0.907740
23649		5.480615	-0.301528	8.057495	0.000975	-0.008012	-0.000552	-0.701416	0.360840	-0.212402	0.296613	-0.287108	-0.075960	-0.907645
23650		5.494396	-0.329860	8.002147	-0.001682	-0.005562	0.001553	-0.693848	0.360840	-0.213379	0.296624	-0.287039	-0.075985	-0.907662
23651		5.480810	-0.314926	8.013238	0.000737	-0.002792	-0.000401	-0.696777	0.361328	-0.207520	0.296726	-0.286882	-0.076018	-0.907675
23652		5.479583	-0.318657	8.031973	-0.000017	-0.002337	0.000808	-0.701904	0.370850	-0.215088	0.296765	-0.286852	-0.076015	-0.907672
23653		5.477240	-0.311402	8.042813	-0.001183	-0.003133	0.001302	-0.703857	0.362061	-0.208008	0.297047	-0.286725	-0.075990	-0.907622
23654		5.488499	-0.308189	8.033881	-0.002163	-0.005655	0.000997	-0.697266	0.365967	-0.207275	0.297006	-0.286761	-0.075994	-0.907623
23655		5.484091	-0.316174	8.010944	-0.002021	-0.007971	0.000681	-0.702393	0.357178	-0.217285	0.297139	-0.286819	-0.075964	-0.907564
23656		5.467672	-0.331520	8.015343	-0.001451	-0.006700	0.000272	-0.698486	0.358398	-0.207275	0.297029	-0.286662	-0.076044	-0.907643
23657		5.485165	-0.320390	8.028093	0.001870	-0.006673	0.000720	-0.700684	0.364746	-0.207764	0.296951	-0.286684	-0.076099	-0.907657
23658		5.486897	-0.318599	8.017952	-0.001734	-0.002068	0.000905	-0.702637	0.359375	-0.212646	0.297029	-0.286676	-0.076068	-0.907636
23659		5.474130	-0.314922	8.037161	0.000738	-0.002793	-0.000401	-0.703613	0.364990	-0.205078	0.296957	-0.286565	-0.076131	-0.907690
23660		5.474759	-0.314953	8.036732	-0.000103	-0.003518	0.001774	-0.695068	0.362305	-0.207520	0.296997	-0.286638	-0.076116	-0.907655
23661		5.468836	-0.324281	8.023800	0.001773	-0.003767	0.000553	-0.706543	0.368164	-0.204346	0.297083	-0.286615	-0.076128	-0.907633
23662		5.490360	-0.316702	8.006627	0.000651	-0.003973	0.000565	-0.703857	0.365967	-0.205078	0.297160	-0.286721	-0.076116	-0.907575
23663		5.470274	-0.323976	8.022831	0.001220	-0.002701	0.000155	-0.703857	0.364258	-0.212891	0.297212	-0.286777	-0.076116	-0.907541
23664		5.494497	-0.301475	8.039009	0.000580	-0.002815	0.000723	-0.703125	0.365723	-0.204590	0.297274	-0.286672	-0.076150	-0.907551
23665		5.452269	-0.327323	8.019712	0.001746	-0.002019	0.000228	-0.700195	0.362061	-0.204590	0.297327	-0.286726	-0.076151	-0.907516
23666		5.480543	-0.323457	8.032515	0.001773	-0.003768	0.000554	-0.698730	0.365479	-0.210938	0.297312	-0.286780	-0.076171	-0.907502
23667		5.462044	-0.313992	8.012110	-0.002555	-0.004569	-0.000521	-0.695557	0.360352	-0.213623	0.297422	-0.286726	-0.076145	-0.907486
23668		5.480491	-0.314505	8.032841	-0.000967	-0.006611	0.000832	-0.706055	0.361328	-0.214111	0.297454	-0.286614	-0.076172	-0.907508
23669		5.482389	-0.299959	8.004950	-0.002728	-0.006931	0.001413	-0.700684	0.360352	-0.211670	0.297404	-0.286549	-0.076213	-0.907542
23670		5.486034	-0.336225	8.037360	0.000381	-0.003428	0.002332	-0.692871	0.363281	-0.205322	0.297395	-0.286462	-0.076249	-0.907569
23671		5.468718	-0.325092	8.007178	-0.001420	-0.008453	0.000603	-0.702881	0.356934	-0.206055	0.297490	-0.286545	-0.076218	-0.907514
23672		5.488176	-0.310651	8.000629	-0.002130	-0.007408	0.001329	-0.703857	0.363281	-0.209717	0.297287	-0.286630	-0.076250	-0.907551
23673		5.481756	-0.322321	7.996975	-0.000583	-0.003612	0.001221	-0.702148	0.364258	-0.215332	0.297300	-0.286604	-0.076266	-0.907554
23674		5.478230	-0.316710	8.017626	0.000611	0.001863	-0.000895	-0.697021	0.367432	-0.207031	0.297389	-0.286390	-0.076294	-0.907590
23675		5.453639	-0.318280	8.055193	0.001561	-0.000293	0.001026	-0.708984	0.368652	-0.213379	0.297590	-0.286361	-0.076262	-0.907536
23676		5.465072	-0.312733	8.037158	-0.001093	-0.001955	0.000339	-0.703369	0.364990	-0.204590	0.297707	-0.286282	-0.076270	-0.907522
23677		5.469685	-0.318595	8.015754	-0.000851	-0.007181	0.000193	-0.701172	0.364258	-0.212402	0.297720	-0.286411	-0.076269	-0.907477
23678		5.482512	-0.326289	8.014380	0.000200	-0.005817	0.000337	-0.702881	0.366943	-0.205322	0.297785	-0.286349	-0.076299	-0.907473
23679		5.482638	-0.328051	8.023266	0.001293	-0.003862	-0.000002	-0.700928	0.360352	-0.208008	0.297870	-0.286417	-0.076300	-0.907423
23680		5.467364	-0.288262	8.009323	0.001590	-0.002042	0.001352	-0.697510	0.366455	-0.210205	0.297822	-0.286388	-0.076336	-0.907445
23681		5.478815	-0.310834	8.035486	-0.000340	-0.002410	-0.000870	-0.705566	0.361816	-0.212158	0.297955	-0.286324	-0.076315	-0.907424
23682		5.476677	-0.339043	8.019332	0.000426	-0.002839	0.001849	-0.697266	0.365967	-0.216553	0.297927	-0.286250	-0.076364	-0.907452
23683		5.480854	-0.309062	8.025120	0.000654	-0.003976	0.000568	-0.706055	0.357910	-0.213867	0.298096	-0.286079	-0.076379	-0.907449
23684		5.470372	-0.314844	8.042515	-0.001660	-0.003229	0.000752	-0.699707	0.365479	-0.211182	0.297941	-0.285984	-0.076439	-0.907525
23685		5.470003	-0.303890	8.034100	-0.000509	-0.004773	0.001065	-0.700684	0.365967	-0.208496	0.298048	-0.285949	-0.076436	-0.907501
23686		5.464670	-0.326797	8.038372	-0.001191	-0.005478	0.002118	-0.707520	0.354248	-0.213867	0.298152	-0.285982	-0.076416	-0.907458
23687		5.476920	-0.321913	8.019729	-0.002908	-0.005207	0.002218	-0.697754	0.356689	-0.208984	0.297899	-0.285918	-0.076491	-0.907555
23688		5.488392	-0.318771	8.010592	-0.000920	-0.006025	0.000353	-0.707275	0.361816	-0.213135	0.297765	-0.285917	-0.076525	-0.907596
23689		5.474821	-0.318917	8.048379	0.000600	-0.006909	0.001862	-0.703613	0.358154	-0.209229	0.297731	-0.285889	-0.076596	-0.907611
23690		5.480562	-0.322906	8.017200	-0.001516	-0.005549	0.000439	-0.698486	0.362061	-0.212158	0.297591	-0.285906	-0.076635	-0.907648
23691		5.470446	-0.328635	8.034368	0.000727	-0.005138	0.000411	-0.692627	0.368652	-0.215088	0.297641	-0.285842	-0.076670	-0.907649
23692		5.482644	-0.322944	8.015775	0.001210	-0.005046	0.000967	-0.693359	0.365967	-0.212158	0.297955	-0.285711	-0.076662	-0.907587
23693		5.469791	-0.320918	8.044129	-0.000166	-0.006482	-0.000855	-0.701172	0.360596	-0.205322	0.298132	-0.285657	-0.076657	-0.907547
23694		5.476104	-0.337781	8.030198	-0.000135	-0.008233	-0.000528	-0.702637	0.363281	-0.206299	0.298034	-0.285775	-0.076685	-0.907539
23695		5.484978	-0.326596	8.032145	0.000090	-0.005253	0.000982	-0.707031	0.364258	-0.211670	0.298027	-0.285848	-0.076694	-0.907518
23696		5.463582	-0.309586	8.023050	-0.000381	-0.003003	-0.000384	-0.704590	0.361816	-0.212402	0.298024	-0.285811	-0.076726	-0.907528
23697		5.488310	-0.335926	8.029550	0.001748	-0.002022	0.000227	-0.702393	0.365723	-0.213867	0.298002	-0.285729	-0.076782	-0.907556
23698		5.459159	-0.329972	8.017752	0.000502	-0.004001	0.001694	-0.699951	0.367920	-0.213867	0.298121	-0.285652	-0.076802	-0.907540
23699		5.485745	-0.317096	8.031949	-0.001275	-0.004347	-0.001651	-0.691895	0.363281	-0.209961	0.298268	-0.285579	-0.076794	-0.907515
23700		5.479776	-0.326444	8.019033	0.000103	-0.002911	0.000171	-0.706787	0.368652	-0.211182	0.298366	-0.285522	-0.076771	-0.907502
23701		5.475510	-0.309303	8.031590	0.001862	-0.002592	-0.000414	-0.708740	0.362793	-0.213623	0.298487	-0.285497	-0.076803	-0.907468
23702		5.463675	-0.338842	8.014371	0.002273	-0.001340	0.000298	-0.701172	0.362061	-0.211426	0.298467	-0.285411	-0.076878	-0.907496
23703		5.484361	-0.310439	8.051232	0.001893	-0.004343	-0.000086	-0.700928	0.359131	-0.208252	0.298462	-0.285374	-0.076925	-0.907505
23704		5.477970	-0.306064	8.020976	0.002984	-0.002386	-0.000428	-0.699463	0.365967	-0.212646	0.298372	-0.285362	-0.076982	-0.907533
23705		5.479595	-0.316871	8.028550	0.001749	-0.002023	0.000227	-0.695801	0.361572	-0.206055	0.298493	-0.285281	-0.076995	-0.907518
23706		5.471625	-0.329550	8.034999	0.000979	-0.001594	-0.002491	-0.697998	0.368896	-0.211182	0.298461	-0.285293	-0.076994	-0.907525
23707		5.458648	-0.312229	8.036844	0.001625	-0.003796	0.001680	-0.694336	0.359375	-0.211670	0.298672	-0.285263	-0.076983	-0.907466
23708		5.473272	-0.314110	8.007244	0.000586	-0.002820	0.000727	-0.701416	0.360352	-0.206787	0.298647	-0.285188	-0.076992	-0.907496
23709		5.481407	-0.302712	8.009693	0.001338	-0.003276	-0.000483	-0.701172	0.360596	-0.205566	0.298564	-0.285227	-0.077023	-0.907509
23710		5.459712	-0.313703	8.045132	0.000587	-0.002820	0.000727	-0.697754	0.362549	-0.210205	0.298496	-0.285284	-0.077033	-0.907512
23711		5.472345	-0.306096	8.017210	0.001297	-0.003867	0.000001	-0.711426	0.366699	-0.210449	0.298524	-0.285261	-0.077052	-0.907509
23712		5.475031	-0.315479	8.015054	-0.000535	-0.003026	0.000743	-0.701416	0.366455	-0.217285	0.298555	-0.285285	-0.077075	-0.907489
23713		5.452748	-0.313336	8.033241	0.001832	-0.000841	-0.000741	-0.697998	0.364990	-0.220703	0.298679	-0.285125	-0.077108	-0.907496
23714		5.472045	-0.309576	8.035413	0.000360	-0.001681	0.002008	-0.700684	0.359863	-0.206787	0.298828	-0.284917	-0.077122	-0.907511
23715		5.453695	-0.313279	8.032600	-0.000235	-0.005326	-0.000694	-0.698242	0.368896	-0.213379	0.298731	-0.284986	-0.077142	-0.907519
23716		5.480731	-0.300494	8.046464	-0.001479	-0.007305	0.000775	-0.695557	0.355225	-0.209717	0.298912	-0.284981	-0.077121	-0.907463
23717		5.478142	-0.317570	8.021915	-0.000275	-0.005918	-0.000209	-0.699951	0.364746	-0.210693	0.298746	-0.284984	-0.077150	-0.907515
23718		5.485828	-0.308399	8.033650	-0.001058	-0.003710	0.000673	-0.698730	0.360840	-0.210205	0.298807	-0.284979	-0.077138	-0.907497
23719		5.455100	-0.306456	8.040952	0.000588	-0.002821	0.000728	-0.694580	0.365723	-0.209717	0.298785	-0.284956	-0.077153	-0.907511
23720		5.478813	-0.321510	8.039447	0.001298	-0.003868	0.000002	-0.704102	0.364502	-0.211670	0.298904	-0.284943	-0.077146	-0.907476
23721		5.461568	-0.323338	8.026892	-0.001550	-0.006146	0.000933	-0.703125	0.359863	-0.214600	0.298931	-0.284967	-0.077157	-0.907459
23722		5.452038	-0.314371	8.017045	-0.002630	-0.005761	0.000465	-0.703857	0.361816	-0.202148	0.298858	-0.284931	-0.077179	-0.907492
23723		5.483948	-0.318950	8.017892	-0.000704	-0.007737	0.003497	-0.699219	0.358154	-0.211670	0.298805	-0.285118	-0.077174	-0.907451
23724		5.466191	-0.322950	8.014680	-0.000387	-0.005350	0.000433	-0.701416	0.364014	-0.210449	0.298719	-0.285098	-0.077206	-0.907483
23725		5.471748	-0.304174	8.028210	0.000743	-0.002800	-0.000397	-0.695068	0.359375	-0.208008	0.298744	-0.285080	-0.077222	-0.907479
23726		5.462127	-0.307763	8.036130	-0.000306	-0.004167	-0.000536	-0.701904	0.364990	-0.209717	0.298687	-0.285092	-0.077222	-0.907494
23727		5.476642	-0.324859	8.033214	0.000057	-0.005850	0.001473	-0.706055	0.362793	-0.214600	0.298742	-0.285128	-0.077229	-0.907464
23728		5.457519	-0.317360	8.022279	-0.000870	-0.005443	-0.000120	-0.697998	0.368652	-0.210693	0.298725	-0.285095	-0.077270	-0.907477
23729		5.455956	-0.310384	8.032667	-0.004757	-0.006744	-0.000140	-0.701660	0.363770	-0.211914	0.298856	-0.285136	-0.077207	-0.907426
23730		5.478395	-0.317031	8.032290	-0.003676	-0.007131	0.000329	-0.698730	0.371338	-0.205078	0.298868	-0.285161	-0.077193	-0.907415
23731		5.480572	-0.315791	8.021770	-0.001586	-0.006741	0.001421	-0.693604	0.358398	-0.210938	0.299047	-0.285281	-0.077136	-0.907323
23732		5.490949	-0.329494	8.049011	-0.001506	-0.005558	0.000452	-0.700195	0.364746	-0.216553	0.298987	-0.285260	-0.077133	-0.907350
23733		5.470767	-0.310799	8.030133	-0.000835	-0.007198	0.000211	-0.702637	0.361084	-0.212158	0.299057	-0.285200	-0.077160	-0.907343
23734		5.473328	-0.322528	8.037044	-0.002666	-0.006357	0.000955	-0.695068	0.360596	-0.205078	0.299012	-0.285207	-0.077168	-0.907356
23735		5.477634	-0.330498	8.024735	-0.000801	-0.008953	0.000541	-0.700195	0.366211	-0.202637	0.298965	-0.285318	-0.077163	-0.907336
23736		5.475924	-0.310106	8.017556	-0.000576	-0.005968	0.002046	-0.697021	0.360352	-0.206055	0.299018	-0.285452	-0.077132	-0.907279
23737		5.455020	-0.321454	8.052598	0.000772	-0.006902	0.000749	-0.701660	0.364502	-0.213623	0.298969	-0.285520	-0.077148	-0.907273
23738		5.483709	-0.291739	8.029568	-0.002331	-0.010415	-0.000148	-0.697754	0.371826	-0.215088	0.298999	-0.285545	-0.077169	-0.907254
23739		5.487253	-0.337195	7.999741	-0.000535	-0.005377	0.001562	-0.696533	0.366943	-0.201660	0.299245	-0.285486	-0.077151	-0.907192
23740		5.486098	-0.340856	8.018571	0.001352	0.001413	-0.002114	-0.694092	0.365234	-0.214844	0.299299	-0.285524	-0.077117	-0.907166
23741		5.475537	-0.308318	8.054233	0.001836	0.001505	-0.001560	-0.690186	0.358887	-0.200439	0.299393	-0.285361	-0.077123	-0.907185
23742		5.466815	-0.307966	8.043541	0.000034	-0.001754	0.000330	-0.703125	0.357910	-0.210449	0.299312	-0.285432	-0.077080	-0.907193
23743		5.481779	-0.322955	8.031265	0.001376	-0.005035	-0.000152	-0.694824	0.362549	-0.207031	0.299178	-0.285426	-0.077139	-0.907234
23744		5.484283	-0.318843	8.011527	0.001415	-0.004443	-0.000637	-0.699707	0.366699	-0.209473	0.299183	-0.285445	-0.077148	-0.907226
23745		5.472122	-0.314753	8.030589	0.000779	-0.004557	-0.000065	-0.701904	0.362305	-0.209717	0.299263	-0.285452	-0.077157	-0.907196
23746		5.474151	-0.325712	8.037897	0.002908	-0.003575	0.000539	-0.705566	0.362061	-0.205078	0.299248	-0.285438	-0.077205	-0.907202
23747		5.473442	-0.313778	8.029727	0.002097	-0.001390	-0.002510	-0.706299	0.367920	-0.210938	0.299146	-0.285474	-0.077241	-0.907221
23748		5.486093	-0.319050	8.019376	0.001116	-0.002141	0.000798	-0.700928	0.367920	-0.208008	0.299227	-0.285454	-0.077258	-0.907199
23749		5.461619	-0.294413	8.021844	0.000554	-0.003417	0.001215	-0.697266	0.363281	-0.213135	0.299325	-0.285477	-0.077248	-0.907160
23750		5.466043	-0.328225	8.044876	0.001748	-0.004374	0.001043	-0.700684	0.364258	-0.212158	0.299377	-0.285419	-0.077277	-0.907159
23751		5.464522	-0.305559	8.028553	-0.000341	-0.004764	-0.000046	-0.705322	0.359619	-0.212646	0.299403	-0.285397	-0.077291	-0.907156
23752		5.476824	-0.313093	8.027447	0.002160	-0.003120	0.001751	-0.701904	0.357178	-0.203857	0.299346	-0.285349	-0.077352	-0.907185
23753		5.467053	-0.316737	8.035517	0.000480	-0.002255	0.001370	-0.693115	0.369873	-0.209717	0.299205	-0.285403	-0.077360	-0.907214
23754		5.475121	-0.305669	8.037977	-0.000528	-0.003032	0.000749	-0.708496	0.362793	-0.214844	0.299384	-0.285385	-0.077316	-0.907164
23755		5.467649	-0.318853	8.044132	-0.000228	-0.005335	-0.000685	-0.693359	0.356689	-0.212402	0.299347	-0.285353	-0.077370	-0.907182
23756		5.478257	-0.317089	8.044519	-0.000379	-0.005357	0.000441	-0.699707	0.365967	-0.212402	0.299275	-0.285307	-0.077390	-0.907218
23757		5.461598	-0.317029	8.022577	0.000555	-0.003419	0.001216	-0.697754	0.363281	-0.217285	0.299362	-0.285268	-0.077396	-0.907201
23758		5.470166	-0.303894	8.015670	0.001008	0.000776	0.000621	-0.701660	0.367432	-0.210938	0.299433	-0.285107	-0.077414	-0.907227
23759		5.466874	-0.313381	8.063067	-0.000902	-0.006042	0.000373	-0.700928	0.362549	-0.218506	0.299508	-0.285133	-0.077413	-0.907194
23760		5.464965	-0.315528	8.011236	-0.002288	-0.012177	0.000194	-0.706055	0.359619	-0.212646	0.299517	-0.285127	-0.077456	-0.907190
23761		5.486092	-0.312429	8.012035	-0.001540	-0.008506	0.001764	-0.694336	0.361084	-0.211182	0.299437	-0.285161	-0.077491	-0.907202
23762		5.478241	-0.327956	8.027473	-0.003586	-0.003607	-0.001444	-0.697998	0.368164	-0.208252	0.299407	-0.285135	-0.077458	-0.907223
23763		5.475310	-0.307349	8.021132	0.001644	0.000891	0.000048	-0.702881	0.362549	-0.212402	0.299516	-0.285097	-0.077442	-0.907200
23764		5.458151	-0.335481	8.044014	-0.000677	-0.003055	0.001876	-0.689941	0.360840	-0.211182	0.299518	-0.285067	-0.077448	-0.907209
23765		5.457754	-0.324253	8.035599	0.000410	-0.005223	-0.001256	-0.698486	0.353760	-0.208984	0.299520	-0.285036	-0.077456	-0.907217
23766		5.476620	-0.309359	8.029270	-0.001459	-0.004973	-0.000024	-0.702881	0.367188	-0.207764	0.299324	-0.285050	-0.077464	-0.907277
23767		5.459163	-0.326240	8.043677	0.000819	-0.006317	0.000269	-0.705811	0.362061	-0.208740	0.299368	-0.285115	-0.077474	-0.907241
23768		5.461824	-0.322550	8.023784	-0.000042	-0.005291	0.002122	-0.707275	0.362305	-0.210693	0.299323	-0.285161	-0.077487	-0.907240
23769		5.481485	-0.305686	8.007865	0.001978	-0.005519	-0.000235	-0.699463	0.362061	-0.211426	0.299267	-0.285178	-0.077540	-0.907249
23770		5.470515	-0.312909	8.034871	0.001566	-0.002644	0.001838	-0.701172	0.358154	-0.205078	0.299288	-0.285137	-0.077560	-0.907253
23771		5.459561	-0.305378	8.035086	-0.000525	-0.003034	0.000751	-0.705811	0.362549	-0.207031	0.299166	-0.285184	-0.077550	-0.907280
23772		5.453544	-0.314549	8.022198	0.002502	-0.004835	-0.000168	-0.698486	0.358643	-0.221191	0.299101	-0.285233	-0.077586	-0.907283
23773		5.472103	-0.314591	8.042842	-0.001458	-0.004975	-0.000022	-0.698730	0.366699	-0.210938	0.299116	-0.285100	-0.077635	-0.907315
23774		5.464294	-0.314687	8.031515	-0.000337	-0.004769	-0.000041	-0.702637	0.370361	-0.210205	0.299189	-0.285101	-0.077630	-0.907291
23775		5.474882	-0.313300	8.031881	-0.002767	-0.005796	0.001610	-0.697266	0.365967	-0.211426	0.299298	-0.285149	-0.077587	-0.907244
23776		5.478742	-0.321191	8.019833	0.001193	-0.005657	0.001464	-0.698975	0.365723	-0.214600	0.299389	-0.285144	-0.077599	-0.907214
23777		5.474168	-0.306535	8.041742	-0.003848	-0.003060	0.000326	-0.702148	0.367920	-0.209229	0.299455	-0.285094	-0.077563	-0.907211
23778		5.475769	-0.305422	8.031574	-0.001795	-0.005613	0.002717	-0.695557	0.360596	-0.211182	0.299537	-0.285143	-0.077533	-0.907171
23779		5.462412	-0.326459	8.015704	-0.002390	-0.004567	-0.001612	-0.704102	0.368652	-0.210938	0.299492	-0.285128	-0.077521	-0.907192
23780		5.457823	-0.311802	8.037634	-0.001681	-0.003835	0.001259	-0.700928	0.357666	-0.214355	0.299569	-0.285139	-0.077499	-0.907165
23781		5.469690	-0.321637	8.045817	-0.000336	-0.007121	0.000778	-0.698975	0.366943	-0.211914	0.299495	-0.285119	-0.077539	-0.907192
23782		5.454037	-0.321901	8.023188	-0.002912	-0.012305	0.000780	-0.700928	0.361084	-0.211426	0.299559	-0.285205	-0.077535	-0.907144
23783		5.486819	-0.326314	8.023230	-0.001155	-0.009634	-0.000632	-0.703857	0.362061	-0.216553	0.299505	-0.285253	-0.077562	-0.907145
23784		5.477337	-0.316816	8.013413	0.001196	-0.003309	0.000645	-0.699463	0.362061	-0.208252	0.299512	-0.285170	-0.077608	-0.907164
23785		5.474360	-0.311012	8.033923	-0.000261	-0.001234	-0.001832	-0.702148	0.358398	-0.215332	0.299463	-0.285153	-0.077601	-0.907187
23786		5.456332	-0.327776	8.048789	0.000524	-0.004017	0.001705	-0.696289	0.361084	-0.211426	0.299423	-0.285089	-0.077638	-0.907217
23787		5.467177	-0.326163	8.048977	-0.001266	-0.009065	0.000009	-0.695557	0.368652	-0.209717	0.299407	-0.285123	-0.077650	-0.907211
23788		5.478089	-0.311288	8.031370	-0.001489	-0.009706	-0.002308	-0.708008	0.364258	-0.210449	0.299482	-0.285190	-0.077646	-0.907165
23789		5.470365	-0.313153	8.029051	-0.000256	-0.008289	0.000629	-0.698975	0.365234	-0.202637	0.299457	-0.285251	-0.077673	-0.907152
23790		5.474534	-0.320779	8.016777	0.000191	-0.006440	0.000848	-0.706543	0.366211	-0.207275	0.299457	-0.285357	-0.077653	-0.907120
23791		5.472435	-0.315354	8.036691	-0.001414	-0.006738	0.000318	-0.696289	0.367432	-0.212402	0.299448	-0.285436	-0.077645	-0.907099
23792		5.475070	-0.311994	8.016752	-0.002573	-0.005187	0.000006	-0.710205	0.362061	-0.207764	0.299533	-0.285424	-0.077616	-0.907077
23793		5.474329	-0.302837	8.017615	-0.000181	-0.007104	-0.000343	-0.704346	0.360596	-0.209229	0.299448	-0.285496	-0.077646	-0.907080
23794		5.467411	-0.316171	8.023442	-0.000590	-0.006578	0.002549	-0.700195	0.368652	-0.212158	0.299410	-0.285535	-0.077656	-0.907079
23795		5.468526	-0.316534	8.022668	-0.002387	-0.004571	-0.001605	-0.707031	0.364746	-0.199219	0.299470	-0.285526	-0.077634	-0.907064
23796		5.480572	-0.326582	8.030701	-0.001782	-0.007974	0.003545	-0.693848	0.356445	-0.207520	0.299433	-0.285704	-0.077594	-0.907024
23797		5.480109	-0.317785	8.031364	-0.000962	-0.007243	0.001359	-0.699463	0.362305	-0.212646	0.299361	-0.285738	-0.077593	-0.907037
23798		5.480234	-0.306825	8.022569	-0.000925	-0.006650	0.000872	-0.699463	0.370117	-0.201416	0.299373	-0.285729	-0.077606	-0.907035
23799		5.489738	-0.309243	8.041780	-0.001109	-0.007267	0.002486	-0.699463	0.360352	-0.206543	0.299437	-0.285861	-0.077551	-0.906977
23800		5.490857	-0.345613	8.013771	-0.003277	-0.006492	0.001558	-0.696533	0.368896	-0.208984	0.299384	-0.285920	-0.077518	-0.906979
23801		5.475828	-0.321547	8.026634	-0.000330	-0.004777	-0.000036	-0.698730	0.358398	-0.207520	0.299466	-0.285927	-0.077500	-0.906951
23802		5.455701	-0.315971	8.025597	-0.001562	-0.004412	0.000627	-0.696533	0.363525	-0.210938	0.299393	-0.285939	-0.077489	-0.906972
23803		5.474747	-0.316506	8.045876	-0.002230	-0.009258	-0.001086	-0.697266	0.366211	-0.208496	0.299395	-0.285974	-0.077491	-0.906960
23804		5.480322	-0.322635	8.023523	-0.001957	-0.012733	0.002388	-0.703369	0.364014	-0.207275	0.299451	-0.286081	-0.077483	-0.906909
23805		5.473095	-0.325111	8.020862	-0.002447	-0.010472	0.001016	-0.701660	0.364502	-0.211182	0.299425	-0.286182	-0.077476	-0.906886
23806		5.473543	-0.314376	8.011835	-0.001555	-0.006769	0.001450	-0.699219	0.360840	-0.212158	0.299449	-0.286194	-0.077474	-0.906874
23807		5.484832	-0.326176	8.029454	-0.001448	-0.004985	-0.000010	-0.699219	0.357910	-0.201660	0.299428	-0.286163	-0.077481	-0.906890
23808		5.474834	-0.332104	8.046865	-0.001073	-0.004322	0.001181	-0.705811	0.365967	-0.213135	0.299317	-0.286228	-0.077452	-0.906909
23809		5.477383	-0.328699	8.026947	-0.001442	-0.007341	0.000812	-0.694824	0.365234	-0.202148	0.299344	-0.286235	-0.077465	-0.906897
23810		5.483877	-0.310369	8.039913	-0.003275	-0.008280	-0.002032	-0.702393	0.361328	-0.217529	0.299309	-0.286346	-0.077417	-0.906878
23811		5.471867	-0.329604	8.014028	-0.002665	-0.009333	0.002299	-0.704590	0.361816	-0.210205	0.299336	-0.286321	-0.077442	-0.906874
23812		5.478376	-0.311360	8.026985	-0.000285	-0.006542	0.000302	-0.703369	0.368164	-0.201904	0.299297	-0.286334	-0.077464	-0.906881
23813		5.492979	-0.328457	8.023790	-0.000327	-0.004781	-0.000033	-0.696533	0.362305	-0.211182	0.299288	-0.286416	-0.077431	-0.906861
23814		5.473388	-0.320780	8.013353	0.000118	-0.002928	0.000183	-0.698486	0.368896	-0.206055	0.299310	-0.286360	-0.077438	-0.906871
23815		5.482869	-0.320804	8.023526	0.001203	-0.003316	0.000646	-0.702393	0.364746	-0.208496	0.299377	-0.286370	-0.077425	-0.906847
23816		5.482858	-0.322560	8.032628	0.000717	-0.003408	0.000095	-0.699951	0.369141	-0.209961	0.299380	-0.286359	-0.077432	-0.906848
23817		5.478284	-0.328042	8.000540	-0.001223	-0.006131	-0.001286	-0.696533	0.358643	-0.208252	0.299432	-0.286373	-0.077424	-0.906828
23818		5.485562	-0.320865	8.021683	-0.001557	-0.004417	0.000632	-0.695068	0.361816	-0.208740	0.299382	-0.286366	-0.077412	-0.906848
23819		5.476995	-0.323023	8.019966	-0.000506	-0.005400	0.001582	-0.699707	0.362061	-0.209961	0.299397	-0.286363	-0.077406	-0.906844
23820		5.495869	-0.308343	8.013468	-0.000360	-0.005377	0.000456	-0.696045	0.361572	-0.200928	0.299387	-0.286356	-0.077414	-0.906849
23821		5.492595	-0.340391	8.016064	0.000127	-0.005286	0.001007	-0.699707	0.359619	-0.205811	0.299338	-0.286426	-0.077388	-0.906845
23822		5.476945	-0.302871	8.011668	-0.000505	-0.005401	0.001583	-0.705566	0.355713	-0.210938	0.299281	-0.286457	-0.077379	-0.906855
23823		5.490640	-0.322100	8.018158	-0.001034	-0.003731	0.000697	-0.695801	0.362305	-0.216309	0.299170	-0.286424	-0.077392	-0.906901
23824		5.490778	-0.324351	8.027144	-0.001555	-0.004418	0.000634	-0.695801	0.360840	-0.202393	0.299242	-0.286342	-0.077409	-0.906902
23825		5.482271	-0.326452	8.025395	-0.000393	-0.005974	0.000945	-0.697266	0.364990	-0.211670	0.299190	-0.286406	-0.077384	-0.906901
23826		5.490809	-0.317451	8.036589	-0.001315	-0.010277	0.001003	-0.700928	0.366699	-0.205566	0.299249	-0.286441	-0.077400	-0.906869
23827		5.484516	-0.315845	8.015129	-0.000417	-0.008928	0.002257	-0.701172	0.361328	-0.202393	0.299276	-0.286525	-0.077389	-0.906834
23828		5.496765	-0.325518	8.022999	0.000275	-0.005264	-0.000118	-0.696289	0.363770	-0.210693	0.299188	-0.286585	-0.077376	-0.906845
23829		5.488767	-0.325325	8.011821	0.000232	-0.003502	-0.000454	-0.702393	0.363281	-0.210449	0.299228	-0.286539	-0.077388	-0.906846
23830		5.480439	-0.340241	8.027778	0.000155	-0.002335	-0.000303	-0.701660	0.362305	-0.203857	0.299219	-0.286495	-0.077395	-0.906862
23831		5.475226	-0.311971	8.032536	-0.000289	-0.004189	-0.000517	-0.701904	0.364990	-0.207520	0.299145	-0.286532	-0.077376	-0.906876
23832		5.479793	-0.317766	8.010804	-0.001842	-0.008610	0.000120	-0.704834	0.364502	-0.215576	0.299130	-0.286596	-0.077366	-0.906862
23833		5.491666	-0.329440	8.028029	-0.000235	-0.008312	0.000645	-0.696777	0.372559	-0.212891	0.299165	-0.286579	-0.077408	-0.906852
23834		5.486104	-0.338880	8.014778	-0.000356	-0.005381	0.000460	-0.697266	0.363281	-0.210205	0.299327	-0.286552	-0.077413	-0.906807
23835		5.481980	-0.321960	8.027503	0.001495	0.000871	0.001163	-0.703857	0.354492	-0.207520	0.299371	-0.286461	-0.077414	-0.906821
23836		5.479537	-0.298849	8.011778	0.003137	-0.002378	-0.001570	-0.700928	0.358887	-0.210938	0.299214	-0.286422	-0.077456	-0.906881
23837		5.485310	-0.328466	8.015762	0.001695	-0.003228	0.001198	-0.700439	0.358154	-0.203369	0.299186	-0.286372	-0.077483	-0.906904
23838		5.474144	-0.320575	8.016266	0.002205	-0.000182	0.000436	-0.700439	0.360840	-0.204834	0.299088	-0.286352	-0.077474	-0.906944
23839		5.492107	-0.305387	8.010364	0.001163	-0.001556	0.000311	-0.698975	0.357422	-0.212402	0.299028	-0.286342	-0.077461	-0.906968
23840		5.474657	-0.320223	8.015930	-0.000443	-0.001855	-0.000213	-0.700195	0.363770	-0.213135	0.298993	-0.286265	-0.077474	-0.907002
23841		5.484050	-0.320358	8.026154	0.001551	-0.003252	0.002325	-0.703857	0.363525	-0.202637	0.299064	-0.286205	-0.077499	-0.906996
23842		5.474578	-0.308833	8.007278	0.000831	-0.003984	-0.000541	-0.701904	0.361816	-0.206055	0.298975	-0.286255	-0.077477	-0.907011
23843		5.478630	-0.329492	8.012822	0.000543	-0.004031	0.001713	-0.699707	0.365967	-0.207275	0.298935	-0.286272	-0.077464	-0.907020
23844		5.476526	-0.322014	8.023768	0.000565	-0.001076	0.000399	-0.700439	0.360352	-0.212402	0.298958	-0.286244	-0.077445	-0.907023
23845		5.464811	-0.316192	8.033758	0.001208	-0.003320	0.000648	-0.710449	0.362305	-0.214600	0.298962	-0.286188	-0.077473	-0.907037
23846		5.496008	-0.304922	8.007706	0.001241	-0.002725	0.000160	-0.697510	0.362549	-0.208008	0.298925	-0.286126	-0.077504	-0.907066
23847		5.496966	-0.318027	8.024879	0.000942	-0.000412	0.001589	-0.701904	0.361816	-0.207031	0.298948	-0.286077	-0.077491	-0.907075
23848		5.475711	-0.313796	8.033867	0.003525	-0.004075	0.000445	-0.701660	0.369385	-0.203857	0.298911	-0.286075	-0.077518	-0.907086
23849		5.477132	-0.311625	8.023795	-0.000399	-0.003619	0.000125	-0.694336	0.364502	-0.211426	0.298908	-0.286121	-0.077473	-0.907076
23850		5.484500	-0.335609	7.999353	0.004999	0.001514	-0.000044	-0.706299	0.362305	-0.213135	0.299005	-0.286002	-0.077521	-0.907077
23851		5.473062	-0.291403	8.027426	0.002970	0.002315	-0.002095	-0.696533	0.370361	-0.208496	0.298970	-0.285883	-0.077553	-0.907124
23852		5.499080	-0.324259	8.023163	0.007072	0.006622	-0.000622	-0.699219	0.367432	-0.204590	0.299085	-0.285739	-0.077582	-0.907129
23853		5.514426	-0.355692	8.009635	0.016176	0.020112	-0.002156	-0.697998	0.366455	-0.215088	0.299142	-0.285443	-0.077652	-0.907197
23854		5.365818	-0.269157	8.107935	0.007886	0.007352	-0.002810	-0.700195	0.371826	-0.203857	0.299231	-0.285233	-0.077726	-0.907227
23855		5.461375	-0.291982	8.009505	-0.004537	-0.016190	0.002107	-0.698730	0.360840	-0.212402	0.299258	-0.285452	-0.077670	-0.907154
23856		5.497172	-0.319383	8.024666	-0.002250	-0.009871	-0.000573	-0.694580	0.358643	-0.213379	0.299231	-0.285493	-0.077680	-0.907149
23857		5.497693	-0.306290	8.006467	0.002594	-0.001877	0.002452	-0.698486	0.364502	-0.214844	0.299278	-0.285409	-0.077712	-0.907158
23858		5.454755	-0.311355	8.042545	0.003436	0.003597	0.002537	-0.706055	0.362305	-0.218262	0.299380	-0.285265	-0.077731	-0.907168
23859		5.463601	-0.309351	8.044035	0.001341	0.003207	0.001463	-0.700684	0.360107	-0.213379	0.299408	-0.285114	-0.077743	-0.907205
23860		5.463726	-0.307480	8.034834	0.000787	0.001924	0.001889	-0.698242	0.367920	-0.213867	0.299411	-0.285011	-0.077734	-0.907237
23861		5.451554	-0.302104	8.045109	-0.000877	-0.001923	0.003169	-0.705322	0.361816	-0.208740	0.299524	-0.284964	-0.077713	-0.907216
23862		5.453144	-0.349730	8.025405	-0.001276	-0.005542	0.003295	-0.704102	0.359131	-0.214111	0.299480	-0.285006	-0.077680	-0.907221
23863		5.448362	-0.321810	8.029838	0.000277	-0.005268	-0.000112	-0.700684	0.359863	-0.214844	0.299422	-0.284984	-0.077701	-0.907245
23864		5.476170	-0.306889	8.033821	0.000388	-0.005841	-0.000750	-0.689697	0.364014	-0.210449	0.299393	-0.284957	-0.077731	-0.907260
23865		5.468067	-0.306546	8.022727	0.001763	-0.002039	0.000224	-0.697266	0.362305	-0.211182	0.299472	-0.284908	-0.077743	-0.907249
23866		5.448886	-0.311602	8.029915	0.002928	-0.003596	0.000537	-0.691650	0.359863	-0.214111	0.299488	-0.284878	-0.077772	-0.907250
23867		5.446630	-0.305821	8.050092	0.000555	-0.006391	0.002544	-0.704590	0.361572	-0.209717	0.299550	-0.284853	-0.077795	-0.907236
23868		5.451392	-0.311888	8.028202	-0.002959	-0.008820	0.000159	-0.703369	0.364258	-0.213867	0.299464	-0.284927	-0.077766	-0.907243
23869		5.474029	-0.318309	8.027366	-0.003003	-0.007057	-0.000180	-0.703857	0.355469	-0.209229	0.299449	-0.284947	-0.077751	-0.907243
23870		5.460141	-0.307658	8.057463	-0.003667	-0.007767	0.000886	-0.701904	0.365967	-0.212891	0.299305	-0.285004	-0.077709	-0.907276
23871		5.480393	-0.291526	8.040799	-0.001792	-0.010380	0.000473	-0.708008	0.360352	-0.215088	0.299321	-0.285065	-0.077713	-0.907252
23872		5.470441	-0.332690	8.030981	0.002473	-0.003094	-0.000503	-0.695801	0.351807	-0.204834	0.299265	-0.285009	-0.077751	-0.907284
23873		5.474729	-0.302376	8.036772	-0.001308	-0.002613	-0.001949	-0.703613	0.369629	-0.213867	0.299088	-0.285013	-0.077714	-0.907345
23874		5.467640	-0.313340	8.033714	0.002851	-0.002429	0.000685	-0.704834	0.361816	-0.212158	0.299163	-0.284967	-0.077740	-0.907332
23875		5.459194	-0.328111	8.049832	-0.000443	-0.001856	-0.000211	-0.697998	0.361816	-0.211914	0.299115	-0.284930	-0.077726	-0.907361
23876		5.457888	-0.318451	8.051135	0.001576	-0.004446	-0.001752	-0.700928	0.371826	-0.214111	0.299103	-0.284906	-0.077754	-0.907370
23877		5.458718	-0.317744	8.050600	0.002728	-0.003644	-0.002268	-0.695801	0.361816	-0.207275	0.299184	-0.284870	-0.077795	-0.907351
23878		5.466806	-0.290452	8.026039	0.004779	-0.001490	-0.001535	-0.699707	0.359863	-0.211182	0.299164	-0.284835	-0.077827	-0.907366
23879		5.496428	-0.345301	8.036779	0.009955	0.000641	-0.003199	-0.703857	0.363037	-0.216553	0.299130	-0.284727	-0.077932	-0.907402
23880		5.519372	-0.289058	7.999718	0.021637	0.010468	-0.005894	-0.691650	0.363770	-0.210693	0.299164	-0.284432	-0.078159	-0.907464
23881		5.514003	-0.321993	7.994609	0.034060	0.026334	-0.007862	-0.702393	0.359131	-0.214600	0.299281	-0.283941	-0.078458	-0.907553
23882		5.420110	-0.251190	8.055404	0.035730	0.036668	-0.007195	-0.702637	0.362305	-0.212646	0.299321	-0.283315	-0.078740	-0.907711
23883		5.453955	-0.243714	8.053070	0.033457	0.032687	-0.005315	-0.700684	0.363770	-0.208984	0.299381	-0.282772	-0.078989	-0.907839
23884		5.446912	-0.272137	8.030919	0.033256	0.033813	-0.004021	-0.694580	0.360596	-0.216064	0.299447	-0.282255	-0.079206	-0.907959
23885		5.355045	-0.306792	8.061843	0.036885	0.038559	-0.007495	-0.690918	0.362305	-0.221436	0.299558	-0.281604	-0.079495	-0.908099
23886		5.346052	-0.274785	8.149831	0.020779	0.014316	-0.013147	-0.691406	0.359619	-0.216797	0.299605	-0.281249	-0.079734	-0.908173
23887		5.403481	-0.182195	8.111078	-0.001681	-0.017439	-0.002081	-0.698975	0.353516	-0.218750	0.299594	-0.281386	-0.079773	-0.908131
23888		5.280914	-0.113478	8.170280	-0.029681	-0.062010	0.013284	-0.692871	0.362061	-0.216064	0.299509	-0.282136	-0.079611	-0.907940
23889		5.354905	-0.235674	8.101681	-0.063639	-0.108372	0.032747	-0.694580	0.364990	-0.215820	0.299607	-0.283570	-0.079167	-0.907500
23890		5.693990	-0.388139	7.816444	-0.050499	-0.047560	0.030189	-0.701904	0.356445	-0.214844	0.299809	-0.284252	-0.078661	-0.907264
23891		5.427864	-0.050458	8.071838	-0.050456	-0.018000	0.036123	-0.695312	0.359863	-0.210205	0.299945	-0.284601	-0.078017	-0.907165
23892		4.961101	-0.450626	8.338823	-0.088666	-0.073027	0.044730	-0.707031	0.360840	-0.210938	0.300037	-0.285750	-0.077105	-0.906851
23893		5.378533	-0.674839	7.827792	-0.135757	-0.036338	0.002877	-0.694580	0.372803	-0.205078	0.299450	-0.286613	-0.075667	-0.906894
23894		6.443352	0.006930	7.221703	-0.083169	0.204687	-0.009167	-0.699707	0.379639	-0.218262	0.299329	-0.284562	-0.073961	-0.907721
23895		4.421926	-0.904648	9.127428	-0.034476	0.029630	-0.005151	-0.693604	0.381104	-0.213623	0.299372	-0.284260	-0.073494	-0.907839
23896		4.417077	-1.043239	8.608157	-0.048784	-0.356014	-0.115422	-0.710205	0.364502	-0.202148	0.297771	-0.288311	-0.074678	-0.906991
23897		7.244869	0.329136	6.234239	-0.021597	-0.116850	-0.202612	-0.712646	0.362061	-0.199951	0.295209	-0.289497	-0.075552	-0.907378
23898		5.896018	-0.186155	8.028760	0.059457	0.548952	-0.017439	-0.704834	0.359375	-0.218994	0.295682	-0.283003	-0.074230	-0.909380
23899		4.144943	-0.397424	9.322014	-0.004677	-0.072505	-0.033786	-0.708496	0.361328	-0.208984	0.295218	-0.283716	-0.074569	-0.909280
23900		6.293103	-0.137823	7.220601	-0.042614	-0.067404	-0.024435	-0.706543	0.363770	-0.211670	0.294683	-0.284589	-0.074384	-0.909196
23901		4.683222	-0.105991	8.957088	0.031098	-0.133731	0.036760	-0.707520	0.361084	-0.203125	0.295114	-0.285971	-0.075086	-0.908565
23902		4.534127	-1.468044	9.612917	0.063390	-0.839001	-0.029441	-0.715088	0.363037	-0.198486	0.294154	-0.295208	-0.078960	-0.905589
23903		2.044854	-0.957388	13.520638	0.141945	-2.738844	-0.314909	-0.745361	0.345459	-0.141357	0.288249	-0.325118	-0.091730	-0.895989
23904		4.125406	-0.431738	13.041554	1.073839	-5.552117	-0.860612	-0.796875	0.328125	-0.063477	0.275658	-0.381550	-0.126895	-0.873115
23905		11.795163	4.597859	15.153059	0.744000	-6.450202	-0.318938	-0.823242	0.299805	0.052246	0.264483	-0.447431	-0.158239	-0.839533
23906		15.788884	1.758606	13.144650	-0.846336	-4.988024	0.936799	-0.816650	0.327393	0.150635	0.259152	-0.503390	-0.160196	-0.808564
23907		20.905878	-1.874693	-1.116741	-1.601315	-1.723843	0.787463	-0.801025	0.337158	0.188965	0.253444	-0.527257	-0.144475	-0.798056
23908		7.743825	0.277537	-3.675553	-0.600131	2.385503	-0.504345	-0.786865	0.313965	0.139404	0.248633	-0.504129	-0.134127	-0.816116
23909		-0.720003	1.798565	-7.082350	-0.966249	1.078180	-0.801911	-0.793213	0.295410	0.129150	0.236120	-0.494623	-0.125915	-0.826886
23910		1.487969	-2.301185	-2.768323	-0.320225	0.497879	-0.577109	-0.790039	0.286865	0.117188	0.228960	-0.489435	-0.124703	-0.832154
23911		0.409426	-0.211529	-0.682218	0.883232	0.338464	-0.505770	-0.799561	0.267578	0.095703	0.229622	-0.482506	-0.136006	-0.834244
23912		-0.229007	1.218672	-0.285033	0.899128	0.279340	-0.345473	-0.800293	0.263916	0.085938	0.231913	-0.476340	-0.146656	-0.835350
23913		-0.847910	0.843773	-2.218485	0.362547	0.028873	-0.240780	-0.812988	0.261719	0.077393	0.231624	-0.474491	-0.151801	-0.835563
23914		0.004278	0.281056	-4.650597	-0.379249	-0.844362	0.022345	-0.831787	0.263428	0.122559	0.228013	-0.484372	-0.150164	-0.831171
23915		1.519513	-0.710610	-9.724937	-0.011263	-2.158879	-0.092407	-0.858398	0.274902	0.160645	0.222878	-0.506439	-0.156744	-0.818093
23916		49.436964	4.727082	15.916857	1.623094	4.790546	-0.477177	-0.863281	0.264160	0.055420	0.237244	-0.450976	-0.162762	-0.844893
23917		2.626448	-3.267486	19.610249	-1.188377	7.080259	0.698277	-0.817627	0.288574	-0.073975	0.251417	-0.379388	-0.124780	-0.881637
23918		1.934764	-0.438320	11.898099	-0.905830	4.996748	0.858268	-0.763184	0.312744	-0.149658	0.263880	-0.327720	-0.094824	-0.902206
23919		4.354564	-2.820450	12.581983	-0.274618	2.750096	0.032745	-0.750000	0.322754	-0.190186	0.266244	-0.297415	-0.082478	-0.913157
23920		3.422685	2.719224	12.249228	-0.091240	0.108010	0.017191	-0.745117	0.322754	-0.196289	0.266210	-0.296451	-0.080995	-0.913613
23921		4.692587	-0.717473	10.496156	-0.205529	-1.422840	0.052256	-0.761719	0.321289	-0.163330	0.264559	-0.313330	-0.083159	-0.908249
23922		3.441393	-1.553100	12.261704	0.023377	-3.296778	-0.238033	-0.783691	0.316162	-0.100830	0.258289	-0.350096	-0.095157	-0.895357
23923		5.118356	-0.611745	11.040481	0.731138	-5.529977	-0.731654	-0.832764	0.301514	-0.009521	0.246075	-0.407779	-0.124081	-0.870498
23924		16.871552	2.497983	15.705801	-0.651891	-5.859656	-0.276835	-0.849121	0.297852	0.103271	0.229975	-0.471881	-0.135999	-0.840205
23925		25.463054	4.272551	-1.105379	-2.902614	-2.727283	-0.417663	-0.847168	0.286377	0.192383	0.203539	-0.507486	-0.115583	-0.829259
23926		14.530522	-3.433464	-9.764722	-1.284232	1.322488	-1.910242	-0.851562	0.245850	0.170410	0.177405	-0.493954	-0.110961	-0.843934
23927		0.171519	-1.573630	-3.933615	0.151315	1.064028	-1.455997	-0.859619	0.201416	0.158691	0.164433	-0.480210	-0.119184	-0.853320
23928		-0.259200	-3.294938	-0.858271	0.499082	0.253899	0.119319	-0.847900	0.201904	0.150635	0.169098	-0.476607	-0.123292	-0.853845
23929		-0.157118	-0.094510	-1.903586	0.293801	-0.098452	1.643589	-0.832031	0.236816	0.159180	0.188215	-0.479431	-0.116823	-0.849160
23930		0.074876	2.959082	-2.419556	-0.104571	-0.767097	2.150133	-0.795898	0.283447	0.191650	0.209228	-0.490730	-0.104594	-0.839326
23931		-0.130557	4.286951	-2.723785	-0.586910	-1.513323	1.829477	-0.781982	0.330811	0.232178	0.222767	-0.510273	-0.091156	-0.825643
23932		-0.293943	5.820350	-2.285648	-1.089222	-2.349636	0.671980	-0.758545	0.347656	0.321533	0.219987	-0.538007	-0.082186	-0.809568
23933		30.196612	-19.288655	12.407225	1.615712	0.028155	-0.785373	-0.791748	0.339600	0.313965	0.222926	-0.532314	-0.103822	-0.810041
23934		18.584747	6.413351	9.221445	2.274040	5.683292	0.188308	-0.790527	0.353516	0.187744	0.246679	-0.467154	-0.109451	-0.841984
23935		-0.136430	0.491766	13.699034	0.014814	7.518226	0.149067	-0.777588	0.363770	0.056885	0.257554	-0.386216	-0.085152	-0.881619
23936		0.094349	-2.303304	13.466452	-0.466677	5.108794	-0.464248	-0.759766	0.357422	-0.023438	0.255111	-0.330125	-0.065655	-0.906435
23937		5.599577	1.664655	11.565304	-0.045066	1.882811	-0.349751	-0.750488	0.354980	-0.054199	0.252430	-0.308505	-0.060545	-0.915117
23938		4.469134	0.001542	10.154032	0.134022	0.203290	0.064350	-0.755371	0.360107	-0.059326	0.253832	-0.305749	-0.061172	-0.915612
23939		5.051610	-0.855228	9.267816	0.073952	-0.557241	-0.046012	-0.759277	0.352051	-0.041992	0.253149	-0.311792	-0.063940	-0.913571
23940		2.640044	1.118728	13.414986	0.010907	-2.490635	0.019876	-0.768311	0.354736	0.003418	0.251297	-0.340002	-0.071809	-0.903378
23941		3.186060	0.763823	13.074278	0.746451	-5.715741	-0.260470	-0.797852	0.346680	0.089844	0.245736	-0.400965	-0.099051	-0.876943
23942		9.785237	1.617024	13.759021	0.456753	-7.331247	0.203231	-0.808594	0.335693	0.223145	0.240132	-0.478308	-0.125050	-0.835416
23943		19.070021	-0.927276	11.355135	-0.481419	-5.231164	1.121427	-0.772461	0.353271	0.293457	0.240235	-0.534942	-0.128674	-0.799730
23944		16.998187	-2.535110	3.623281	-0.466037	-1.625986	0.964659	-0.759033	0.366943	0.314941	0.244065	-0.553916	-0.122342	-0.786538
23945		4.151456	-2.155766	3.271457	0.769133	2.789837	-0.365816	-0.756592	0.351562	0.227295	0.249884	-0.523150	-0.123780	-0.805327
23946		-1.729137	2.063780	-0.053322	0.023727	2.730601	-0.469378	-0.759277	0.331787	0.156494	0.249368	-0.494480	-0.118408	-0.824187
23947		-0.591743	2.485908	-2.206288	-0.849841	2.223762	-0.638562	-0.769775	0.317627	0.111084	0.240691	-0.472968	-0.106547	-0.840843
23948		-0.940164	1.296408	-4.693996	-1.640922	1.361059	-0.653067	-0.779541	0.312012	0.103760	0.225833	-0.462474	-0.088979	-0.852760
23949		-2.430227	-1.613122	-11.207217	-1.861639	-0.304332	-0.231122	-0.797119	0.313965	0.137939	0.212201	-0.470515	-0.071276	-0.853525
23950		0.483813	-4.782343	-13.050871	0.046049	-2.876008	0.713635	-0.807861	0.326660	0.188965	0.217376	-0.501324	-0.075130	-0.834132
23951		26.666378	-8.306337	-4.108533	2.761835	-3.523446	0.312459	-0.818115	0.353271	0.230225	0.234284	-0.530001	-0.111386	-0.807343
23952		36.318950	9.203951	6.702424	2.749055	7.378394	0.495429	-0.805664	0.361572	0.056152	0.266586	-0.445705	-0.113679	-0.846969
23953		-2.120709	-2.760106	17.712630	0.375050	8.152341	0.647214	-0.747559	0.371094	-0.090088	0.285744	-0.356872	-0.086406	-0.885170
23954		2.790487	-4.251160	14.033629	-0.283685	4.011614	-0.206802	-0.724854	0.371582	-0.143799	0.286187	-0.312808	-0.069776	-0.902984
23955		-1.277526	2.886107	16.559060	0.406978	1.626059	-0.614429	-0.710205	0.354492	-0.188477	0.282188	-0.292341	-0.070918	-0.910976
23956		6.200773	2.581731	8.303803	0.155191	-0.827554	-0.166525	-0.735840	0.358154	-0.173828	0.280094	-0.300992	-0.076173	-0.908377
23957		8.730183	-1.278576	4.544959	0.046489	0.036030	0.015639	-0.734863	0.347656	-0.182129	0.280476	-0.300377	-0.076496	-0.908436
23958		5.906440	0.356400	8.541016	-0.058594	0.544688	0.059222	-0.721191	0.354004	-0.182373	0.281444	-0.294394	-0.073684	-0.910325
23959		5.161419	-1.302691	9.084471	-0.046339	0.056806	0.047111	-0.710938	0.350586	-0.181152	0.281865	-0.293901	-0.072774	-0.910428
23960		6.205143	-0.373247	7.341316	-0.063336	-0.054268	0.069532	-0.714844	0.353760	-0.175781	0.282372	-0.294750	-0.071972	-0.910060
23961		5.671730	-0.584222	7.653713	-0.000212	0.108900	0.149236	-0.718018	0.355713	-0.177734	0.284165	-0.293592	-0.071021	-0.909950
23962		7.600453	-1.701692	7.536434	-0.142968	0.513360	0.410176	-0.707031	0.367676	-0.188477	0.288751	-0.288561	-0.066048	-0.910490
23963		2.146198	1.276112	8.205956	0.245278	0.515909	0.357238	-0.691162	0.370361	-0.203369	0.294117	-0.282038	-0.065671	-0.910844
23964		4.887953	0.660284	7.902911	0.036182	0.290635	-0.168524	-0.687500	0.371094	-0.207520	0.292560	-0.278401	-0.065592	-0.912469
23965		5.643255	-2.460681	8.371554	0.274375	0.190026	-0.028038	-0.694580	0.366211	-0.209229	0.293349	-0.275150	-0.068112	-0.913017
23966		5.037210	-0.408326	8.185219	0.109210	0.077683	0.038753	-0.692383	0.365967	-0.206543	0.294227	-0.273840	-0.068919	-0.913067
23967		4.956095	2.043608	8.500849	-0.144102	-0.023186	0.137320	-0.692871	0.372559	-0.208740	0.295275	-0.274697	-0.066868	-0.912624
23968		4.967948	0.293938	8.404487	-0.367653	-0.133731	0.227750	-0.682373	0.369141	-0.206543	0.296495	-0.277710	-0.062373	-0.911634
23969		5.114307	-1.117759	7.897221	-0.357934	-0.143482	0.223419	-0.684326	0.387207	-0.198975	0.297685	-0.280786	-0.058040	-0.910590
23970		5.297067	-1.837226	7.630914	-0.204418	-0.147730	0.174362	-0.685303	0.379395	-0.189209	0.298843	-0.283297	-0.055638	-0.909582
23971		4.131885	-1.536301	7.110759	0.104184	-0.218592	0.004451	-0.684570	0.381836	-0.189453	0.299106	-0.285339	-0.057606	-0.908735
23972		4.879450	-0.634049	7.705972	0.617500	-0.381584	-0.356960	-0.694336	0.383301	-0.199463	0.296957	-0.287037	-0.067294	-0.908239
23973		6.521758	0.714094	8.786911	0.434673	-0.176505	-0.258545	-0.702393	0.364990	-0.199951	0.295419	-0.287146	-0.073786	-0.908202
23974		6.158499	-0.319110	8.321326	0.140189	-0.039682	-0.045668	-0.702393	0.364014	-0.198486	0.295365	-0.286980	-0.075670	-0.908117
23975		5.624443	-0.742050	8.022069	0.078086	0.031023	-0.015289	-0.703125	0.362793	-0.204590	0.295500	-0.286270	-0.076481	-0.908229
23976		5.269124	-0.507565	8.104380	0.128378	0.065362	-0.078291	-0.690674	0.357666	-0.199951	0.295131	-0.284923	-0.077960	-0.908647
23977		5.536507	-0.053013	8.221532	0.077707	0.033517	-0.065710	-0.690430	0.357422	-0.202393	0.294691	-0.284136	-0.078934	-0.908952
23978		5.444693	-0.192688	8.145607	0.031537	-0.032885	-0.033610	-0.701416	0.352051	-0.204346	0.294386	-0.284304	-0.079515	-0.908947
23979		5.592337	-0.228802	8.037971	-0.002743	-0.064394	-0.023165	-0.700928	0.358154	-0.206787	0.294047	-0.284967	-0.079785	-0.908826
23980		5.519693	-0.432914	8.103452	-0.015171	-0.066188	-0.017054	-0.707031	0.362549	-0.205566	0.293731	-0.285702	-0.079898	-0.908687
23981		5.624785	-0.316612	8.060473	-0.018516	-0.085441	-0.025224	-0.701904	0.350586	-0.194336	0.293290	-0.286660	-0.080073	-0.908513
23982		5.625620	-0.264483	7.998481	-0.051643	-0.090654	-0.013222	-0.710938	0.352783	-0.198975	0.292861	-0.287809	-0.079848	-0.908307
23983		5.623942	-0.098988	8.049297	-0.066155	-0.097714	-0.000205	-0.708984	0.360107	-0.197266	0.292521	-0.289105	-0.079436	-0.908042
23984		5.685635	-0.345816	8.117630	-0.077885	-0.125277	0.010894	-0.711182	0.364014	-0.188232	0.292237	-0.290767	-0.078953	-0.907645
23985		5.634601	-0.872942	8.100090	-0.066679	-0.130738	-0.049530	-0.716553	0.358154	-0.195068	0.291302	-0.292389	-0.078836	-0.907434
23986		5.764846	-0.847097	8.118947	-0.072921	-0.124902	-0.167230	-0.711182	0.361816	-0.183105	0.289010	-0.293850	-0.079054	-0.907676
23987		5.249723	-0.874965	8.832692	-0.655944	-0.115067	-0.827811	-0.729004	0.341309	-0.169678	0.277065	-0.296626	-0.075038	-0.910833
23988		5.709219	-5.741346	9.215282	-1.010756	0.123668	-0.878182	-0.740479	0.338135	-0.156006	0.263385	-0.297798	-0.066320	-0.915176
23989		2.780109	-9.182077	7.416581	-0.707002	0.226452	0.727453	-0.721436	0.358643	-0.161621	0.269211	-0.298057	-0.054720	-0.914162
23990		4.293289	1.785601	5.631779	0.401804	-0.076120	0.527010	-0.721191	0.362061	-0.162109	0.276615	-0.297860	-0.057502	-0.911843
23991		8.755800	11.340059	5.157399	0.737566	-0.072347	-0.149133	-0.721680	0.356689	-0.164062	0.277547	-0.295950	-0.066622	-0.911561
23992		5.586192	2.896066	9.660896	0.361094	0.023296	-0.056576	-0.721191	0.350342	-0.175293	0.278247	-0.294329	-0.070842	-0.911554
23993		6.251318	-0.584556	8.522635	0.056287	-0.040603	0.120166	-0.726074	0.349854	-0.181641	0.279791	-0.294646	-0.071174	-0.910953
23994		5.883416	-1.651813	8.052085	0.011058	-0.031896	0.041899	-0.722900	0.351074	-0.175537	0.280283	-0.294950	-0.071248	-0.910697
23995		5.896510	-0.729750	7.754725	0.091945	0.075743	-0.037439	-0.724854	0.352295	-0.179443	0.280261	-0.293676	-0.072152	-0.911045
23996		5.523082	-0.209221	8.072394	0.086588	0.135029	-0.041677	-0.729980	0.347168	-0.180664	0.280225	-0.291741	-0.072802	-0.911626
23997		5.495704	0.078679	8.149270	0.027333	0.091595	-0.009363	-0.722168	0.348145	-0.185303	0.280295	-0.290538	-0.072809	-0.911988
23998		5.456751	-0.245157	8.142860	-0.031367	0.006584	0.031907	-0.726318	0.340088	-0.182861	0.280550	-0.290545	-0.072298	-0.911947
23999		5.650276	-0.458004	7.914526	-0.033490	-0.002299	0.027623	-0.721436	0.354248	-0.175293	0.280732	-0.290657	-0.071806	-0.911895
24000		5.561670	-0.598384	7.972526	-0.002796	0.027560	-0.002436	-0.729004	0.350098	-0.192627	0.280721	-0.290300	-0.071674	-0.912022
24001		5.579907	-0.296065	7.994779	0.019069	0.029184	-0.021534	-0.725830	0.347168	-0.188232	0.280567	-0.289821	-0.071849	-0.912208
24002		5.519414	-0.278188	8.029032	0.022081	0.024437	-0.016215	-0.720703	0.350586	-0.190186	0.280480	-0.289393	-0.072057	-0.912354
24003		5.536251	-0.260333	7.995352	0.018532	0.012947	0.000366	-0.716064	0.354980	-0.181396	0.280566	-0.289123	-0.072208	-0.912402
24004		5.465242	-0.375001	8.047709	0.021877	0.010019	-0.010784	-0.718262	0.350098	-0.190918	0.280540	-0.288871	-0.072451	-0.912470
24005		5.473446	-0.351767	8.022387	0.017105	-0.006578	-0.011992	-0.729980	0.353516	-0.189209	0.280462	-0.288817	-0.072698	-0.912491
24006		5.484695	-0.341991	8.013017	0.018331	-0.005750	-0.017520	-0.714111	0.346680	-0.187500	0.280323	-0.288747	-0.072975	-0.912534
24007		5.527663	-0.201765	8.003745	0.012920	-0.008110	-0.017443	-0.721924	0.354980	-0.179443	0.280165	-0.288722	-0.073199	-0.912573
24008		5.511556	-0.291313	7.990649	0.012734	-0.014119	-0.012625	-0.722900	0.348877	-0.187988	0.280061	-0.288778	-0.073428	-0.912568
24009		5.522448	-0.371212	8.009482	0.015157	-0.025636	-0.020327	-0.723389	0.351318	-0.186523	0.279860	-0.288943	-0.073748	-0.912552
24010		5.576470	-0.245946	7.935313	0.016071	-0.011656	-0.018084	-0.720459	0.347656	-0.182129	0.279704	-0.288948	-0.074024	-0.912576
24011		5.581414	-0.226450	7.968128	0.015167	0.002576	-0.010701	-0.721680	0.346436	-0.188477	0.279640	-0.288804	-0.074212	-0.912626
24012		5.521015	-0.323595	7.993892	0.017218	0.002421	-0.009192	-0.720947	0.345947	-0.178711	0.279598	-0.288650	-0.074417	-0.912671
24013		5.504462	-0.295289	8.008661	0.012616	-0.001601	-0.014367	-0.719971	0.346436	-0.189941	0.279476	-0.288562	-0.074604	-0.912721
24014		5.566276	-0.235559	7.963371	0.013165	0.003916	-0.013165	-0.724121	0.346436	-0.186279	0.279378	-0.288401	-0.074773	-0.912788
24015		5.543451	-0.282459	7.992642	0.021337	0.015275	-0.009536	-0.725342	0.341309	-0.194336	0.279358	-0.288089	-0.074981	-0.912875
24016		5.482930	-0.259042	8.036416	0.017119	0.011373	-0.009173	-0.722656	0.348145	-0.187012	0.279314	-0.287828	-0.075149	-0.912957
24017		5.542307	-0.245403	8.011609	0.010674	-0.001385	-0.008091	-0.718018	0.347412	-0.189941	0.279263	-0.287746	-0.075291	-0.912987
24018		5.543385	-0.198523	8.001353	0.013395	0.003407	-0.006018	-0.718506	0.337646	-0.195801	0.279253	-0.287598	-0.075441	-0.913024
24019		5.514751	-0.291472	7.990091	0.014031	0.007149	-0.004490	-0.721436	0.353760	-0.200684	0.279248	-0.287398	-0.075571	-0.913079
24020		5.515982	-0.218099	8.006824	0.017856	0.013328	-0.007308	-0.726318	0.356201	-0.188965	0.279260	-0.287112	-0.075744	-0.913150
24021		5.480347	-0.201847	8.010119	0.015081	0.013368	-0.003235	-0.719727	0.346924	-0.200439	0.279310	-0.286855	-0.075874	-0.913205
24022		5.489219	-0.247480	8.011479	0.010446	0.006992	-0.002600	-0.728271	0.344238	-0.197021	0.279329	-0.286670	-0.075962	-0.913250
24023		5.500365	-0.210862	8.010453	0.008419	0.007736	-0.004592	-0.724121	0.343750	-0.190430	0.279305	-0.286487	-0.076028	-0.913309
24024		5.489543	-0.211076	8.010578	0.006962	0.005666	-0.000869	-0.728271	0.339600	-0.191162	0.279320	-0.286344	-0.076074	-0.913346
24025		5.452375	-0.232093	8.024886	0.000665	0.001324	-0.001544	-0.731201	0.336914	-0.192627	0.279286	-0.286269	-0.076061	-0.913381
24026		5.481755	-0.260268	7.999403	0.002662	-0.007253	-0.003277	-0.715088	0.344727	-0.186035	0.279221	-0.286282	-0.076102	-0.913393
24027		5.471167	-0.216495	8.027131	0.004211	-0.006960	-0.006666	-0.717285	0.337891	-0.184814	0.279163	-0.286292	-0.076188	-0.913400
24028		5.498599	-0.236051	8.012671	0.005504	-0.005510	-0.008789	-0.727295	0.345459	-0.191650	0.279068	-0.286278	-0.076285	-0.913426
24029		5.488163	-0.224102	8.003649	0.007443	-0.003335	-0.011973	-0.721924	0.345459	-0.189697	0.278951	-0.286225	-0.076408	-0.913468
24030		5.475405	-0.204928	8.005865	0.004747	-0.008680	-0.009676	-0.725830	0.340332	-0.181641	0.278854	-0.286246	-0.076514	-0.913482
24031		5.502796	-0.228270	8.010014	0.004508	-0.010546	-0.010993	-0.722412	0.343750	-0.194092	0.278720	-0.286298	-0.076624	-0.913497
24032		5.483447	-0.223237	8.018325	0.002610	-0.011528	-0.008770	-0.725586	0.342041	-0.198242	0.278620	-0.286353	-0.076710	-0.913503
24033		5.480967	-0.244731	8.021308	-0.002445	-0.016221	-0.010113	-0.719238	0.342041	-0.198486	0.278475	-0.286472	-0.076755	-0.913506
24034		5.507715	-0.162238	7.997643	-0.003011	-0.015702	-0.006133	-0.721680	0.347656	-0.191895	0.278385	-0.286589	-0.076781	-0.913495
24035		5.524557	-0.178605	7.992682	-0.003487	-0.012191	-0.004567	-0.720459	0.343262	-0.191895	0.278324	-0.286682	-0.076790	-0.913484
24036		5.513594	-0.216896	8.012358	-0.000089	-0.010235	-0.001785	-0.726807	0.340820	-0.187744	0.278299	-0.286741	-0.076817	-0.913470
24037		5.515040	-0.216478	8.011374	0.000755	-0.004074	-0.003311	-0.727295	0.346680	-0.193359	0.278249	-0.286731	-0.076834	-0.913488
24038		5.499294	-0.229760	8.007179	-0.002436	-0.005363	-0.003808	-0.717529	0.337402	-0.194336	0.278197	-0.286741	-0.076824	-0.913501
24039		5.508910	-0.174919	7.998431	-0.001545	-0.007539	-0.000807	-0.728516	0.336426	-0.187256	0.278169	-0.286768	-0.076816	-0.913502
24040		5.511057	-0.230296	8.015710	-0.003647	-0.005567	0.001233	-0.719238	0.334717	-0.192139	0.278137	-0.286794	-0.076766	-0.913508
24041		5.505553	-0.201052	8.011260	-0.002505	-0.004134	0.000222	-0.724609	0.341797	-0.192627	0.278111	-0.286788	-0.076729	-0.913520
24042		5.508604	-0.213027	8.018088	-0.002445	-0.007107	0.001521	-0.723389	0.345947	-0.195068	0.278110	-0.286821	-0.076704	-0.913513
24043		5.495859	-0.232572	7.992829	-0.005627	-0.003030	-0.002204	-0.725342	0.342529	-0.190918	0.278075	-0.286813	-0.076645	-0.913531
24044		5.513310	-0.184213	8.023249	-0.001526	-0.006942	-0.001289	-0.725342	0.347900	-0.194580	0.278045	-0.286841	-0.076640	-0.913531
24045		5.493222	-0.219006	8.013968	-0.004253	-0.008722	-0.000766	-0.724854	0.339355	-0.191895	0.278028	-0.286897	-0.076614	-0.913521
24046		5.519770	-0.188418	7.990484	-0.003257	-0.007308	-0.000662	-0.719727	0.338379	-0.200439	0.277989	-0.286933	-0.076584	-0.913524
24047		5.508467	-0.223172	7.991791	-0.002374	-0.004716	-0.000408	-0.719238	0.335693	-0.187500	0.277968	-0.286918	-0.076554	-0.913538
24048		5.522934	-0.204765	8.015843	-0.003876	-0.002069	-0.003310	-0.721924	0.342529	-0.188721	0.277899	-0.286899	-0.076508	-0.913569
24049		5.513482	-0.209155	8.024326	-0.001329	-0.001505	-0.001753	-0.725098	0.335938	-0.193604	0.277877	-0.286868	-0.076492	-0.913586
24050		5.504456	-0.209163	8.013901	-0.001279	0.000291	-0.003201	-0.724365	0.347412	-0.182373	0.277811	-0.286803	-0.076463	-0.913629
24051		5.522116	-0.193316	8.007466	0.001024	-0.006381	0.000269	-0.725098	0.341553	-0.199219	0.277825	-0.286839	-0.076489	-0.913611
24052		5.517472	-0.216322	8.011900	-0.000436	-0.000057	0.003345	-0.727295	0.339355	-0.196045	0.277860	-0.286773	-0.076453	-0.913625
24053		5.507621	-0.218814	8.011343	-0.000336	0.003535	0.000449	-0.720215	0.335693	-0.182373	0.277851	-0.286668	-0.076412	-0.913664
24054		5.511660	-0.200635	8.025932	-0.003671	0.002225	0.001070	-0.720215	0.338623	-0.188477	0.277831	-0.286615	-0.076340	-0.913692
24055		5.504861	-0.213322	8.022880	-0.005536	-0.006555	0.003460	-0.727295	0.342773	-0.195312	0.277839	-0.286661	-0.076271	-0.913681
24056		5.496996	-0.217177	8.020923	-0.006914	-0.009857	0.003157	-0.728027	0.342041	-0.192383	0.277837	-0.286738	-0.076197	-0.913664
24057		5.526073	-0.194715	7.985975	-0.004891	-0.005829	0.002398	-0.729004	0.346680	-0.193115	0.277830	-0.286768	-0.076133	-0.913662
24058		5.523261	-0.232287	8.007350	-0.005099	-0.002874	0.002216	-0.720459	0.343750	-0.194580	0.277838	-0.286766	-0.076064	-0.913666
24059		5.512318	-0.224052	7.998595	-0.001781	-0.002163	0.002076	-0.725342	0.336182	-0.188232	0.277871	-0.286736	-0.076032	-0.913668
24060		5.497708	-0.212362	8.020701	-0.001972	0.001392	0.001410	-0.721924	0.343506	-0.198242	0.277849	-0.286677	-0.075975	-0.913698
24061		5.485914	-0.243007	8.003692	-0.001636	-0.002143	0.000961	-0.724609	0.334717	-0.189453	0.277867	-0.286637	-0.075947	-0.913707
24062		5.510066	-0.220556	8.019110	-0.001188	-0.003233	0.002460	-0.719482	0.342041	-0.192383	0.277851	-0.286625	-0.075909	-0.913719
24063		5.494654	-0.230421	7.996046	-0.001859	-0.003411	-0.000839	-0.719971	0.339844	-0.193848	0.277844	-0.286611	-0.075890	-0.913727
24064		5.518984	-0.205634	8.002034	-0.001586	-0.000346	-0.000487	-0.725830	0.344482	-0.195312	0.277835	-0.286557	-0.075859	-0.913750
24065		5.502167	-0.219364	7.998573	0.000368	0.001287	0.000684	-0.727783	0.339111	-0.183594	0.277851	-0.286480	-0.075842	-0.913770
24066		5.494411	-0.232938	8.005514	0.000352	0.000688	0.001167	-0.722412	0.338135	-0.195557	0.277834	-0.286436	-0.075818	-0.913791
24067		5.499073	-0.214563	8.019707	-0.001747	-0.000965	0.001111	-0.723877	0.337646	-0.197266	0.277828	-0.286387	-0.075776	-0.913812
24068		5.501999	-0.224279	8.017297	-0.001299	-0.005679	0.000511	-0.723145	0.340576	-0.196533	0.277807	-0.286385	-0.075755	-0.913821
24069		5.503503	-0.222763	8.006932	-0.003510	-0.006154	0.000606	-0.728760	0.344727	-0.191650	0.277794	-0.286400	-0.075717	-0.913823
24070		5.503852	-0.227834	8.025300	-0.003879	-0.003817	0.002021	-0.723633	0.337402	-0.179443	0.277794	-0.286409	-0.075662	-0.913825
24071		5.497423	-0.238380	8.012665	-0.005192	-0.001098	0.001886	-0.721680	0.348389	-0.192627	0.277761	-0.286415	-0.075579	-0.913840
24072		5.488174	-0.241063	8.011694	0.001682	-0.001432	0.000820	-0.733643	0.343506	-0.194092	0.277811	-0.286374	-0.075597	-0.913836
24073		5.503326	-0.215751	8.007383	0.000994	-0.002208	-0.001997	-0.714600	0.338623	-0.191406	0.277763	-0.286338	-0.075599	-0.913861
24074		5.494482	-0.217823	8.006154	-0.000449	-0.004284	0.001730	-0.723389	0.344238	-0.195312	0.277792	-0.286330	-0.075592	-0.913856
24075		5.494645	-0.222167	8.024674	0.001618	-0.003830	0.002751	-0.720703	0.339355	-0.189941	0.277839	-0.286309	-0.075601	-0.913847
24076		5.495716	-0.218076	8.005299	-0.000016	-0.000599	0.000483	-0.720215	0.342773	-0.191162	0.277838	-0.286264	-0.075585	-0.913863
24077		5.493072	-0.246162	7.989302	0.000128	0.003045	0.001466	-0.719727	0.344727	-0.191895	0.277871	-0.286177	-0.075560	-0.913882
24078		5.487823	-0.196783	8.039854	-0.001875	-0.004011	-0.000355	-0.715332	0.334961	-0.192383	0.277882	-0.286176	-0.075547	-0.913881
24079		5.496409	-0.218891	8.004801	-0.001554	-0.004522	0.001778	-0.720947	0.343994	-0.189941	0.277880	-0.286170	-0.075518	-0.913885
24080		5.500790	-0.241942	8.019628	0.000465	-0.000491	0.001017	-0.726807	0.347656	-0.196533	0.277909	-0.286127	-0.075512	-0.913890
24081		5.487522	-0.219314	7.994272	0.000257	0.002466	0.000834	-0.726562	0.339600	-0.189453	0.277942	-0.286038	-0.075494	-0.913910
24082		5.493129	-0.214242	8.026075	0.000017	0.004224	0.001616	-0.729248	0.346436	-0.182373	0.277936	-0.285944	-0.075451	-0.913945
24083		5.485440	-0.226157	8.023640	-0.002003	0.000193	0.002377	-0.724121	0.346680	-0.198242	0.277950	-0.285933	-0.075407	-0.913947
24084		5.485602	-0.226933	8.023507	-0.003349	-0.001911	0.001108	-0.726562	0.344238	-0.191406	0.277973	-0.285900	-0.075362	-0.913954
24085		5.498248	-0.233235	8.012375	-0.004790	-0.003988	0.004835	-0.724854	0.342041	-0.192871	0.278005	-0.285919	-0.075289	-0.913945
24086		5.486938	-0.229974	8.022507	-0.006985	-0.003864	0.004448	-0.721680	0.340820	-0.186279	0.278018	-0.285936	-0.075188	-0.913944
24087		5.475195	-0.229113	8.042252	-0.007720	-0.002815	0.005181	-0.726318	0.351318	-0.196045	0.278037	-0.285962	-0.075076	-0.913939
24088		5.483314	-0.217582	8.035015	-0.005862	-0.003028	0.003919	-0.722900	0.343018	-0.191162	0.278097	-0.285965	-0.075002	-0.913926
24089		5.490921	-0.247057	8.028520	-0.004068	-0.005640	0.004588	-0.721436	0.345703	-0.197510	0.278130	-0.285997	-0.074944	-0.913911
24090		5.494393	-0.255407	8.016372	-0.002771	-0.003583	0.001976	-0.719482	0.345215	-0.188232	0.278163	-0.285980	-0.074908	-0.913909
24091		5.478223	-0.232351	8.030714	0.000178	-0.000534	0.003248	-0.720459	0.349609	-0.195068	0.278223	-0.285948	-0.074894	-0.913902
24092		5.476725	-0.219327	8.013505	-0.001264	-0.000858	0.001647	-0.721680	0.342529	-0.196533	0.278286	-0.285906	-0.074876	-0.913897
24093		5.471323	-0.244742	8.027711	-0.001280	-0.001459	0.002130	-0.728760	0.343262	-0.198242	0.278304	-0.285860	-0.074841	-0.913909
24094		5.479208	-0.233703	8.030003	-0.000802	-0.004974	0.000563	-0.720947	0.341553	-0.200928	0.278283	-0.285850	-0.074823	-0.913920
24095		5.485313	-0.248355	8.006334	-0.000321	-0.004866	0.001097	-0.718506	0.347900	-0.189209	0.278287	-0.285823	-0.074812	-0.913928
24096		5.480972	-0.234028	8.028789	0.000208	-0.002958	0.000182	-0.721680	0.341309	-0.187500	0.278332	-0.285817	-0.074825	-0.913915
24097		5.482234	-0.229681	8.009286	0.000959	-0.003408	-0.001033	-0.726562	0.343506	-0.189941	0.278308	-0.285811	-0.074834	-0.913924
24098		5.494133	-0.240832	8.026648	-0.000161	-0.004246	-0.000502	-0.719482	0.343994	-0.184326	0.278286	-0.285816	-0.074832	-0.913929
24099		5.487573	-0.250229	8.014116	-0.000608	0.000471	0.000099	-0.715088	0.342041	-0.187744	0.278299	-0.285786	-0.074815	-0.913936
24100		5.480209	-0.226414	8.039072	0.000752	-0.000450	-0.001215	-0.724854	0.338379	-0.196777	0.278303	-0.285745	-0.074821	-0.913947
24101		5.473744	-0.238151	8.035794	-0.003538	-0.007359	0.001576	-0.718750	0.348145	-0.196045	0.278259	-0.285770	-0.074769	-0.913957
24102		5.466753	-0.237315	8.014624	-0.006517	-0.011610	0.001272	-0.725342	0.344971	-0.197510	0.278289	-0.285864	-0.074730	-0.913921
24103		5.491697	-0.256934	8.029865	-0.002816	-0.009011	0.001327	-0.718262	0.343018	-0.189209	0.278290	-0.285909	-0.074708	-0.913909
24104		5.479510	-0.239138	8.022442	-0.003024	-0.006052	0.001145	-0.717529	0.341309	-0.192627	0.278298	-0.285944	-0.074680	-0.913898
24105		5.480743	-0.239538	8.021588	-0.001025	-0.006243	-0.001235	-0.725830	0.347900	-0.186523	0.278275	-0.285958	-0.074678	-0.913900
24106		5.470448	-0.234631	8.031127	-0.003733	-0.011053	-0.003286	-0.723389	0.334473	-0.197754	0.278237	-0.286067	-0.074681	-0.913878
24107		5.502183	-0.222597	8.003187	-0.004188	-0.012320	0.001029	-0.725342	0.346924	-0.187256	0.278150	-0.286140	-0.074631	-0.913886
24108		5.500742	-0.259716	8.023582	-0.003165	-0.009703	0.000165	-0.720703	0.342285	-0.190186	0.278147	-0.286230	-0.074620	-0.913859
24109		5.495602	-0.230269	8.019052	-0.001518	-0.003328	0.000816	-0.718018	0.340088	-0.195068	0.278147	-0.286223	-0.074596	-0.913863
24110		5.479090	-0.245964	8.024734	0.001811	-0.002014	0.000183	-0.722412	0.343994	-0.185059	0.278147	-0.286168	-0.074603	-0.913880
24111		5.498009	-0.245614	8.044983	0.000352	-0.002939	-0.000933	-0.725342	0.338867	-0.189209	0.278138	-0.286171	-0.074609	-0.913881
24112		5.509261	-0.234913	8.007199	0.000352	-0.002939	-0.000933	-0.726074	0.341797	-0.192627	0.278079	-0.286155	-0.074597	-0.913905
24113		5.499948	-0.238665	8.015665	0.003058	-0.001755	-0.000983	-0.724365	0.342773	-0.194824	0.278052	-0.286106	-0.074619	-0.913927
24114		5.488743	-0.228901	8.007190	-0.000212	-0.000666	-0.002282	-0.720947	0.350586	-0.187256	0.278016	-0.286048	-0.074607	-0.913957
24115		5.476564	-0.227606	8.036729	0.003014	-0.003557	0.000467	-0.723877	0.341553	-0.194336	0.278091	-0.286051	-0.074659	-0.913929
24116		5.503809	-0.247045	8.012613	-0.001914	-0.005819	0.001100	-0.724121	0.340332	-0.193604	0.278074	-0.286061	-0.074632	-0.913933
24117		5.490433	-0.233049	8.024710	-0.000893	-0.003199	0.000234	-0.727539	0.342285	-0.197998	0.278043	-0.286038	-0.074607	-0.913952
24118		5.469522	-0.230117	8.034292	0.000353	-0.002940	-0.000932	-0.727783	0.341064	-0.188965	0.278006	-0.285994	-0.074600	-0.913978
24119		5.484661	-0.242275	8.011635	0.000693	-0.002853	0.000717	-0.728271	0.337646	-0.192139	0.277972	-0.285984	-0.074588	-0.913992
24120		5.473108	-0.239278	8.031409	0.000310	-0.004743	0.000518	-0.718262	0.346191	-0.194580	0.277905	-0.285980	-0.074569	-0.914015
24121		5.486390	-0.209736	8.047464	-0.004505	-0.008185	0.001003	-0.731201	0.335938	-0.194092	0.277943	-0.286027	-0.074542	-0.913991
24122		5.488633	-0.241447	7.999533	-0.002168	-0.008289	0.000270	-0.727051	0.340576	-0.197998	0.277835	-0.286064	-0.074499	-0.914016
24123		5.488892	-0.250194	8.036720	-0.000326	-0.005475	0.001585	-0.725586	0.342285	-0.194092	0.277814	-0.286051	-0.074481	-0.914028
24124		5.476333	-0.233952	8.038947	-0.001417	-0.008740	-0.000945	-0.729492	0.346680	-0.194336	0.277772	-0.286093	-0.074478	-0.914028
24125		5.480895	-0.241291	8.026037	-0.000722	-0.011596	-0.000227	-0.722168	0.339111	-0.192383	0.277751	-0.286173	-0.074494	-0.914008
24126		5.495329	-0.242397	7.994905	-0.002138	-0.007090	-0.000694	-0.726318	0.339844	-0.204590	0.277704	-0.286199	-0.074473	-0.914015
24127		5.489004	-0.220982	8.028607	-0.000651	-0.004962	-0.000546	-0.721191	0.336914	-0.186279	0.277671	-0.286149	-0.074460	-0.914042
24128		5.484971	-0.241753	8.023238	-0.000169	-0.004854	-0.000014	-0.728760	0.344238	-0.193359	0.277617	-0.286166	-0.074446	-0.914054
24129		5.483627	-0.234904	8.033946	-0.003368	-0.006749	-0.000009	-0.730225	0.345459	-0.195312	0.277577	-0.286200	-0.074409	-0.914059
24130		5.488023	-0.242728	8.021122	-0.002926	-0.012076	-0.000122	-0.720215	0.343018	-0.187012	0.277537	-0.286288	-0.074397	-0.914045
24131		5.488111	-0.234137	8.021490	-0.004142	-0.011135	0.000080	-0.718994	0.343506	-0.193848	0.277521	-0.286394	-0.074376	-0.914018
24132		5.507522	-0.219423	8.013733	-0.005613	-0.012664	-0.000548	-0.720703	0.342041	-0.192139	0.277519	-0.286491	-0.074354	-0.913990
24133		5.509075	-0.259500	8.003602	-0.002159	-0.008298	0.000277	-0.727051	0.338867	-0.190186	0.277517	-0.286534	-0.074345	-0.913978
24134		5.498314	-0.254653	8.013540	-0.001586	-0.003977	-0.002576	-0.731201	0.341309	-0.184082	0.277418	-0.286530	-0.074316	-0.914011
24135		5.492381	-0.229070	8.028316	-0.003692	-0.006238	-0.002137	-0.724854	0.348389	-0.190430	0.277293	-0.286593	-0.074264	-0.914034
24136		5.499093	-0.241832	7.994714	-0.002639	-0.008408	-0.000254	-0.728760	0.350342	-0.187012	0.277303	-0.286657	-0.074258	-0.914011
24137		5.488344	-0.243388	8.032739	-0.002625	-0.011438	-0.002833	-0.725830	0.345459	-0.190430	0.277261	-0.286772	-0.074267	-0.913987
24138		5.510132	-0.237669	8.022885	-0.005148	-0.013767	0.000958	-0.715820	0.339111	-0.193848	0.277244	-0.286901	-0.074238	-0.913954
24139		5.491890	-0.231614	8.011992	-0.005006	-0.013747	-0.000157	-0.723145	0.341553	-0.194336	0.277241	-0.286997	-0.074223	-0.913926
24140		5.520001	-0.258334	8.015126	-0.005119	-0.012567	-0.000006	-0.725342	0.340088	-0.194092	0.277211	-0.287085	-0.074193	-0.913910
24141		5.500707	-0.253873	8.014344	-0.001024	-0.006861	-0.000739	-0.726074	0.339355	-0.191162	0.277166	-0.287093	-0.074184	-0.913922
24142		5.497319	-0.235216	8.017594	-0.000963	-0.003850	-0.003158	-0.721436	0.352539	-0.194824	0.277079	-0.287076	-0.074168	-0.913955
24143		5.500161	-0.250999	8.043293	-0.003126	-0.009125	-0.000297	-0.729248	0.337891	-0.189941	0.277162	-0.287129	-0.074184	-0.913912
24144		5.503149	-0.245660	8.013097	-0.007193	-0.013630	-0.000527	-0.733154	0.342773	-0.190430	0.277038	-0.287254	-0.074110	-0.913916
24145		5.534526	-0.238148	8.003824	-0.002917	-0.012698	0.000375	-0.723633	0.341797	-0.191650	0.276955	-0.287360	-0.074084	-0.913910
24146		5.519391	-0.254234	8.008655	-0.002101	-0.005898	-0.001651	-0.729736	0.343994	-0.194580	0.276921	-0.287370	-0.074071	-0.913918
24147		5.499482	-0.253695	8.027092	-0.001800	-0.011858	-0.000161	-0.724609	0.335449	-0.193848	0.276882	-0.287442	-0.074070	-0.913908
24148		5.517100	-0.222921	7.992842	-0.004097	-0.009950	-0.000870	-0.722900	0.345459	-0.194824	0.276794	-0.287486	-0.074029	-0.913924
24149		5.534728	-0.253387	8.005283	-0.001052	-0.008675	0.000716	-0.729736	0.342773	-0.189209	0.276837	-0.287515	-0.074044	-0.913901
24150		5.517167	-0.253298	7.984142	0.001965	-0.001393	-0.001422	-0.722900	0.339355	-0.187012	0.276783	-0.287475	-0.074048	-0.913929
24151		5.492878	-0.246891	8.024876	0.001252	0.000865	-0.001655	-0.726807	0.344727	-0.187744	0.276741	-0.287413	-0.074042	-0.913962
24152		5.500869	-0.233108	8.017701	-0.001478	-0.005769	-0.002234	-0.720703	0.349365	-0.191895	0.276693	-0.287443	-0.074034	-0.913967
24153		5.521905	-0.224765	7.998914	-0.001900	-0.010076	-0.000493	-0.721191	0.342041	-0.198486	0.276760	-0.287508	-0.074063	-0.913924
24154		5.528213	-0.243739	7.993618	-0.002141	-0.008314	0.000289	-0.720703	0.339844	-0.196777	0.276789	-0.287511	-0.074064	-0.913914
24155		5.510393	-0.250340	8.000805	-0.000995	-0.005662	-0.001702	-0.731201	0.337646	-0.192383	0.276779	-0.287483	-0.074070	-0.913926
24156		5.511180	-0.252504	8.009649	-0.000283	-0.004285	0.000624	-0.722656	0.337158	-0.189209	0.276690	-0.287466	-0.074035	-0.913961
24157		5.512257	-0.250161	7.999526	0.002187	-0.004363	-0.001236	-0.729248	0.337158	-0.188721	0.276639	-0.287447	-0.074053	-0.913981
24158		5.517961	-0.228989	8.003780	0.000852	-0.002236	-0.000883	-0.721191	0.351074	-0.186279	0.276538	-0.287416	-0.074029	-0.914023
24159		5.503503	-0.255709	8.017132	0.001462	-0.002708	-0.000985	-0.724121	0.348389	-0.186523	0.276618	-0.287415	-0.074072	-0.913996
24160		5.531296	-0.233645	7.991971	-0.000796	-0.006203	0.001547	-0.714355	0.343750	-0.189453	0.276670	-0.287462	-0.074078	-0.913965
24161		5.513413	-0.238145	7.989828	-0.001120	-0.005083	-0.001068	-0.716064	0.344482	-0.186768	0.276735	-0.287465	-0.074100	-0.913943
24162		5.514309	-0.240753	7.998586	-0.002644	-0.005995	0.002822	-0.723877	0.338623	-0.196533	0.276822	-0.287503	-0.074088	-0.913905
24163		5.507886	-0.256800	8.014086	0.000088	-0.006631	-0.000788	-0.725342	0.337891	-0.187500	0.276784	-0.287484	-0.074094	-0.913922
24164		5.483810	-0.231508	8.008244	-0.004458	-0.007614	0.000554	-0.724121	0.342773	-0.190186	0.276705	-0.287539	-0.074033	-0.913934
24165		5.497624	-0.239873	8.005445	-0.005377	-0.013240	0.002735	-0.727051	0.338379	-0.193359	0.276709	-0.287655	-0.073994	-0.913899
24166		5.472363	-0.164752	8.029256	-0.025797	-0.032139	0.013734	-0.724121	0.337891	-0.193604	0.276689	-0.288047	-0.073730	-0.913803
24167		5.466646	-0.211415	8.074028	-0.052482	-0.068140	0.033244	-0.724365	0.335449	-0.183350	0.276781	-0.288952	-0.073221	-0.913530
24168		5.513831	-0.222969	8.024628	-0.067608	-0.090303	0.040817	-0.728027	0.354004	-0.177246	0.276822	-0.290208	-0.072568	-0.913172
24169		5.558183	-0.307601	7.996689	-0.084721	-0.106951	0.052627	-0.716797	0.344238	-0.181396	0.277049	-0.291771	-0.071775	-0.912667
24170		5.603761	-0.339643	7.948957	-0.082852	-0.115900	0.054417	-0.723389	0.351318	-0.178223	0.277302	-0.293372	-0.071031	-0.912135
24171		5.633280	-0.392381	7.896388	-0.068994	-0.096081	0.046878	-0.724121	0.345947	-0.177490	0.277539	-0.294706	-0.070405	-0.911682
24172		5.656602	-0.400278	7.896279	-0.048120	-0.070307	0.030979	-0.725586	0.353516	-0.172363	0.277626	-0.295643	-0.069963	-0.911386
24173		5.641298	-0.427556	7.883865	-0.036483	-0.045255	0.017938	-0.726562	0.353516	-0.180420	0.277676	-0.296272	-0.069630	-0.911192
24174		5.668473	-0.394454	7.898081	-0.025669	-0.028853	0.008356	-0.730469	0.357666	-0.177734	0.277687	-0.296621	-0.069405	-0.911092
24175		5.663313	-0.403958	7.903607	-0.017459	-0.016683	0.005169	-0.732422	0.351562	-0.175049	0.277706	-0.296819	-0.069244	-0.911034
24176		5.637135	-0.413022	7.900115	-0.008661	-0.008006	-0.000722	-0.724854	0.357910	-0.177246	0.277613	-0.296886	-0.069146	-0.911048
24177		5.642724	-0.399446	7.933161	-0.000101	0.003669	-0.006798	-0.717285	0.358887	-0.176270	0.277623	-0.296779	-0.069172	-0.911078
24178		5.648572	-0.420143	7.908230	0.013770	0.003735	-0.011939	-0.722412	0.355469	-0.168457	0.277692	-0.296620	-0.069397	-0.911091
24179		5.664435	-0.448577	7.940527	0.029326	-0.003751	-0.016445	-0.721924	0.349121	-0.177246	0.277675	-0.296528	-0.069812	-0.911095
24180		5.638867	-0.361948	7.976637	0.039744	-0.027001	-0.022324	-0.733154	0.354980	-0.176270	0.277560	-0.296607	-0.070432	-0.911056
24181		5.653471	-0.233877	7.957647	0.042846	-0.065373	-0.015350	-0.727539	0.351318	-0.164307	0.277504	-0.297139	-0.071195	-0.910841
24182		5.603415	-0.350199	8.065627	0.037743	-0.123355	-0.008118	-0.724121	0.348145	-0.168945	0.277445	-0.298404	-0.072068	-0.910377
24183		5.816331	-0.310429	8.110078	-0.012778	-0.211210	-0.015421	-0.729736	0.349121	-0.162842	0.277035	-0.300796	-0.072699	-0.909664
24184		5.638616	0.063784	8.213987	-0.114285	-0.308299	0.011318	-0.732422	0.340576	-0.161133	0.276438	-0.304680	-0.072404	-0.908576
24185		6.137831	0.745816	8.689563	-0.271927	-0.420841	0.090466	-0.735596	0.354492	-0.143066	0.275922	-0.310411	-0.070366	-0.906951
24186		6.809459	1.420181	8.680875	-0.608829	-0.312438	0.160728	-0.732178	0.369141	-0.134277	0.275069	-0.316179	-0.063893	-0.905696
24187		6.471362	2.921631	7.495862	-1.153745	-0.032490	-0.068522	-0.735596	0.372559	-0.123535	0.269782	-0.320424	-0.051239	-0.906598
24188		8.362916	0.634093	8.117477	-0.507545	0.496446	-1.166689	-0.742188	0.350586	-0.132080	0.254917	-0.315716	-0.048524	-0.912681
24189		5.072378	1.747521	5.966147	0.052654	0.724501	-1.652455	-0.760254	0.318604	-0.139404	0.236767	-0.306177	-0.053379	-0.920515
24190		4.977321	-1.503443	4.831640	-0.007364	0.390672	-1.368257	-0.767334	0.295898	-0.144043	0.221306	-0.300758	-0.057418	-0.925889
24191		4.013777	-1.667256	3.902211	0.364906	-0.164745	-0.618353	-0.791504	0.271240	-0.143066	0.215542	-0.301236	-0.064489	-0.926628
24192		2.106027	-1.288691	2.475947	0.290828	-1.133652	0.165786	-0.792969	0.280762	-0.125977	0.217583	-0.313720	-0.070290	-0.921573
24193		9.163304	-6.715299	14.367050	0.057766	0.025757	1.124726	-0.780762	0.303223	-0.133789	0.230807	-0.314246	-0.066497	-0.918453
24194		8.102206	1.298928	10.582906	0.113387	0.647652	0.882654	-0.760010	0.330566	-0.141602	0.241933	-0.307163	-0.062458	-0.918269
24195		4.185148	-2.760348	8.238130	-0.024169	0.489989	0.085546	-0.763672	0.329590	-0.155029	0.243354	-0.301678	-0.060413	-0.919848
24196		5.450093	-0.429586	8.359482	0.010618	0.328026	-0.010942	-0.760498	0.329346	-0.157227	0.243602	-0.297836	-0.059592	-0.921087
24197		5.521302	0.620957	8.317805	-0.056110	0.094309	0.045367	-0.760254	0.326660	-0.157959	0.244070	-0.296934	-0.058502	-0.921324
24198		5.598406	-0.048508	8.073814	-0.155885	-0.029030	0.160907	-0.755615	0.322510	-0.155029	0.245374	-0.297831	-0.056203	-0.920831
24199		5.368406	-1.130430	7.927204	-0.139843	-0.029443	0.131164	-0.746338	0.332031	-0.145264	0.246346	-0.298652	-0.054187	-0.920426
24200		5.478594	-0.494088	7.982719	-0.131743	-0.039067	0.085499	-0.754395	0.329346	-0.150146	0.246865	-0.299546	-0.052478	-0.920096
24201		5.678891	-0.594514	7.944686	-0.127436	-0.062664	0.085769	-0.743652	0.336914	-0.151611	0.247342	-0.300673	-0.050875	-0.919690
24202		5.597157	-0.556032	7.985903	-0.109343	-0.075634	0.076100	-0.750244	0.340332	-0.135254	0.247781	-0.301878	-0.049559	-0.919249
24203		5.595918	-0.601871	7.998052	-0.111685	-0.109620	0.072833	-0.752930	0.342529	-0.140137	0.248181	-0.303507	-0.048347	-0.918669
24204		5.627830	-0.577799	7.944641	-0.098896	-0.138290	0.070252	-0.746094	0.344727	-0.133545	0.248563	-0.305403	-0.047372	-0.917987
24205		5.705393	-0.638810	7.902289	-0.088883	-0.148197	0.070152	-0.747314	0.352539	-0.128662	0.248979	-0.307384	-0.046544	-0.917256
24206		5.797683	-0.655021	7.770004	-0.072552	-0.140435	0.073997	-0.745605	0.348145	-0.135498	0.249525	-0.309228	-0.045873	-0.916521
24207		5.757652	-0.812771	7.689828	-0.055497	-0.106177	0.062180	-0.745117	0.348145	-0.132080	0.249972	-0.310597	-0.045317	-0.915964
24208		5.645407	-0.798989	7.861086	-0.055083	-0.091854	0.052220	-0.745850	0.345459	-0.123291	0.250310	-0.311795	-0.044759	-0.915492
24209		5.823938	-0.754957	7.759842	-0.048038	-0.094610	0.037257	-0.756348	0.362793	-0.129395	0.250500	-0.313001	-0.044347	-0.915048
24210		5.894364	-0.653800	7.699289	-0.035437	-0.075678	0.033482	-0.739014	0.353027	-0.125000	0.250746	-0.313944	-0.044050	-0.914672
24211		5.746771	-0.739894	7.813366	-0.044546	-0.060314	0.052431	-0.747559	0.361816	-0.128174	0.251145	-0.314749	-0.043513	-0.914312
24212		5.782465	-0.848340	7.783526	-0.043555	-0.067870	0.041896	-0.747803	0.365479	-0.124268	0.251441	-0.315628	-0.043059	-0.913949
24213		5.850884	-0.992292	7.708989	-0.019083	-0.062808	0.016748	-0.742676	0.352539	-0.119141	0.251556	-0.316362	-0.042972	-0.913667
24214		5.843544	-0.814114	7.778779	-0.000449	-0.053417	0.000693	-0.753174	0.359619	-0.119629	0.251529	-0.316920	-0.043115	-0.913475
24215		5.813355	-0.857444	7.908065	0.029071	-0.101243	-0.011185	-0.750977	0.353271	-0.117676	0.251477	-0.317926	-0.043801	-0.913107
24216		5.917841	-0.869426	7.938228	0.090584	-0.187371	-0.049759	-0.748779	0.354248	-0.103516	0.251162	-0.319697	-0.045604	-0.912487
24217		5.744665	-0.865440	8.140362	0.147869	-0.301700	-0.069951	-0.761475	0.355469	-0.099854	0.250795	-0.322588	-0.048508	-0.911420
24218		5.613646	-0.158456	8.564285	0.168455	-0.550609	-0.063591	-0.761719	0.351562	-0.104980	0.250428	-0.328241	-0.052399	-0.909284
24219		5.820936	0.165385	8.796788	0.196257	-0.943725	0.040376	-0.760986	0.346436	-0.094482	0.251053	-0.338295	-0.057396	-0.905116
24220		5.963050	1.230256	10.061388	-0.229210	-1.476257	0.359974	-0.769287	0.356934	-0.059082	0.253032	-0.355844	-0.057878	-0.897775
24221		7.731635	1.348259	10.940712	-1.129982	-2.057298	0.917182	-0.758545	0.377441	-0.005371	0.256677	-0.382924	-0.047580	-0.886128
24222		13.223052	0.485349	9.060094	-2.439072	-2.530023	1.646563	-0.743408	0.422363	0.073730	0.261434	-0.419229	-0.020746	-0.869177
24223		15.272269	-0.262832	5.047588	-4.591772	-2.831905	2.188769	-0.698242	0.467285	0.191406	0.259768	-0.464385	0.031347	-0.846100
24224		19.976346	-9.555341	4.068219	-3.447012	-2.355297	0.330757	-0.674805	0.472900	0.289795	0.243850	-0.499667	0.061990	-0.828871
24225		15.825869	-4.648688	3.880646	-1.241782	-1.098144	-1.560122	-0.694580	0.428711	0.324463	0.220694	-0.515798	0.061712	-0.825493
24226		13.920856	-4.086652	4.452434	-1.387178	-0.923099	-2.023798	-0.699707	0.390137	0.359375	0.191477	-0.530402	0.060359	-0.823631
24227		12.505554	-5.653266	5.156928	-0.812010	-0.889898	-1.893746	-0.716553	0.356201	0.371826	0.167208	-0.542698	0.053964	-0.821346
24228		8.991791	-2.711689	5.716872	-0.303568	-0.763759	-1.878119	-0.732910	0.311279	0.379639	0.146339	-0.552233	0.042685	-0.819635
24229		5.921749	-1.703796	6.439270	-0.212784	-0.614591	-2.188638	-0.753174	0.264648	0.377441	0.122730	-0.559829	0.028575	-0.818970
24230		4.689085	-1.796020	6.769769	-0.053058	-0.408682	-2.097092	-0.774902	0.217285	0.368652	0.101006	-0.564607	0.013767	-0.819041
24231		2.366054	-1.508419	6.013521	0.107304	-0.114390	-1.516861	-0.796631	0.186279	0.361084	0.086246	-0.565758	0.001782	-0.820046
24232		1.142151	0.047852	5.917643	0.067201	0.078322	-0.965223	-0.808350	0.167236	0.344727	0.076828	-0.564815	-0.005678	-0.821614
24233		0.230990	0.554036	5.876614	0.128189	0.510621	-0.666973	-0.814697	0.146729	0.334717	0.070924	-0.559315	-0.011240	-0.825839
24234		-0.574981	1.885475	5.550022	0.232107	0.853265	-0.611616	-0.824951	0.138916	0.305908	0.066355	-0.550105	-0.017181	-0.832278
24235		0.224022	2.212734	5.920958	0.250573	1.224906	-0.736944	-0.843750	0.123291	0.271240	0.060674	-0.536840	-0.023867	-0.841161
24236		1.079608	1.539360	5.731469	0.385608	1.754253	-1.012116	-0.861572	0.106689	0.229492	0.053136	-0.517551	-0.033410	-0.853347
24237		2.357211	0.578187	5.183361	0.462678	2.108905	-1.077607	-0.877441	0.078613	0.177979	0.045506	-0.493988	-0.043939	-0.867165
24238		4.076623	0.183056	4.408304	0.429453	2.262033	-0.837959	-0.874023	0.057617	0.114990	0.040310	-0.468452	-0.052499	-0.881006
24239		6.994962	-0.586590	4.812640	0.488299	2.356072	-0.603744	-0.879150	0.043701	0.058838	0.038062	-0.441555	-0.060235	-0.894400
24240		8.257726	-1.381867	4.040847	0.589752	2.409159	-0.271141	-0.883789	0.038086	-0.006836	0.040094	-0.413838	-0.067181	-0.906982
24241		10.513456	-1.674942	3.575435	0.570727	2.084788	0.136364	-0.875488	0.044678	-0.056885	0.046338	-0.389796	-0.071902	-0.916920
24242		11.965230	-1.277018	3.338244	0.502999	1.580094	0.515282	-0.862305	0.051514	-0.098877	0.056111	-0.371686	-0.074243	-0.923682
24243		11.502966	-1.150499	4.519720	0.491827	1.200281	0.585313	-0.849121	0.055420	-0.134277	0.066266	-0.357893	-0.076362	-0.928273
24244		9.640255	-0.680839	5.031230	0.478425	0.910313	0.498360	-0.848389	0.063232	-0.152832	0.075056	-0.347306	-0.078931	-0.931405
24245		9.046173	-1.190888	5.637419	0.418982	0.637091	0.594900	-0.840088	0.073730	-0.171631	0.084429	-0.339993	-0.080628	-0.933154
24246		9.332489	-1.736421	6.722076	0.190219	0.437299	0.882891	-0.818848	0.093018	-0.181396	0.095972	-0.335495	-0.078627	-0.933837
24247		7.803397	-1.258230	7.115568	-0.026994	0.365312	1.082410	-0.810547	0.112305	-0.174561	0.108841	-0.332236	-0.073319	-0.934022
24248		6.079658	-0.431930	6.564703	-0.194270	0.148363	0.910345	-0.797363	0.136475	-0.181885	0.118787	-0.331524	-0.067050	-0.933534
24249		5.072221	-0.402468	5.496465	-0.126462	0.050585	0.597335	-0.799561	0.153320	-0.187500	0.125267	-0.331557	-0.063005	-0.932957
24250		4.680086	-0.574089	4.945377	-0.033212	-0.098414	0.558819	-0.795166	0.166748	-0.177734	0.131559	-0.333134	-0.060435	-0.931698
24251		4.839009	-0.682930	4.912493	-0.091926	-0.199592	0.585784	-0.790039	0.177490	-0.181396	0.137836	-0.335988	-0.057230	-0.929967
24252		17.617297	4.736996	14.586921	-0.417230	0.744601	0.249193	-0.779785	0.193359	-0.193359	0.139495	-0.328156	-0.050024	-0.932927
24253		7.502425	0.231936	5.259610	-0.162604	1.955048	0.001920	-0.762451	0.192627	-0.228516	0.140033	-0.305496	-0.044692	-0.940779
24254		1.010521	-0.597385	12.477706	-0.135510	0.982573	0.144187	-0.752686	0.188965	-0.241455	0.141754	-0.294190	-0.040824	-0.944294
24255		4.357927	-1.838337	9.648598	-0.020068	-0.243917	0.039908	-0.750000	0.198730	-0.238037	0.142024	-0.297071	-0.040864	-0.943350
24256		6.139672	0.046091	7.120240	0.005994	-0.329567	-0.024758	-0.755127	0.196533	-0.232910	0.141578	-0.300875	-0.041595	-0.942178
24257		7.282254	0.539679	6.317259	-0.004497	0.195416	0.002353	-0.751221	0.191895	-0.238037	0.141684	-0.298528	-0.041173	-0.942927
24258		5.369194	0.129334	8.289973	-0.057212	0.465212	0.117836	-0.748291	0.200928	-0.247314	0.143094	-0.293149	-0.039224	-0.944484
24259		4.042916	-0.821776	9.016323	-0.061504	0.176211	0.050970	-0.742920	0.205078	-0.254150	0.143553	-0.291151	-0.037986	-0.945082
24260		6.235622	0.085436	7.588024	-0.051196	0.082504	0.007896	-0.743896	0.203369	-0.247314	0.143494	-0.290217	-0.037191	-0.945410
24261		5.709895	-0.035266	7.938183	-0.032644	0.221290	0.047591	-0.740234	0.209717	-0.248779	0.144036	-0.287628	-0.036223	-0.946156
24262		5.165820	-0.477195	8.436047	-0.007706	0.159491	0.030611	-0.745850	0.209961	-0.258789	0.144438	-0.285716	-0.035724	-0.946693
24263		5.394517	-0.249146	8.133225	-0.000230	0.070335	0.016580	-0.738281	0.205566	-0.265381	0.144660	-0.284838	-0.035522	-0.946931
24264		5.437270	-0.110729	8.111666	0.012413	0.081547	0.011274	-0.738525	0.203125	-0.260254	0.144869	-0.283801	-0.035469	-0.947213
24265		5.181719	-0.286277	8.258935	0.009899	0.044321	0.009151	-0.735107	0.200684	-0.257568	0.145027	-0.283209	-0.035461	-0.947366
24266		5.237325	-0.153257	8.164862	0.006886	0.008403	-0.001465	-0.739746	0.212402	-0.259766	0.145033	-0.283043	-0.035519	-0.947413
24267		5.336980	-0.242246	8.148208	0.008525	0.007532	-0.008011	-0.736328	0.209717	-0.266846	0.144967	-0.282881	-0.035622	-0.947467
24268		5.215932	-0.127810	8.154102	0.014716	0.009529	-0.020300	-0.732910	0.193359	-0.265869	0.144777	-0.282679	-0.035838	-0.947548
24269		5.239016	0.010990	8.226245	-0.005819	-0.021036	-0.012239	-0.736328	0.197754	-0.253174	0.144597	-0.282879	-0.035837	-0.947516
24270		5.262016	0.076155	8.194599	-0.022621	-0.049624	-0.007898	-0.738281	0.205322	-0.258789	0.144397	-0.283450	-0.035674	-0.947382
24271		5.386967	-0.278151	8.120382	-0.034053	-0.072544	0.003989	-0.737549	0.202637	-0.251709	0.144287	-0.284318	-0.035376	-0.947150
24272		5.391803	-0.355738	8.187655	-0.022692	-0.069755	-0.010361	-0.743896	0.203125	-0.265625	0.144048	-0.285126	-0.035258	-0.946948
24273		5.384713	-0.368948	8.235069	0.002753	-0.094626	-0.024791	-0.737549	0.202637	-0.262695	0.143718	-0.286176	-0.035537	-0.946671
24274		5.440085	-0.219066	8.034928	0.020357	-0.103528	-0.038426	-0.744873	0.208252	-0.257080	0.143284	-0.287293	-0.036088	-0.946377
24275		5.593532	-0.042527	8.030485	0.027504	-0.055629	-0.037128	-0.745850	0.201172	-0.244629	0.142914	-0.287831	-0.036633	-0.946249
24276		5.329920	-0.151810	8.228336	0.029114	-0.089129	-0.018933	-0.741211	0.202637	-0.253906	0.142749	-0.288771	-0.037192	-0.945966
24277		5.330507	-0.254925	8.139501	0.032205	-0.139290	-0.019685	-0.743164	0.201660	-0.246826	0.142563	-0.290297	-0.037880	-0.945499
24278		5.421701	-0.241479	8.139199	0.042232	-0.146020	-0.034410	-0.749756	0.193604	-0.252197	0.142235	-0.291877	-0.038751	-0.945027
24279		5.235516	0.042827	8.222320	0.034729	-0.214005	-0.028669	-0.741211	0.195557	-0.246826	0.141914	-0.294274	-0.039633	-0.944295
24280		5.297373	-0.321196	8.312608	0.092079	-0.329302	-0.023651	-0.756104	0.194092	-0.236572	0.141804	-0.297929	-0.041377	-0.943090
24281		5.105929	-0.117367	8.855219	0.173311	-0.733071	-0.056387	-0.769531	0.194580	-0.218994	0.141394	-0.306166	-0.044913	-0.940347
24282		5.132614	-0.602183	9.073971	0.352127	-1.244758	-0.138236	-0.777100	0.190186	-0.206299	0.140394	-0.320001	-0.051760	-0.935527
24283		6.339532	-0.736302	8.757668	0.622028	-1.579014	-0.156582	-0.794678	0.179199	-0.179443	0.139990	-0.337143	-0.062400	-0.928894
24284		8.493225	1.066160	8.458667	0.773661	-1.233207	0.204626	-0.792480	0.174805	-0.163086	0.144633	-0.350153	-0.072646	-0.922603
24285		9.974953	0.154444	7.057360	0.328592	-0.510778	1.374329	-0.789551	0.194580	-0.153076	0.161426	-0.356579	-0.071312	-0.917446
24286		5.803086	1.194814	4.030056	-0.015680	0.001013	1.446063	-0.772217	0.224609	-0.155762	0.177910	-0.357777	-0.064656	-0.914420
24287		6.225717	1.645452	5.182928	0.117421	0.024188	0.132199	-0.773438	0.225098	-0.161377	0.179965	-0.357294	-0.065341	-0.914157
24288		4.911544	-0.504743	4.153729	0.244566	0.038197	-0.331606	-0.782227	0.220215	-0.162598	0.177301	-0.355982	-0.069523	-0.914881
24289		3.999297	-1.681515	4.305121	0.212211	-0.158177	0.079356	-0.783203	0.221436	-0.155273	0.179018	-0.357339	-0.071941	-0.913830
24290		3.886549	-0.296882	5.646094	0.088185	-0.085041	0.533075	-0.773193	0.225586	-0.160400	0.185422	-0.358536	-0.070744	-0.912177
24291		8.058237	1.103548	9.413405	-0.005658	0.551317	0.277211	-0.765381	0.235596	-0.169922	0.189040	-0.352447	-0.068143	-0.914003
24292		10.979674	0.187249	7.373487	0.188844	1.382852	0.008024	-0.753662	0.233887	-0.197754	0.191113	-0.336105	-0.066976	-0.919795
24293		4.564876	-1.186555	10.336725	-0.044131	0.967565	-0.206744	-0.745850	0.226562	-0.220459	0.189351	-0.324840	-0.065015	-0.924337
24294		5.038346	-0.507826	9.205576	-0.051310	0.526712	-0.245665	-0.736572	0.227783	-0.231445	0.186727	-0.318617	-0.064158	-0.927092
24295		6.102393	1.076919	7.806615	-0.058654	0.116204	-0.193907	-0.746094	0.224609	-0.234619	0.184336	-0.317198	-0.063963	-0.928070
24296		5.628389	0.743144	7.419915	-0.084935	0.094127	0.018651	-0.746338	0.228271	-0.235596	0.184289	-0.316263	-0.062674	-0.928487
24297		6.398394	0.415917	6.934638	-0.112194	0.287029	0.177211	-0.736816	0.228760	-0.224609	0.186126	-0.313272	-0.059999	-0.929310
24298		6.015619	-0.897829	7.576187	-0.084750	0.494690	0.134044	-0.736084	0.233154	-0.241699	0.187719	-0.307765	-0.057329	-0.930997
24299		5.626881	-0.926027	8.098705	-0.025868	0.543770	-0.041235	-0.730225	0.226807	-0.249512	0.187525	-0.301409	-0.055899	-0.933200
24300		5.337694	0.394269	8.437155	0.008960	0.389516	-0.068345	-0.725586	0.231201	-0.264404	0.187030	-0.296740	-0.055334	-0.934828
24301		5.213404	0.516049	8.300854	-0.004216	0.173548	0.067199	-0.715820	0.229736	-0.257324	0.187918	-0.294715	-0.054617	-0.935333
24302		5.746438	-0.405142	7.665123	0.005701	0.170957	0.064278	-0.712402	0.237061	-0.262695	0.188806	-0.292692	-0.054035	-0.935823
24303		5.501012	0.008294	7.879860	0.015677	0.260897	0.029325	-0.714111	0.233643	-0.267334	0.189380	-0.289568	-0.053483	-0.936710
24304		5.493288	-0.174896	8.033609	0.030541	0.323412	0.032850	-0.702881	0.242432	-0.276367	0.190089	-0.285675	-0.052945	-0.937792
24305		5.150426	-0.000930	8.318774	0.021665	0.248033	0.041073	-0.703613	0.233398	-0.286133	0.190810	-0.282688	-0.052452	-0.938578
24306		5.438941	0.078998	8.083508	-0.012372	0.191630	0.066691	-0.695557	0.235840	-0.280518	0.191673	-0.280458	-0.051602	-0.939118
24307		5.271643	-0.245171	8.274936	-0.029970	0.168059	0.070553	-0.699463	0.233398	-0.290283	0.192503	-0.278548	-0.050590	-0.939571
24308		5.029563	-0.303849	8.481811	-0.029352	0.068747	0.049805	-0.695068	0.235840	-0.294922	0.193028	-0.277789	-0.049895	-0.939726
24309		5.361680	-0.039661	8.186373	-0.040546	0.014400	0.041413	-0.700195	0.241211	-0.279541	0.193381	-0.277689	-0.049229	-0.939718
24310		5.200000	-0.295113	8.282337	-0.026604	-0.001340	0.031637	-0.695068	0.236816	-0.291016	0.193657	-0.277734	-0.048798	-0.939670
24311		5.346657	-0.338863	8.165647	0.028779	0.005611	-0.018019	-0.698242	0.238037	-0.288086	0.193547	-0.277533	-0.049173	-0.939732
24312		5.211587	-0.326920	8.228474	0.054030	0.004596	-0.032469	-0.693359	0.229980	-0.289307	0.193354	-0.277274	-0.049897	-0.939810
24313		5.410135	-0.185767	8.086539	0.074189	0.037171	-0.047857	-0.695557	0.237549	-0.287598	0.193070	-0.276574	-0.050832	-0.940025
24314		5.088106	-0.152524	8.300287	0.096029	0.042147	-0.062449	-0.697021	0.241943	-0.296631	0.192692	-0.275752	-0.052062	-0.940277
24315		5.195376	-0.273548	8.287535	0.127762	0.042685	-0.101277	-0.693359	0.228271	-0.291016	0.191967	-0.274822	-0.053797	-0.940599
24316		5.251854	-0.529995	8.273975	0.180026	0.106549	-0.156279	-0.694824	0.225098	-0.297607	0.190816	-0.272976	-0.056181	-0.941232
24317		5.327216	0.168679	8.235714	0.183330	0.153653	-0.184406	-0.693848	0.225098	-0.298096	0.189375	-0.270545	-0.058585	-0.942078
24318		5.210841	0.323889	8.346289	0.139354	0.144648	-0.133770	-0.696533	0.214844	-0.303711	0.188373	-0.268358	-0.060322	-0.942794
24319		4.891726	0.428656	8.223249	0.116571	0.074352	-0.098465	-0.691650	0.218750	-0.310303	0.187657	-0.267078	-0.061837	-0.943202
24320		4.853880	0.290515	8.329421	0.061832	-0.005610	-0.059775	-0.697998	0.213379	-0.312988	0.187152	-0.266899	-0.062767	-0.943292
24321		5.106930	0.335039	8.204176	0.048582	-0.030554	-0.033513	-0.702148	0.211426	-0.309082	0.186893	-0.267064	-0.063510	-0.943247
24322		5.016044	0.542002	8.165025	0.016280	-0.053857	-0.004212	-0.696289	0.209717	-0.317383	0.186854	-0.267602	-0.063830	-0.943080
24323		5.023776	0.394602	8.357185	-0.039355	-0.110754	0.056304	-0.704834	0.214111	-0.306152	0.187296	-0.268989	-0.063426	-0.942625
24324		5.212488	0.101020	8.209075	-0.057933	-0.135644	0.067115	-0.697998	0.214600	-0.299316	0.187783	-0.270721	-0.062824	-0.942073
24325		5.290596	0.081806	8.193325	-0.058855	-0.112008	0.063018	-0.694824	0.215820	-0.299072	0.188237	-0.272172	-0.062170	-0.941607
24326		5.322769	-0.193613	8.182675	-0.012509	-0.090200	0.029885	-0.703125	0.217285	-0.304688	0.188476	-0.273231	-0.062123	-0.941256
24327		5.443644	0.260758	8.106985	0.020634	-0.038131	0.013829	-0.697510	0.222900	-0.295654	0.188678	-0.273587	-0.062397	-0.941094
24328		5.048891	0.194489	8.246611	0.014557	-0.043078	0.017919	-0.705078	0.219971	-0.297119	0.188904	-0.274018	-0.062597	-0.940909
24329		5.158661	0.229351	8.289245	-0.007688	-0.095055	0.037784	-0.708252	0.216553	-0.308105	0.189247	-0.275129	-0.062591	-0.940517
24330		5.338205	-0.088380	8.190483	0.011046	-0.107251	0.025322	-0.703125	0.208252	-0.292969	0.189498	-0.276328	-0.062877	-0.940096
24331		5.391569	0.216739	8.095315	0.015654	-0.088806	0.021296	-0.709717	0.222656	-0.293701	0.189731	-0.277297	-0.063186	-0.939743
24332		5.271041	0.329602	8.020278	-0.005576	-0.054056	0.037925	-0.710938	0.227539	-0.297119	0.190114	-0.277920	-0.063107	-0.939486
24333		5.337640	-0.002483	8.109924	-0.009239	-0.033394	0.045990	-0.711914	0.220459	-0.296631	0.190596	-0.278316	-0.062908	-0.939285
24334		5.384528	-0.127499	8.060300	0.019120	-0.001609	0.021347	-0.707520	0.222412	-0.291748	0.190911	-0.278251	-0.063051	-0.939230
24335		5.263366	-0.115954	8.167035	0.057419	0.024702	-0.007737	-0.705811	0.215088	-0.298340	0.191039	-0.277764	-0.063683	-0.939306
24336		5.317237	0.307382	8.149059	0.066394	0.034200	-0.024576	-0.702881	0.216553	-0.299805	0.191007	-0.277129	-0.064454	-0.939447
24337		5.223880	0.107852	8.303396	0.062276	0.021984	-0.030013	-0.709229	0.222412	-0.292725	0.190888	-0.276643	-0.065226	-0.939562
24338		5.258196	0.325600	8.161764	0.040171	0.019218	-0.021302	-0.701416	0.211914	-0.299561	0.190791	-0.276250	-0.065714	-0.939663
24339		5.277669	-0.042917	8.204465	0.023548	0.004403	-0.031085	-0.699707	0.216309	-0.299561	0.190511	-0.276062	-0.066077	-0.939750
24340		5.235754	-0.002718	8.154950	0.018117	0.023660	-0.038301	-0.708008	0.219971	-0.297607	0.190142	-0.275654	-0.066354	-0.939925
24341		5.432632	0.624217	8.072191	-0.008390	0.012000	-0.019972	-0.700439	0.209229	-0.300537	0.189887	-0.275462	-0.066284	-0.940037
24342		5.405071	0.062377	8.155209	0.013649	0.040528	-0.006708	-0.703857	0.208252	-0.307129	0.189889	-0.274893	-0.066361	-0.940198
24343		5.199699	0.111985	8.256313	0.055694	0.047864	-0.030264	-0.692871	0.205811	-0.303711	0.189764	-0.274118	-0.066995	-0.940404
24344		5.149103	0.410122	8.170857	0.041296	0.024910	-0.033553	-0.699463	0.203369	-0.301270	0.189531	-0.273645	-0.067525	-0.940551
24345		5.399734	0.157583	8.176669	0.033885	0.029101	-0.013408	-0.708008	0.210693	-0.304199	0.189514	-0.273156	-0.067890	-0.940671
24346		5.306102	0.208982	8.142586	0.058402	0.042185	-0.024938	-0.697998	0.203857	-0.306396	0.189456	-0.272446	-0.068552	-0.940840
24347		5.052024	0.387877	8.217523	0.023563	0.026432	-0.009079	-0.700439	0.207031	-0.304932	0.189452	-0.272017	-0.068787	-0.940948
24348		5.230192	0.666192	8.024821	-0.037411	0.010094	0.030073	-0.703613	0.208740	-0.306885	0.189687	-0.271958	-0.068210	-0.940960
24349		5.173274	0.189603	8.210806	-0.109357	-0.000304	0.078500	-0.699707	0.213867	-0.304199	0.190239	-0.272233	-0.066649	-0.940881
24350		5.133284	-0.413143	8.389998	-0.057241	0.015671	0.042821	-0.702393	0.211914	-0.303223	0.190562	-0.272165	-0.065784	-0.940896
24351		5.299553	0.172301	8.107630	0.011850	0.046910	-0.021204	-0.693359	0.220215	-0.310059	0.190391	-0.271513	-0.065873	-0.941113
24352		4.780752	0.397421	8.372517	-0.037418	-0.005959	-0.000862	-0.702637	0.206299	-0.306396	0.190248	-0.271616	-0.065439	-0.941142
24353		4.616626	0.783427	7.918910	-0.288491	-0.205995	0.110895	-0.701172	0.215332	-0.302002	0.190402	-0.274758	-0.062147	-0.940422
24354		5.449029	0.327823	8.279454	-0.477879	-0.435941	0.298389	-0.705811	0.222412	-0.288818	0.191922	-0.281185	-0.056531	-0.938565
24355		5.524213	-0.824658	8.224982	-0.271780	-0.190951	0.156365	-0.703857	0.241943	-0.281250	0.192665	-0.284130	-0.053242	-0.937718
24356		6.231174	-0.393861	7.623491	-0.135763	0.033559	0.049360	-0.698730	0.236328	-0.275635	0.192783	-0.284040	-0.051383	-0.937825
24357		5.205596	-0.012309	8.219613	-0.086769	0.129299	0.051495	-0.696533	0.247559	-0.277588	0.193161	-0.282712	-0.049862	-0.938230
24358		5.294394	-0.022135	8.309202	-0.067240	0.110154	0.038558	-0.701172	0.242188	-0.276611	0.193444	-0.281552	-0.048661	-0.938584
24359		4.959584	-0.252517	8.465655	-0.016422	0.012997	0.008141	-0.699463	0.243896	-0.279297	0.193490	-0.281390	-0.048399	-0.938637
24360		5.392003	-0.477398	7.995580	0.014035	0.000126	-0.014260	-0.693115	0.242188	-0.281738	0.193371	-0.281290	-0.048603	-0.938681
24361		5.829549	-0.471791	7.659438	0.031374	0.144044	-0.061758	-0.694092	0.245117	-0.289062	0.192842	-0.279431	-0.048828	-0.939333
24362		4.762484	0.072266	8.715757	0.024597	0.108848	-0.026803	-0.692383	0.243896	-0.285645	0.192678	-0.278022	-0.048937	-0.939779
24363		4.962984	0.150666	8.460839	0.016837	-0.089821	-0.017004	-0.697510	0.234863	-0.288818	0.192480	-0.278971	-0.049399	-0.939514
24364		5.498925	-0.921534	7.346394	0.034730	0.014619	-0.067992	-0.704102	0.235352	-0.285156	0.191810	-0.278617	-0.049998	-0.939724
24365		5.875996	0.580474	8.035138	0.081928	0.339348	-0.109063	-0.692627	0.236572	-0.286865	0.191022	-0.274309	-0.050515	-0.941124
24366		4.380617	-0.147521	9.137757	0.026347	0.039867	-0.011278	-0.700195	0.234619	-0.287842	0.191005	-0.273716	-0.050759	-0.941286
24367		5.579123	0.068375	8.122501	-0.002473	-0.087409	0.008128	-0.693604	0.235596	-0.290527	0.191036	-0.274701	-0.050901	-0.940986
24368		4.871954	-0.273585	8.248639	-0.013838	-0.124915	0.014104	-0.697754	0.235352	-0.291504	0.191074	-0.276156	-0.050978	-0.940548
24369		5.793580	-0.250990	7.515529	0.014234	0.043000	-0.030094	-0.691895	0.236572	-0.290527	0.190794	-0.275541	-0.051135	-0.940776
24370		4.845998	0.309413	8.643219	0.022398	0.094292	-0.026627	-0.691162	0.237061	-0.296631	0.190618	-0.274307	-0.051255	-0.941166
24371		5.199591	-0.156996	8.348954	-0.001808	-0.046241	0.007705	-0.693848	0.232666	-0.297363	0.190672	-0.274803	-0.051306	-0.941007
24372		5.345278	-0.119541	8.129776	-0.009526	-0.038301	0.013469	-0.704346	0.239746	-0.293701	0.190771	-0.275228	-0.051229	-0.940867
24373		5.120959	-0.229633	8.011362	-0.013971	-0.012478	0.008514	-0.694336	0.229980	-0.292969	0.190815	-0.275359	-0.051055	-0.940830
24374		5.293428	-0.043258	8.197955	0.013814	0.083932	-0.027840	-0.693115	0.236328	-0.297607	0.190586	-0.274265	-0.051104	-0.941193
24375		5.038469	0.079943	8.458202	-0.003541	-0.014052	0.000817	-0.690918	0.231689	-0.290039	0.190574	-0.274384	-0.051082	-0.941162
24376		5.189510	-0.112300	8.237476	-0.012429	-0.059513	0.013622	-0.693848	0.237305	-0.294922	0.190653	-0.275067	-0.051022	-0.940950
24377		5.298731	-0.304812	7.933510	0.006249	-0.019238	-0.014711	-0.700195	0.230225	-0.298584	0.190489	-0.275213	-0.051181	-0.940932
24378		5.128549	0.029283	8.340053	0.019894	0.043054	-0.031204	-0.697510	0.234619	-0.299561	0.190215	-0.274583	-0.051410	-0.941159
24379		5.025659	0.006263	8.422926	0.001744	-0.059511	-0.016778	-0.701904	0.235840	-0.294434	0.189984	-0.275212	-0.051619	-0.941010
24380		5.460427	-0.283071	7.867256	0.001494	-0.040802	-0.021184	-0.697510	0.229248	-0.294678	0.189713	-0.275619	-0.051797	-0.940936
24381		5.154963	0.077188	8.373662	0.008422	0.022327	-0.021109	-0.698730	0.231689	-0.286377	0.189506	-0.275267	-0.051906	-0.941074
24382		5.094720	-0.069599	8.363118	-0.004545	-0.085514	-0.011632	-0.699219	0.230957	-0.287842	0.189299	-0.276223	-0.052087	-0.940826
24383		5.226447	-0.042918	8.112195	-0.012129	-0.102309	-0.009626	-0.702881	0.236572	-0.284180	0.189077	-0.277394	-0.052211	-0.940519
24384		5.467942	-0.121523	8.165120	-0.002063	-0.061672	-0.017074	-0.706787	0.228271	-0.292969	0.188831	-0.278060	-0.052383	-0.940362
24385		5.197314	-0.080917	8.426767	-0.002786	-0.121860	-0.005087	-0.700684	0.225586	-0.292480	0.188678	-0.279439	-0.052647	-0.939969
24386		5.399785	-0.000571	7.960239	-0.002275	-0.137107	-0.000487	-0.707764	0.237061	-0.281982	0.188569	-0.280996	-0.052934	-0.939511
24387		5.688542	-0.176431	7.713419	0.018897	0.012397	-0.026589	-0.698730	0.227295	-0.287354	0.188334	-0.280735	-0.053212	-0.939620
24388		5.133882	0.218771	8.439471	0.012586	0.039336	-0.006565	-0.701416	0.223389	-0.290527	0.188325	-0.280183	-0.053280	-0.939783
24389		5.242960	0.057921	8.249659	-0.012232	-0.081001	0.027065	-0.700928	0.230225	-0.290283	0.188540	-0.281123	-0.053223	-0.939462
24390		5.292976	-0.055091	8.028988	-0.022888	-0.092050	0.032496	-0.714355	0.227051	-0.282471	0.188778	-0.282221	-0.053047	-0.939095
24391		5.278446	-0.198641	8.118991	-0.020478	-0.067056	0.019723	-0.708740	0.230469	-0.278076	0.188890	-0.283016	-0.052890	-0.938842
24392		5.166653	-0.273723	8.313634	-0.016152	-0.116364	0.002985	-0.702881	0.236816	-0.281006	0.188792	-0.284369	-0.052958	-0.938449
24393		5.223577	-0.517498	8.152744	0.048011	-0.151328	-0.058119	-0.711182	0.227783	-0.276123	0.188182	-0.285936	-0.054073	-0.938032
24394		5.689421	-0.164432	7.767594	0.095437	-0.064485	-0.117680	-0.711182	0.233154	-0.278564	0.187097	-0.286333	-0.055755	-0.938030
24395		5.286790	-0.066741	8.298597	0.090263	-0.039962	-0.103852	-0.719482	0.218262	-0.276367	0.186176	-0.286463	-0.057267	-0.938082
24396		5.246733	-0.205298	8.335444	0.119845	-0.148756	-0.134219	-0.718750	0.222656	-0.270996	0.184917	-0.287777	-0.059492	-0.937790
24397		5.436963	0.261445	7.946789	0.120981	-0.199762	-0.150375	-0.720703	0.216797	-0.272705	0.183440	-0.289674	-0.061904	-0.937340
24398		5.778086	0.841504	7.557239	0.045780	-0.116535	-0.070152	-0.712646	0.222412	-0.269287	0.182690	-0.290825	-0.062952	-0.937060
24399		5.505998	0.277207	8.008199	-0.021868	-0.042504	0.022671	-0.720947	0.211914	-0.271729	0.182848	-0.291336	-0.062701	-0.936888
24400		5.263453	-0.414201	8.166963	0.023725	-0.087143	-0.032988	-0.717041	0.214111	-0.265625	0.182474	-0.292220	-0.063291	-0.936646
24401		5.675966	0.610790	7.671965	0.002712	-0.061396	-0.043573	-0.722656	0.211426	-0.269287	0.181924	-0.292844	-0.063614	-0.936536
24402		5.585736	0.902427	7.677042	-0.083133	0.024857	0.084071	-0.721924	0.210449	-0.265869	0.182618	-0.292753	-0.062269	-0.936520
24403		5.610897	-0.016923	7.780865	-0.125470	0.143884	0.146606	-0.720947	0.224854	-0.264404	0.183981	-0.291414	-0.059932	-0.936823
24404		5.563692	-0.291688	8.159020	-0.083826	0.175923	0.077993	-0.725586	0.219727	-0.263428	0.184728	-0.289555	-0.058259	-0.937358
24405		5.339425	-0.047456	8.190443	-0.064267	0.111357	0.048921	-0.724609	0.227539	-0.279541	0.185151	-0.288388	-0.057073	-0.937707
24406		5.519304	-0.000788	8.002363	-0.070009	0.104813	0.051486	-0.720947	0.225586	-0.271484	0.185574	-0.287302	-0.055815	-0.938032
24407		5.578358	-0.012803	7.997903	-0.070830	0.130546	0.054946	-0.708984	0.225098	-0.280518	0.186056	-0.285923	-0.054481	-0.938436
24408		5.164012	-0.151257	8.307000	-0.075317	0.072883	0.074557	-0.709961	0.232666	-0.276855	0.186707	-0.285235	-0.053151	-0.938593
24409		5.216869	0.039496	8.366894	-0.083786	-0.045047	0.060923	-0.712402	0.227051	-0.271973	0.187099	-0.285945	-0.052048	-0.938360
24410		5.492281	-0.148174	8.068912	-0.108089	-0.115692	0.089901	-0.710938	0.236328	-0.276123	0.187691	-0.287561	-0.050726	-0.937821
24411		5.447045	-0.090317	8.178010	-0.118535	-0.129624	0.095761	-0.712402	0.236084	-0.269043	0.188307	-0.289362	-0.049286	-0.937220
24412		5.492745	-0.169314	8.050119	-0.160505	-0.196147	0.125939	-0.715576	0.245361	-0.263672	0.189082	-0.292060	-0.047405	-0.936324
24413		5.528682	-0.245716	8.045015	-0.196610	-0.210899	0.149865	-0.711182	0.253418	-0.254150	0.190002	-0.295029	-0.045049	-0.935322
24414		5.525492	-0.277120	8.056854	-0.213427	-0.236281	0.160928	-0.714600	0.249512	-0.258301	0.190982	-0.298339	-0.042516	-0.934191
24415		5.567380	-0.385695	8.037464	-0.217654	-0.256863	0.170653	-0.711670	0.258545	-0.244141	0.192025	-0.301889	-0.039941	-0.932949
24416		5.694609	-0.539138	7.846859	-0.181746	-0.273846	0.160766	-0.708984	0.268799	-0.243896	0.193090	-0.305547	-0.037866	-0.931624
24417		5.855050	-0.575539	7.714775	-0.135391	-0.206767	0.132043	-0.713379	0.265137	-0.232666	0.194030	-0.308288	-0.036273	-0.930588
24418		5.746393	-0.646042	7.779321	-0.079784	-0.128431	0.083242	-0.712891	0.273438	-0.227783	0.194647	-0.309966	-0.035331	-0.929938
24419		5.747652	-0.810754	7.761279	0.010037	-0.080356	0.011572	-0.714355	0.271973	-0.226562	0.194812	-0.310837	-0.035595	-0.929603
24420		5.771273	-0.756389	7.593753	0.121469	0.019314	-0.059452	-0.722656	0.266602	-0.235596	0.194626	-0.310245	-0.037186	-0.929777
24421		5.754674	-0.531985	7.857987	0.164865	0.061407	-0.099063	-0.716797	0.262207	-0.226318	0.194150	-0.309031	-0.039330	-0.930193
24422		5.738679	-0.390391	7.873673	0.094657	0.031789	-0.047655	-0.719482	0.256592	-0.238770	0.193995	-0.308366	-0.040537	-0.930394
24423		5.890990	-0.140427	7.786187	0.038296	0.052350	-0.013981	-0.713623	0.257568	-0.237061	0.194004	-0.307603	-0.040900	-0.930629
24424		5.663039	-0.166685	7.983907	-0.013785	0.017221	0.040923	-0.714600	0.262939	-0.235596	0.194439	-0.307404	-0.040533	-0.930620
24425		5.553305	-0.472356	7.978664	-0.073639	-0.058046	0.083016	-0.714355	0.259766	-0.227539	0.195106	-0.308251	-0.039494	-0.930245
24426		5.684700	-0.553774	7.848159	-0.107388	-0.068617	0.085181	-0.719971	0.264648	-0.232178	0.195659	-0.309308	-0.038082	-0.929837
24427		5.733392	-0.771920	7.641983	0.029583	0.021452	-0.002398	-0.729492	0.264648	-0.232666	0.195764	-0.308935	-0.038379	-0.929926
24428		5.620182	-0.464420	7.833861	0.120928	0.066450	-0.059269	-0.718506	0.265381	-0.232178	0.195582	-0.307791	-0.039849	-0.930282
24429		5.723867	-0.682462	7.808226	0.201321	0.094892	-0.112269	-0.714355	0.264648	-0.238525	0.195113	-0.306090	-0.042385	-0.930829
24430		5.757216	-0.322719	7.847710	0.207528	0.137772	-0.125914	-0.715088	0.256104	-0.252441	0.194528	-0.303861	-0.044937	-0.931562
24431		5.716389	-0.177780	7.920363	0.210176	0.138455	-0.118622	-0.719238	0.250977	-0.245361	0.194015	-0.301607	-0.047483	-0.932275
24432		5.829416	-0.314771	7.818015	0.212614	0.187277	-0.120167	-0.716553	0.244141	-0.251953	0.193530	-0.298785	-0.049954	-0.933155
24433		5.720540	-0.617495	7.940462	0.248385	0.267370	-0.156005	-0.709229	0.234131	-0.270752	0.192798	-0.294910	-0.052778	-0.934383
24434		5.561095	-0.055466	7.945156	0.224738	0.325143	-0.157461	-0.707275	0.229980	-0.270020	0.191970	-0.290394	-0.055181	-0.935828
24435		5.095531	0.110787	8.305749	0.146988	0.274067	-0.105024	-0.700928	0.243164	-0.280029	0.191444	-0.286700	-0.056610	-0.936989
24436		5.184091	0.342305	8.205574	0.074746	0.153726	-0.061521	-0.708008	0.236816	-0.276855	0.191111	-0.284613	-0.057323	-0.937649
24437		5.180631	0.160881	8.166843	0.019467	0.059974	-0.021704	-0.704834	0.234375	-0.276611	0.190975	-0.283792	-0.057476	-0.937916
24438		5.287803	0.343215	8.008249	-0.056937	-0.041226	0.040952	-0.711914	0.226562	-0.283691	0.191227	-0.284385	-0.056752	-0.937729
24439		5.157047	-0.135107	8.238237	-0.122058	-0.135773	0.069716	-0.711914	0.232422	-0.274170	0.191493	-0.286254	-0.055388	-0.937188
24440		5.472778	-0.366600	8.093906	-0.096087	-0.122467	0.041824	-0.705811	0.238770	-0.265137	0.191546	-0.287891	-0.054398	-0.936734
24441		5.573746	0.033924	7.914472	-0.071571	-0.078964	0.030917	-0.705811	0.229248	-0.274414	0.191605	-0.288957	-0.053631	-0.936438
24442		5.412243	0.004360	7.948551	-0.122294	-0.121252	0.075264	-0.710938	0.237061	-0.278809	0.191942	-0.290654	-0.052205	-0.935924
24443		5.524461	-0.368978	8.196965	-0.085873	-0.106550	0.065522	-0.707520	0.241211	-0.272949	0.192312	-0.292080	-0.051204	-0.935459
24444		5.613243	-0.203674	7.974353	-0.019446	-0.050916	0.012101	-0.705811	0.239014	-0.265625	0.192345	-0.292665	-0.051042	-0.935278
24445		5.535123	-0.176845	7.973031	-0.006829	-0.021179	-0.000576	-0.712891	0.237549	-0.261475	0.192295	-0.292869	-0.051005	-0.935227
24446		5.496853	-0.221104	8.050679	0.006979	-0.010270	-0.009286	-0.708008	0.239014	-0.261719	0.192197	-0.292913	-0.051138	-0.935226
24447		5.536500	-0.162694	7.972753	0.022988	-0.006705	-0.017766	-0.711182	0.236816	-0.266602	0.192066	-0.292870	-0.051479	-0.935247
24448		5.559066	-0.044755	7.936668	0.023644	0.012986	-0.014477	-0.714111	0.239014	-0.270996	0.191982	-0.292593	-0.051768	-0.935335
24449		5.437473	-0.056700	8.082446	-0.018967	-0.016306	0.015492	-0.719238	0.246582	-0.263672	0.192075	-0.292777	-0.051517	-0.935273
24450		5.474794	-0.277119	8.037971	-0.010683	-0.021659	0.009927	-0.712891	0.244385	-0.262207	0.192146	-0.293012	-0.051402	-0.935191
24451		5.553869	-0.246832	7.980613	0.015664	0.001877	-0.020842	-0.715576	0.236084	-0.258057	0.191967	-0.292887	-0.051649	-0.935253
24452		5.488397	-0.078399	8.007409	0.007753	0.004319	-0.011507	-0.710449	0.239502	-0.259277	0.191855	-0.292762	-0.051767	-0.935309
24453		5.377241	-0.025137	8.122058	-0.034265	-0.037339	0.017165	-0.712891	0.236084	-0.262939	0.191908	-0.293241	-0.051387	-0.935169
24454		5.497738	-0.068657	7.934281	-0.089503	-0.092393	0.054247	-0.714111	0.240723	-0.265137	0.192144	-0.294514	-0.050355	-0.934776
24455		5.493803	-0.006481	8.095953	-0.245458	-0.212837	0.149605	-0.711670	0.244141	-0.252930	0.192845	-0.297621	-0.047437	-0.933800
24456		5.598096	-0.544031	8.007271	-0.145229	-0.124509	0.094600	-0.720947	0.247559	-0.243896	0.193332	-0.299427	-0.045683	-0.933209
24457		5.593845	-0.589613	7.947043	-0.077970	-0.069052	0.028105	-0.714111	0.253662	-0.249268	0.193324	-0.300394	-0.044832	-0.932941
24458		5.768079	-0.214074	7.807108	-0.068965	-0.022726	0.014080	-0.711182	0.248291	-0.245361	0.193224	-0.300781	-0.044022	-0.932876
24459		5.898573	-0.226579	7.667685	-0.069998	0.047590	0.045996	-0.712402	0.255127	-0.244873	0.193522	-0.300369	-0.042911	-0.932998
24460		5.356190	-0.550182	8.076289	-0.060875	0.065664	0.028859	-0.709717	0.255615	-0.251709	0.193676	-0.299719	-0.041929	-0.933220
24461		5.492234	-0.465132	8.034673	-0.035406	0.018719	0.009052	-0.711426	0.254639	-0.251709	0.193666	-0.299535	-0.041428	-0.933304
24462		5.766029	0.060425	7.951053	-0.027252	0.031674	0.009322	-0.710693	0.253174	-0.248291	0.193691	-0.299181	-0.040990	-0.933432
24463		5.674351	-0.332846	7.937725	-0.032345	0.020620	0.034974	-0.713135	0.258057	-0.250488	0.193991	-0.298985	-0.040426	-0.933457
24464		5.096049	-0.687364	8.098905	-0.036978	0.018228	0.026260	-0.706055	0.252197	-0.253662	0.194176	-0.298824	-0.039846	-0.933494
24465		6.135621	-0.328864	7.532550	-0.002388	0.055473	-0.007576	-0.701660	0.257568	-0.256836	0.194100	-0.298118	-0.039701	-0.933742
24466		5.818775	-0.410205	7.961836	0.019295	0.180321	0.013541	-0.708740	0.262451	-0.262695	0.194429	-0.295910	-0.039428	-0.934388
24467		4.824235	-0.458125	8.424469	0.024591	0.086947	0.009037	-0.704834	0.262451	-0.262695	0.194683	-0.294778	-0.039460	-0.934691
24468		5.383973	-0.782767	7.810325	0.016148	0.017904	-0.039340	-0.704590	0.266357	-0.258545	0.194310	-0.294450	-0.039740	-0.934860
24469		5.751698	0.132107	7.855720	0.012189	0.137042	-0.015828	-0.702637	0.263672	-0.257568	0.194273	-0.292758	-0.039601	-0.935405
24470		5.568120	-0.485077	8.117622	0.007854	0.124745	-0.010104	-0.696289	0.260498	-0.265869	0.194279	-0.291227	-0.039422	-0.935889
24471		4.951679	-0.156757	8.609072	-0.041228	-0.021779	0.037803	-0.697266	0.254395	-0.262207	0.194579	-0.291540	-0.038844	-0.935754
24472		5.692680	-0.470308	7.883869	-0.050785	-0.106785	0.042196	-0.694824	0.262939	-0.261230	0.194834	-0.292874	-0.038346	-0.935304
24473		5.353015	-0.526951	7.944221	-0.072446	-0.086549	0.058660	-0.703369	0.257324	-0.252930	0.195236	-0.294032	-0.037485	-0.934892
24474		5.367526	-0.279477	8.133097	-0.072884	-0.073844	0.050757	-0.702881	0.264648	-0.260498	0.195531	-0.295049	-0.036622	-0.934544
24475		5.534443	-0.534371	7.957433	-0.067735	-0.085923	0.043956	-0.702148	0.274414	-0.252197	0.195768	-0.296178	-0.035870	-0.934167
24476		5.465534	-0.587747	7.728952	-0.040081	-0.055580	0.017715	-0.709717	0.264404	-0.246826	0.195852	-0.296885	-0.035469	-0.933940
24477		5.658189	-0.580293	7.964349	0.014057	0.085575	-0.016060	-0.707764	0.261719	-0.252197	0.195772	-0.295802	-0.035483	-0.934300
24478		5.414012	-0.598546	8.149734	0.035681	0.013954	-0.034866	-0.701172	0.263916	-0.253174	0.195507	-0.295487	-0.035989	-0.934435
24479		5.360730	-0.447722	8.077621	0.039744	-0.026400	-0.023230	-0.706543	0.259277	-0.257324	0.195385	-0.295636	-0.036597	-0.934390
24480		5.778005	-0.592352	7.618912	0.055247	0.061997	-0.057148	-0.702148	0.266846	-0.264893	0.194945	-0.294692	-0.037292	-0.934753
24481		5.355317	-0.315332	8.220886	0.091633	0.140797	-0.081570	-0.704102	0.260742	-0.265625	0.194413	-0.292719	-0.038308	-0.935442
24482		5.285835	-0.322152	8.264423	0.077064	0.022717	-0.054980	-0.704102	0.260010	-0.257080	0.194070	-0.292178	-0.039344	-0.935639
24483		5.582680	-0.585951	7.708380	0.050199	0.016811	-0.048926	-0.704590	0.257812	-0.263428	0.193712	-0.291788	-0.040065	-0.935805
24484		5.530428	-0.241775	8.094075	0.069815	0.126311	-0.064615	-0.708984	0.261719	-0.270020	0.193284	-0.290052	-0.040803	-0.936401
24485		5.243769	-0.120967	8.378910	0.059155	0.024329	-0.037635	-0.703613	0.246094	-0.266846	0.193098	-0.289547	-0.041567	-0.936562
24486		5.493041	-0.484341	7.875378	0.062524	-0.003190	-0.039155	-0.698486	0.244141	-0.263672	0.192839	-0.289353	-0.042437	-0.936636
24487		5.514038	-0.298357	7.917392	0.073683	0.085619	-0.059655	-0.705078	0.249023	-0.271484	0.192430	-0.288085	-0.043298	-0.937072
24488		5.311128	-0.076089	8.336223	0.073999	0.084410	-0.053396	-0.699463	0.240479	-0.272949	0.192112	-0.286829	-0.044144	-0.937483
24489		5.245888	-0.260286	8.231205	0.082868	-0.012539	-0.047183	-0.701660	0.246338	-0.277344	0.191819	-0.286686	-0.045301	-0.937531
24490		5.551715	-0.742856	7.820809	0.140934	0.044612	-0.101400	-0.702637	0.247314	-0.276367	0.191155	-0.285700	-0.047196	-0.937874
24491		5.466876	0.043712	8.068033	0.126856	0.142581	-0.092897	-0.707275	0.235352	-0.286377	0.190615	-0.283608	-0.048664	-0.938544
24492		5.072512	0.027065	8.345945	0.083194	0.057824	-0.070332	-0.699219	0.240234	-0.284424	0.190087	-0.282616	-0.049737	-0.938894
24493		5.292312	-0.140943	7.951107	0.045096	0.014433	-0.049314	-0.711914	0.237549	-0.276367	0.189677	-0.282240	-0.050393	-0.939055
24494		5.422276	0.166225	8.152684	0.028191	0.089654	-0.050154	-0.703857	0.234131	-0.282715	0.189244	-0.281041	-0.050684	-0.939486
24495		5.142920	-0.077551	8.392630	0.007026	-0.012220	-0.013217	-0.706055	0.235840	-0.281006	0.189094	-0.281099	-0.050833	-0.939491
24496		5.429482	-0.121367	7.934208	0.000553	-0.020492	-0.006279	-0.706787	0.230957	-0.282227	0.189007	-0.281278	-0.050903	-0.939451
24497		5.325739	-0.129420	8.161671	0.002032	0.036194	-0.015386	-0.713379	0.237549	-0.283447	0.188833	-0.280778	-0.050887	-0.939636
24498		5.264374	-0.021475	8.334088	0.000766	-0.005593	-0.008296	-0.692871	0.235107	-0.287354	0.188736	-0.280782	-0.050932	-0.939652
24499		5.351621	-0.208579	8.010523	0.000868	-0.025267	-0.003869	-0.707275	0.230713	-0.287109	0.188677	-0.281001	-0.051002	-0.939595
24500		5.335375	0.048322	8.247806	0.004425	0.004428	-0.007255	-0.699951	0.230469	-0.283447	0.188584	-0.280867	-0.051058	-0.939651
24501		5.237543	0.053103	8.321023	-0.014257	-0.072121	0.018420	-0.704590	0.229492	-0.279785	0.188686	-0.281695	-0.050985	-0.939386
24502		5.221193	-0.043192	8.167492	-0.025795	-0.117093	0.025903	-0.700928	0.233643	-0.279297	0.188801	-0.283088	-0.050859	-0.938951
