// Start Time: Unknown
// Update Rate: 40.0Hz
// Filter Profile: human (46.1)
// Firmware Version: 4.6.0
PacketCounter	SampleTimeFine	Acc_X	Acc_Y	Acc_Z	Gyr_X	Gyr_Y	Gyr_Z	Mag_X	Mag_Y	Mag_Z	Quat_q0	Quat_q1	Quat_q2	Quat_q3
23593		5.443430	1.407106	7.933588	0.003490	-0.001091	-0.001386	-0.574219	0.533936	-0.408203	0.512301	-0.206864	-0.221933	-0.803431
23594		5.459526	1.408072	7.964663	0.003874	-0.002672	-0.003673	-0.577148	0.531494	-0.411133	0.512267	-0.206856	-0.221998	-0.803436
23595		5.465468	1.405569	7.931048	0.004724	-0.002059	-0.003478	-0.569824	0.539307	-0.422607	0.512236	-0.206833	-0.222071	-0.803442
23596		5.454239	1.405554	7.957705	0.001438	-0.000799	-0.001532	-0.570801	0.531738	-0.409424	0.512222	-0.206829	-0.222095	-0.803445
23597		5.444366	1.411319	7.932198	0.003318	-0.001323	-0.003988	-0.572510	0.534180	-0.407715	0.512187	-0.206810	-0.222147	-0.803458
23598		5.468959	1.415176	7.952972	0.003286	-0.001260	-0.001946	-0.570801	0.531494	-0.404297	0.512173	-0.206797	-0.222193	-0.803458
23599		5.455993	1.392064	7.953103	0.003846	-0.003270	-0.003446	-0.571289	0.533691	-0.407959	0.512139	-0.206798	-0.222261	-0.803460
23600		5.448726	1.397628	7.956467	0.003026	-0.003286	-0.003867	-0.563232	0.527832	-0.408203	0.512100	-0.206804	-0.222320	-0.803467
23601		5.454245	1.396428	7.968529	0.005896	-0.002902	-0.001485	-0.577393	0.529541	-0.408447	0.512095	-0.206795	-0.222394	-0.803452
23602		5.457517	1.395856	7.951392	0.003467	-0.003012	-0.004790	-0.575928	0.533447	-0.408936	0.512051	-0.206794	-0.222449	-0.803466
23603		5.463735	1.401916	7.957082	0.004693	-0.001997	-0.001435	-0.570312	0.533936	-0.410400	0.512049	-0.206786	-0.222496	-0.803456
23604		5.447922	1.404714	7.970769	0.004816	-0.004943	-0.003826	-0.568115	0.534668	-0.410889	0.512017	-0.206802	-0.222565	-0.803453
23605		5.445827	1.399606	7.947089	0.006839	-0.005833	-0.003454	-0.578857	0.530518	-0.406006	0.511995	-0.206811	-0.222653	-0.803440
23606		5.459592	1.394577	7.954815	0.006048	-0.005251	-0.004102	-0.568115	0.533691	-0.412598	0.511959	-0.206824	-0.222733	-0.803437
23607		5.445770	1.412248	7.955279	0.005813	-0.005357	-0.002619	-0.569336	0.522461	-0.411377	0.511950	-0.206836	-0.222795	-0.803423
23608		5.461435	1.398066	7.952937	0.008130	-0.004946	-0.004183	-0.573730	0.535645	-0.408447	0.511921	-0.206812	-0.222892	-0.803421
23609		5.454074	1.404232	7.956260	0.003963	-0.000882	-0.004353	-0.565918	0.529785	-0.415283	0.511901	-0.206800	-0.222905	-0.803433
23610		5.454229	1.405630	7.955907	0.004726	-0.002062	-0.003477	-0.568848	0.538330	-0.416260	0.511898	-0.206769	-0.222928	-0.803436
23611		5.457741	1.405371	7.938536	0.008659	-0.006231	-0.001825	-0.566162	0.530273	-0.415039	0.511926	-0.206772	-0.222996	-0.803399
23612		5.468804	1.402381	7.962769	0.006050	-0.005253	-0.004100	-0.573975	0.531494	-0.405029	0.511912	-0.206763	-0.223052	-0.803394
23613		5.458542	1.401823	7.943242	0.006194	-0.002266	-0.005236	-0.573975	0.539551	-0.411377	0.511871	-0.206764	-0.223105	-0.803406
23614		5.458846	1.403608	7.942717	0.004933	-0.002556	-0.004733	-0.565186	0.536377	-0.412598	0.511867	-0.206775	-0.223118	-0.803402
23615		5.465030	1.410181	7.948328	0.006575	-0.002524	-0.003891	-0.573486	0.526367	-0.405762	0.511886	-0.206755	-0.223139	-0.803389
23616		5.452826	1.394931	7.942006	0.005576	-0.001450	-0.003284	-0.569580	0.540039	-0.411133	0.511844	-0.206749	-0.223193	-0.803402
23617		5.463926	1.398932	7.960352	0.005139	-0.002387	-0.004174	-0.569580	0.523438	-0.409424	0.511865	-0.206763	-0.223189	-0.803387
23618		5.459886	1.410041	7.940863	0.003143	-0.000901	-0.004773	-0.575195	0.528809	-0.409912	0.511808	-0.206729	-0.223218	-0.803424
23619		5.464400	1.401819	7.959519	0.005903	-0.003566	-0.003298	-0.572998	0.531006	-0.406006	0.511774	-0.206737	-0.223279	-0.803427
23620		5.462123	1.396605	7.935975	0.006844	-0.005172	-0.001636	-0.576904	0.531982	-0.413330	0.511757	-0.206788	-0.223340	-0.803407
23621		5.452927	1.411676	7.949349	0.003935	-0.001483	-0.004125	-0.571045	0.531250	-0.412842	0.511735	-0.206781	-0.223359	-0.803417
23622		5.472471	1.418416	7.957407	0.004785	-0.000869	-0.003932	-0.565674	0.534180	-0.419434	0.511737	-0.206747	-0.223371	-0.803422
23623		5.442053	1.390005	7.978603	0.005401	-0.001023	-0.004070	-0.562988	0.524658	-0.407715	0.511808	-0.206657	-0.223362	-0.803402
23624		5.457193	1.397846	7.928131	0.005961	-0.002372	-0.003752	-0.575684	0.531006	-0.411133	0.511787	-0.206622	-0.223402	-0.803413
23625		5.458471	1.415451	7.960533	0.003964	-0.000887	-0.004352	-0.572266	0.529541	-0.418701	0.511752	-0.206621	-0.223421	-0.803431
23626		5.455393	1.387694	7.986177	0.003496	-0.001758	-0.003200	-0.570557	0.522949	-0.414062	0.511774	-0.206546	-0.223438	-0.803431
23627		5.466498	1.406559	7.961896	0.007353	-0.008380	-0.002674	-0.563721	0.532715	-0.410645	0.511729	-0.206522	-0.223563	-0.803431
23628		5.464816	1.401563	7.937904	0.006412	-0.006776	-0.004337	-0.578613	0.526367	-0.420654	0.511781	-0.206543	-0.223585	-0.803386
23629		5.471386	1.408063	7.943248	0.004729	-0.002066	-0.003476	-0.573486	0.540039	-0.418945	0.511750	-0.206442	-0.223664	-0.803411
23630		5.440853	1.403495	7.961407	0.006402	-0.002100	-0.004677	-0.572754	0.536621	-0.415283	0.511859	-0.206397	-0.223660	-0.803353
23631		5.454660	1.405893	7.963156	0.006635	-0.001332	-0.004346	-0.574951	0.526367	-0.410889	0.511931	-0.206363	-0.223666	-0.803315
23632		5.466588	1.417323	7.974953	0.005523	-0.002646	-0.002827	-0.571533	0.532471	-0.408447	0.511863	-0.206364	-0.223735	-0.803339
23633		5.463324	1.404894	7.958032	0.007113	-0.004473	-0.003344	-0.569824	0.530029	-0.424316	0.511864	-0.206420	-0.223773	-0.803313
23634		5.456909	1.418090	7.954783	0.003881	-0.002681	-0.003668	-0.577393	0.533203	-0.420654	0.511954	-0.206257	-0.223797	-0.803291
23635		5.468936	1.396672	7.930248	0.005170	-0.001794	-0.004400	-0.572266	0.523682	-0.407227	0.511994	-0.206169	-0.223841	-0.803276
23636		5.453547	1.407086	7.937678	0.006196	-0.001606	-0.003422	-0.570068	0.534424	-0.416748	0.511877	-0.206188	-0.223913	-0.803325
23637		5.464604	1.411176	7.956041	0.004554	-0.001641	-0.004262	-0.573486	0.536865	-0.408203	0.511974	-0.206135	-0.223898	-0.803281
23638		5.475134	1.406285	7.935292	0.003816	0.000133	-0.005367	-0.573975	0.519287	-0.419189	0.512001	-0.206215	-0.223853	-0.803256
23639		5.450899	1.413480	7.953394	0.003730	-0.000992	-0.002869	-0.573242	0.529541	-0.414551	0.511899	-0.206058	-0.223962	-0.803331
23640		5.458070	1.402941	7.955665	0.002677	-0.001778	-0.003619	-0.574463	0.528809	-0.416748	0.511895	-0.206041	-0.223975	-0.803334
23641		5.456198	1.413326	7.965462	0.004784	-0.000206	-0.002119	-0.574707	0.531006	-0.405518	0.511912	-0.205967	-0.224012	-0.803332
23642		5.464725	1.417560	7.954823	0.003584	-0.000636	-0.005697	-0.568359	0.526611	-0.406738	0.511821	-0.206087	-0.224005	-0.803361
23643		5.454695	1.401771	7.977910	0.006375	-0.002032	-0.002634	-0.571777	0.527344	-0.411377	0.511787	-0.206134	-0.224027	-0.803364
23644		5.446511	1.422334	7.939149	0.003471	-0.002358	-0.002970	-0.568359	0.542725	-0.407715	0.511756	-0.206148	-0.224048	-0.803375
23645		5.451367	1.390221	7.960904	0.004171	-0.000720	-0.003794	-0.573975	0.529785	-0.413574	0.511935	-0.206284	-0.223897	-0.803268
23646		5.457248	1.396344	7.966780	0.003731	-0.000992	-0.002869	-0.577148	0.532959	-0.406738	0.511933	-0.206271	-0.223912	-0.803269
23647		5.453651	1.414241	7.941014	0.002375	0.000935	-0.003837	-0.567139	0.525879	-0.416016	0.511871	-0.206400	-0.223875	-0.803285
23648		5.455196	1.407696	7.976525	0.002241	-0.002719	-0.004506	-0.567139	0.536133	-0.398682	0.511898	-0.206298	-0.223888	-0.803290
23649		5.462365	1.412216	7.936038	0.006160	-0.007478	-0.002618	-0.571289	0.525146	-0.415039	0.511927	-0.206605	-0.223815	-0.803214
23650		5.455050	1.410915	7.945334	0.005394	-0.006302	-0.003495	-0.566406	0.528320	-0.413574	0.511893	-0.206549	-0.223915	-0.803222
23651		5.479141	1.399175	7.932821	0.003090	-0.002105	-0.004315	-0.567871	0.531250	-0.412598	0.511960	-0.206484	-0.223896	-0.803201
23652		5.438082	1.400830	7.971567	0.005585	-0.002122	-0.005096	-0.575439	0.536621	-0.415527	0.512039	-0.206453	-0.223884	-0.803162
23653		5.456404	1.415437	7.943599	0.005296	-0.003417	-0.003155	-0.573486	0.535400	-0.410889	0.512142	-0.206471	-0.223881	-0.803093
23654		5.446754	1.399430	7.966519	0.004499	-0.002169	-0.001991	-0.567383	0.535400	-0.414307	0.512223	-0.206549	-0.223846	-0.803031
23655		5.453978	1.413005	7.965441	0.006272	-0.005090	-0.003531	-0.573242	0.526611	-0.421387	0.512390	-0.206540	-0.223816	-0.802935
23656		5.451734	1.407577	7.941911	0.004626	-0.004458	-0.002559	-0.568604	0.525879	-0.410156	0.512405	-0.206382	-0.223912	-0.802939
23657		5.448985	1.403807	7.964223	0.005887	-0.004168	-0.003064	-0.572021	0.531738	-0.412842	0.512366	-0.206394	-0.223958	-0.802948
23658		5.466697	1.410710	7.942718	0.002212	-0.002650	-0.002464	-0.572266	0.530762	-0.418213	0.512414	-0.206424	-0.223933	-0.802916
23659		5.444089	1.401153	7.957073	0.005144	-0.001726	-0.002359	-0.573975	0.534424	-0.408691	0.512503	-0.206320	-0.223961	-0.802879
23660		5.450238	1.407289	7.962751	0.003269	-0.002532	-0.003527	-0.566895	0.532959	-0.408936	0.512529	-0.206448	-0.223926	-0.802839
23661		5.461971	1.409203	7.935241	0.003447	-0.002957	-0.002740	-0.578369	0.533447	-0.410400	0.512626	-0.206524	-0.223855	-0.802777
23662		5.442604	1.406586	7.972187	0.003447	-0.002957	-0.002740	-0.574463	0.536621	-0.407227	0.512607	-0.206637	-0.223876	-0.802755
23663		5.466905	1.401696	7.953600	0.002552	0.000507	-0.003052	-0.574463	0.534668	-0.415039	0.512668	-0.206775	-0.223795	-0.802703
23664		5.453967	1.409297	7.944786	0.002293	-0.000859	-0.003151	-0.571777	0.533203	-0.409180	0.512751	-0.206765	-0.223764	-0.802661
23665		5.461753	1.405848	7.940701	0.003551	0.000101	-0.001845	-0.569336	0.532471	-0.407715	0.512810	-0.206826	-0.223712	-0.802622
23666		5.451344	1.413130	7.960959	0.001009	-0.002417	-0.004228	-0.569824	0.533936	-0.414551	0.512828	-0.206931	-0.223642	-0.802603
23667		5.453645	1.404705	7.950542	0.003062	-0.002035	-0.002273	-0.565918	0.526367	-0.418701	0.512944	-0.206906	-0.223595	-0.802548
23668		5.453142	1.398735	7.956668	0.005379	-0.001627	-0.003841	-0.575195	0.531250	-0.417725	0.512984	-0.206714	-0.223624	-0.802564
23669		5.445633	1.404518	7.960151	0.004092	-0.002514	-0.003107	-0.572510	0.528809	-0.414307	0.513016	-0.206643	-0.223674	-0.802548
23670		5.443310	1.407967	7.976192	0.006558	-0.002458	-0.001848	-0.563477	0.533691	-0.408936	0.513024	-0.206595	-0.223733	-0.802539
23671		5.470903	1.401588	7.940548	0.005633	-0.005536	-0.003161	-0.573975	0.528809	-0.409668	0.513150	-0.206667	-0.223672	-0.802457
23672		5.453558	1.413913	7.964029	0.005838	-0.005363	-0.002603	-0.572998	0.532715	-0.411133	0.513085	-0.206745	-0.223745	-0.802458
23673		5.459121	1.403880	7.936601	0.004218	-0.004134	-0.001860	-0.571533	0.532959	-0.417969	0.513123	-0.206813	-0.223751	-0.802414
23674		5.458864	1.397770	7.942594	0.003502	-0.001765	-0.003198	-0.570068	0.538574	-0.408691	0.513225	-0.206725	-0.223746	-0.802373
23675		5.455538	1.394026	7.965340	0.006433	-0.000840	-0.003094	-0.574707	0.535889	-0.417480	0.513382	-0.206808	-0.223676	-0.802271
23676		5.470930	1.410360	7.954032	0.003859	-0.002614	-0.001623	-0.571045	0.535889	-0.407471	0.513513	-0.206773	-0.223677	-0.802196
23677		5.453973	1.396918	7.935132	0.005918	-0.003574	-0.003291	-0.568848	0.537109	-0.415527	0.513593	-0.206893	-0.223654	-0.802120
23678		5.457635	1.405350	7.957163	0.005094	-0.002921	-0.001899	-0.572266	0.535156	-0.409424	0.513774	-0.206867	-0.223608	-0.802024
23679		5.464540	1.418742	7.956280	0.003119	-0.001515	-0.004542	-0.569824	0.529297	-0.410645	0.513828	-0.206943	-0.223574	-0.801979
23680		5.459831	1.398401	7.946566	0.002782	0.001274	-0.002725	-0.567383	0.532959	-0.412842	0.513814	-0.206933	-0.223545	-0.801998
23681		5.451593	1.403570	7.950656	0.001574	0.002178	-0.002678	-0.574951	0.531250	-0.414307	0.513901	-0.206895	-0.223453	-0.801979
23682		5.442818	1.401555	7.961131	0.003116	-0.000843	-0.002731	-0.571289	0.533936	-0.417480	0.513906	-0.206872	-0.223481	-0.801973
23683		5.441761	1.388253	7.973709	0.004633	-0.004461	-0.002554	-0.575439	0.528076	-0.416504	0.514000	-0.206822	-0.223501	-0.801920
23684		5.452099	1.400118	7.955672	0.008083	-0.007421	-0.005291	-0.571289	0.537354	-0.411865	0.513923	-0.206775	-0.223662	-0.801937
23685		5.462315	1.412087	7.937688	0.005303	-0.003421	-0.003152	-0.570801	0.533447	-0.412598	0.514051	-0.206826	-0.223639	-0.801848
23686		5.442310	1.401031	7.935546	0.006282	0.000180	-0.004112	-0.579590	0.523682	-0.415527	0.514112	-0.206796	-0.223636	-0.801817
23687		5.466116	1.398724	7.962676	0.005382	-0.001631	-0.003841	-0.568604	0.525146	-0.413086	0.513953	-0.206722	-0.223795	-0.801894
23688		5.446167	1.387579	7.960522	0.005561	-0.002055	-0.003054	-0.579346	0.532227	-0.414795	0.513881	-0.206668	-0.223841	-0.801941
23689		5.453959	1.408346	7.952944	0.004661	-0.003865	-0.002783	-0.573242	0.526123	-0.412354	0.513885	-0.206685	-0.223926	-0.801911
23690		5.448511	1.404952	7.946321	0.006026	-0.001188	-0.004209	-0.569824	0.530518	-0.414307	0.513798	-0.206650	-0.224000	-0.801955
23691		5.455014	1.387726	7.955090	0.005149	-0.001728	-0.002358	-0.565430	0.534180	-0.417969	0.513842	-0.206610	-0.224005	-0.801935
23692		5.446104	1.409893	7.962172	0.003351	-0.000748	-0.004214	-0.563477	0.537109	-0.415283	0.513985	-0.206511	-0.223937	-0.801888
23693		5.446933	1.387379	7.964818	0.004044	-0.003712	-0.002644	-0.569580	0.528564	-0.410400	0.514180	-0.206498	-0.223848	-0.801792
23694		5.451064	1.393834	7.941000	0.004870	-0.004366	-0.004035	-0.569092	0.531738	-0.411377	0.514129	-0.206541	-0.223878	-0.801805
23695		5.451687	1.395193	7.940334	0.004070	-0.003116	-0.002874	-0.577393	0.533203	-0.418213	0.514161	-0.206578	-0.223863	-0.801779
23696		5.450847	1.413009	7.943290	0.004740	-0.002076	-0.003473	-0.574951	0.528076	-0.415527	0.514211	-0.206520	-0.223926	-0.801744
23697		5.463241	1.400607	7.958137	0.004766	-0.001479	-0.003703	-0.570801	0.533691	-0.413330	0.514168	-0.206468	-0.223995	-0.801766
23698		5.458223	1.403917	7.945264	0.002292	-0.000191	-0.001340	-0.571777	0.533203	-0.418945	0.514257	-0.206477	-0.223943	-0.801721
23699		5.446100	1.396897	7.978804	0.004017	0.000965	-0.003003	-0.562988	0.533203	-0.409668	0.514356	-0.206369	-0.223934	-0.801688
23700		5.462475	1.396865	7.964106	0.005566	-0.002731	-0.004863	-0.575195	0.536865	-0.414795	0.514419	-0.206405	-0.223874	-0.801655
23701		5.449696	1.405048	7.955041	0.004405	0.000041	-0.003468	-0.578857	0.532715	-0.415771	0.514530	-0.206398	-0.223868	-0.801587
23702		5.435931	1.405760	7.952752	0.003582	0.000020	-0.003887	-0.571777	0.529541	-0.411621	0.514555	-0.206369	-0.223918	-0.801565
23703		5.441097	1.404815	7.965110	0.004946	-0.001903	-0.002914	-0.571045	0.528564	-0.409912	0.514534	-0.206385	-0.223942	-0.801567
23704		5.446977	1.402258	7.931369	0.006957	-0.004058	-0.004120	-0.569336	0.535889	-0.415771	0.514475	-0.206427	-0.223999	-0.801578
23705		5.444145	1.398758	7.953800	0.003868	-0.003291	-0.003429	-0.567383	0.529053	-0.411621	0.514590	-0.206420	-0.223970	-0.801514
23706		5.451538	1.388700	7.955953	0.006028	-0.001191	-0.004209	-0.565430	0.536621	-0.413330	0.514571	-0.206404	-0.223972	-0.801530
23707		5.436840	1.406500	7.956789	0.006007	-0.002463	-0.005788	-0.563232	0.529297	-0.413330	0.514685	-0.206399	-0.223926	-0.801471
23708		5.458736	1.404624	7.954360	0.006341	-0.003905	-0.003981	-0.571045	0.529297	-0.406494	0.514696	-0.206374	-0.223921	-0.801472
23709		5.445507	1.405658	7.951651	0.004768	-0.001481	-0.003702	-0.573486	0.527100	-0.409180	0.514628	-0.206461	-0.223924	-0.801492
23710		5.445506	1.406933	7.951426	0.002964	0.000172	-0.003749	-0.568359	0.533936	-0.414307	0.514529	-0.206499	-0.223939	-0.801542
23711		5.443377	1.417440	7.961314	0.003378	-0.000156	-0.004444	-0.582520	0.534668	-0.412109	0.514603	-0.206471	-0.223893	-0.801514
23712		5.444693	1.402486	7.957569	0.006827	-0.001767	-0.003559	-0.569824	0.533447	-0.420410	0.514615	-0.206516	-0.223984	-0.801469
23713		5.452177	1.423268	7.950100	0.002684	-0.001792	-0.003613	-0.570312	0.532227	-0.422852	0.514711	-0.206424	-0.223970	-0.801435
23714		5.450881	1.409855	7.962965	0.003529	-0.000498	-0.001616	-0.573730	0.527832	-0.408447	0.514824	-0.206283	-0.223970	-0.801400
23715		5.436115	1.396001	7.973553	0.004693	-0.003271	-0.003009	-0.570557	0.536621	-0.414062	0.514738	-0.206361	-0.224016	-0.801422
23716		5.451904	1.381769	7.971369	0.007069	-0.006948	-0.004446	-0.568115	0.525391	-0.409912	0.514827	-0.206402	-0.224049	-0.801345
23717		5.441048	1.397096	7.954898	0.003081	-0.007992	-0.003481	-0.573730	0.530273	-0.413818	0.514712	-0.206489	-0.224087	-0.801386
23718		5.458212	1.396608	7.939716	0.002889	-0.001619	-0.003056	-0.566895	0.530273	-0.414795	0.514704	-0.206490	-0.224102	-0.801386
23719		5.449769	1.394768	7.949989	0.003349	-0.000076	-0.002405	-0.565918	0.532959	-0.414795	0.514747	-0.206443	-0.224064	-0.801382
23720		5.435904	1.397362	7.993383	0.004151	-0.001329	-0.003564	-0.574707	0.532959	-0.411377	0.514822	-0.206410	-0.224023	-0.801353
23721		5.449480	1.390359	7.955785	0.008400	-0.003514	-0.002028	-0.572998	0.528320	-0.416748	0.514851	-0.206447	-0.224086	-0.801307
23722		5.450104	1.392253	7.955027	0.007577	-0.003536	-0.002447	-0.572510	0.530762	-0.404785	0.514848	-0.206389	-0.224174	-0.801300
23723		5.459760	1.404144	7.937322	0.006419	-0.002119	-0.004673	-0.571533	0.526367	-0.413086	0.514776	-0.206498	-0.224190	-0.801313
23724		5.445184	1.390766	7.947737	0.004670	-0.003869	-0.002776	-0.572754	0.533936	-0.411377	0.514717	-0.206501	-0.224241	-0.801336
23725		5.444440	1.408892	7.950496	0.006190	-0.002890	-0.004998	-0.564697	0.529297	-0.411621	0.514733	-0.206537	-0.224261	-0.801311
23726		5.444265	1.403547	7.956386	0.005113	-0.004280	-0.005510	-0.570557	0.533447	-0.412109	0.514714	-0.206548	-0.224257	-0.801322
23727		5.450673	1.410329	7.961723	0.006371	-0.003312	-0.004210	-0.576416	0.529541	-0.416748	0.514746	-0.206571	-0.224271	-0.801291
23728		5.458171	1.400348	7.963835	0.004127	-0.001927	-0.003332	-0.568359	0.538574	-0.413330	0.514739	-0.206530	-0.224328	-0.801290
23729		5.452917	1.396765	7.957145	0.004651	-0.005145	-0.004352	-0.572754	0.534668	-0.417969	0.514849	-0.206582	-0.224294	-0.801216
23730		5.451837	1.407535	7.966253	0.005447	-0.005041	-0.001894	-0.572021	0.539551	-0.409180	0.514946	-0.206564	-0.224330	-0.801148
23731		5.456509	1.389950	7.945620	0.001813	-0.003011	-0.003567	-0.563721	0.526855	-0.415527	0.515035	-0.206680	-0.224261	-0.801080
23732		5.455565	1.407389	7.948617	0.002891	-0.001621	-0.003056	-0.573486	0.533203	-0.419678	0.515022	-0.206622	-0.224231	-0.801112
23733		5.432805	1.397696	7.963377	0.002526	-0.000100	-0.002824	-0.571777	0.529053	-0.413330	0.515102	-0.206544	-0.224229	-0.801081
23734		5.440172	1.387401	7.965644	0.006139	-0.003405	-0.002727	-0.567139	0.533447	-0.407715	0.515086	-0.206541	-0.224276	-0.801079
23735		5.458407	1.401887	7.937372	0.005549	-0.003336	-0.004628	-0.571777	0.535156	-0.407227	0.515090	-0.206617	-0.224250	-0.801064
23736		5.465840	1.391823	7.939555	0.003329	-0.001355	-0.003982	-0.568359	0.529297	-0.409180	0.515103	-0.206710	-0.224207	-0.801044
23737		5.458813	1.406582	7.982249	0.002638	-0.002990	-0.003148	-0.573486	0.531982	-0.418213	0.515061	-0.206769	-0.224182	-0.801062
23738		5.443428	1.407397	7.950200	0.006714	-0.005431	-0.004209	-0.570068	0.540771	-0.419189	0.515095	-0.206727	-0.224263	-0.801029
23739		5.457138	1.402627	7.958068	0.005936	-0.003581	-0.003283	-0.567383	0.534424	-0.404297	0.515273	-0.206690	-0.224252	-0.800927
23740		5.452094	1.406918	7.944999	0.008218	0.000820	-0.007036	-0.565918	0.532715	-0.417969	0.515259	-0.206743	-0.224222	-0.800931
23741		5.436098	1.417720	7.952739	0.004868	0.000898	-0.004630	-0.563721	0.528564	-0.403076	0.515326	-0.206642	-0.224190	-0.800923
23742		5.433789	1.397587	7.972444	0.003993	0.000364	-0.002776	-0.573975	0.525146	-0.413574	0.515259	-0.206727	-0.224114	-0.800965
23743		5.463267	1.391034	7.966289	0.007585	-0.003536	-0.002445	-0.565674	0.530273	-0.408447	0.515191	-0.206701	-0.224213	-0.800987
23744		5.460639	1.385802	7.942991	0.006813	-0.003048	-0.005134	-0.571045	0.534180	-0.410156	0.515158	-0.206736	-0.224212	-0.801000
23745		5.444149	1.412784	7.953602	0.004315	-0.003032	-0.004349	-0.573486	0.532227	-0.410400	0.515165	-0.206793	-0.224200	-0.800984
23746		5.448797	1.404991	7.972431	0.005644	-0.000272	-0.003747	-0.575684	0.531006	-0.405273	0.515159	-0.206809	-0.224209	-0.800982
23747		5.436329	1.389414	7.966774	0.004845	0.000301	-0.004398	-0.577881	0.537354	-0.415039	0.515084	-0.206885	-0.224209	-0.801010
23748		5.450714	1.398885	7.961948	0.005782	-0.002566	-0.004301	-0.572510	0.536377	-0.410645	0.515142	-0.206891	-0.224246	-0.800961
23749		5.460910	1.417751	7.937681	0.005987	-0.002390	-0.003745	-0.567383	0.533691	-0.413574	0.515186	-0.206934	-0.224242	-0.800923
23750		5.451381	1.402111	7.960924	0.003926	-0.002107	-0.003886	-0.573242	0.537354	-0.410889	0.515226	-0.206931	-0.224209	-0.800907
23751		5.452370	1.410782	7.953842	0.005988	-0.002391	-0.003745	-0.577393	0.531006	-0.413330	0.515280	-0.206974	-0.224207	-0.800861
23752		5.451289	1.398102	7.966571	0.005393	-0.001642	-0.003839	-0.575195	0.525879	-0.408447	0.515274	-0.206964	-0.224263	-0.800853
23753		5.435648	1.408331	7.974161	0.004022	0.000276	-0.004816	-0.561523	0.533936	-0.411377	0.515173	-0.206976	-0.224292	-0.800906
23754		5.450637	1.393905	7.972641	0.004751	-0.002085	-0.003468	-0.580811	0.530762	-0.415527	0.515218	-0.206986	-0.224222	-0.800895
23755		5.459558	1.398135	7.961566	0.004294	-0.003630	-0.004115	-0.565674	0.524658	-0.410645	0.515205	-0.206980	-0.224306	-0.800880
23756		5.454204	1.394642	7.954951	0.004960	-0.002591	-0.004718	-0.570068	0.533691	-0.414062	0.515121	-0.206970	-0.224317	-0.800934
23757		5.442767	1.416962	7.932632	0.003975	-0.000917	-0.004351	-0.569336	0.531006	-0.417725	0.515155	-0.206952	-0.224294	-0.800923
23758		5.432657	1.400965	7.956374	0.002003	0.002433	-0.003617	-0.570801	0.535889	-0.416016	0.515202	-0.206862	-0.224250	-0.800929
23759		5.435855	1.409364	7.978721	0.005300	-0.004026	-0.002907	-0.570068	0.531006	-0.420654	0.515278	-0.206859	-0.224256	-0.800879
23760		5.441796	1.399426	7.951051	0.006975	-0.009937	-0.003266	-0.578125	0.527588	-0.409912	0.515320	-0.206832	-0.224355	-0.800832
23761		5.443810	1.408223	7.943227	0.005073	-0.004800	-0.003231	-0.565918	0.530029	-0.412354	0.515244	-0.206886	-0.224429	-0.800845
23762		5.467847	1.398799	7.976452	0.003858	-0.003898	-0.003187	-0.570801	0.536865	-0.410400	0.515240	-0.206904	-0.224410	-0.800849
23763		5.450153	1.408829	7.954562	0.005190	-0.001820	-0.004395	-0.574463	0.531494	-0.417480	0.515278	-0.206942	-0.224382	-0.800823
23764		5.461386	1.410891	7.927137	0.004385	-0.000564	-0.003239	-0.563477	0.530518	-0.415283	0.515315	-0.206881	-0.224405	-0.800808
23765		5.451724	1.395066	7.950581	0.004133	-0.001933	-0.003329	-0.566650	0.521729	-0.412598	0.515345	-0.206843	-0.224371	-0.800808
23766		5.436291	1.405037	7.958070	0.004362	-0.001160	-0.003006	-0.574951	0.536133	-0.410889	0.515262	-0.206799	-0.224386	-0.800868
23767		5.443920	1.395201	7.960146	0.007575	-0.004817	-0.004015	-0.577148	0.530029	-0.411377	0.515281	-0.206853	-0.224426	-0.800831
23768		5.459126	1.435926	7.944703	0.008558	-0.005808	-0.002575	-0.577881	0.531006	-0.413818	0.515253	-0.206889	-0.224522	-0.800813
23769		5.446217	1.406229	7.951723	0.005168	-0.002418	-0.004161	-0.570312	0.529297	-0.413086	0.515239	-0.206884	-0.224573	-0.800809
23770		5.453497	1.396239	7.954070	0.003998	-0.000324	-0.004584	-0.570557	0.529053	-0.409180	0.515220	-0.206857	-0.224565	-0.800830
23771		5.441821	1.420555	7.977564	0.002668	-0.002401	-0.003375	-0.575928	0.531982	-0.412598	0.515170	-0.206905	-0.224542	-0.800857
23772		5.445539	1.395756	7.963858	0.004112	-0.002530	-0.003096	-0.570557	0.527588	-0.422852	0.515167	-0.206926	-0.224558	-0.800849
23773		5.432923	1.403348	7.954700	0.003902	-0.002022	-0.001846	-0.568359	0.538574	-0.417969	0.515232	-0.206809	-0.224597	-0.800826
23774		5.448006	1.419417	7.943251	0.003971	-0.000235	-0.002546	-0.575684	0.539062	-0.410400	0.515362	-0.206767	-0.224544	-0.800768
23775		5.440497	1.393909	7.956757	0.003237	-0.003061	-0.001241	-0.568359	0.535400	-0.414551	0.515429	-0.206852	-0.224509	-0.800712
23776		5.449493	1.397647	7.945683	0.003470	-0.002974	-0.002724	-0.572021	0.533691	-0.413818	0.515488	-0.206864	-0.224474	-0.800681
23777		5.445310	1.410495	7.971641	0.004732	-0.002684	-0.003234	-0.575928	0.537842	-0.414795	0.515519	-0.206868	-0.224477	-0.800660
23778		5.440069	1.406995	7.964966	0.006749	-0.004158	-0.002626	-0.564697	0.533447	-0.414307	0.515601	-0.206883	-0.224513	-0.800593
23779		5.448992	1.411353	7.953825	0.003543	-0.001873	-0.005229	-0.575684	0.534912	-0.415527	0.515615	-0.206869	-0.224467	-0.800600
23780		5.442398	1.400424	7.954312	0.003420	0.001705	-0.003108	-0.572998	0.524902	-0.420410	0.515678	-0.206827	-0.224448	-0.800576
23781		5.438686	1.389466	7.983782	0.004227	-0.004737	-0.001605	-0.569336	0.534424	-0.414062	0.515667	-0.206765	-0.224517	-0.800579
23782		5.444322	1.409865	7.946403	0.004806	-0.006768	-0.003081	-0.571533	0.531006	-0.413086	0.515698	-0.206809	-0.224530	-0.800545
23783		5.444706	1.404063	7.952091	0.004460	-0.004650	-0.003088	-0.573730	0.531006	-0.420166	0.515691	-0.206833	-0.224548	-0.800538
23784		5.447438	1.395960	7.941434	0.004893	-0.003699	-0.002210	-0.569092	0.535889	-0.411377	0.515741	-0.206778	-0.224595	-0.800506
23785		5.459105	1.400209	7.959380	0.004688	-0.003877	-0.002766	-0.572021	0.525879	-0.417480	0.515781	-0.206825	-0.224572	-0.800475
23786		5.436168	1.414750	7.970540	0.005995	-0.002396	-0.003744	-0.567139	0.529297	-0.414062	0.515751	-0.206756	-0.224629	-0.800497
23787		5.438541	1.406842	7.960096	0.003909	-0.002711	-0.003650	-0.566406	0.534424	-0.410889	0.515732	-0.206747	-0.224617	-0.800515
23788		5.460218	1.397643	7.964008	0.007697	-0.007026	-0.002522	-0.578613	0.533203	-0.412598	0.515755	-0.206806	-0.224634	-0.800480
23789		5.451568	1.410679	7.931062	0.005701	-0.004958	-0.003364	-0.569092	0.534180	-0.407227	0.515763	-0.206840	-0.224691	-0.800450
23790		5.468445	1.412900	7.961610	0.003472	-0.002976	-0.002722	-0.576660	0.535645	-0.411865	0.515755	-0.206921	-0.224642	-0.800448
23791		5.448898	1.401288	7.959588	0.005126	-0.003614	-0.003693	-0.571289	0.533936	-0.414551	0.515783	-0.206956	-0.224664	-0.800414
23792		5.450139	1.410034	7.952248	0.005541	-0.003945	-0.004386	-0.578613	0.533691	-0.408447	0.515806	-0.206956	-0.224682	-0.800395
23793		5.459765	1.421357	7.934417	0.004708	-0.002595	-0.001195	-0.576416	0.530518	-0.414795	0.515825	-0.207015	-0.224694	-0.800364
23794		5.443258	1.417035	7.955062	0.004757	-0.002092	-0.003467	-0.569336	0.539307	-0.416748	0.515833	-0.206991	-0.224730	-0.800355
23795		5.446484	1.416035	7.937866	0.003821	-0.005095	-0.002713	-0.576660	0.533203	-0.403809	0.515927	-0.207012	-0.224710	-0.800295
23796		5.444011	1.412307	7.960331	0.004276	-0.003547	-0.002071	-0.563477	0.526855	-0.410156	0.515906	-0.207119	-0.224704	-0.800282
23797		5.461574	1.388178	7.948625	0.003473	-0.002977	-0.002722	-0.569336	0.532227	-0.415283	0.515833	-0.207144	-0.224663	-0.800334
23798		5.442282	1.416923	7.975863	0.004984	-0.001318	-0.003146	-0.569336	0.537109	-0.403564	0.515859	-0.207109	-0.224655	-0.800329
23799		5.432909	1.398766	7.953549	0.004940	-0.002509	-0.002677	-0.568359	0.529785	-0.407715	0.515854	-0.207213	-0.224596	-0.800321
23800		5.446834	1.400890	7.955163	0.004779	-0.001497	-0.003701	-0.569336	0.535156	-0.409668	0.515801	-0.207241	-0.224569	-0.800356
23801		5.458772	1.412446	7.966674	0.004736	-0.002688	-0.003232	-0.569336	0.529297	-0.409180	0.515808	-0.207282	-0.224537	-0.800350
23802		5.453582	1.415801	7.953810	0.002802	0.001166	-0.004778	-0.568604	0.532471	-0.413574	0.515754	-0.207276	-0.224488	-0.800400
23803		5.436934	1.411614	7.974557	0.005910	-0.004781	-0.002806	-0.569336	0.537109	-0.412598	0.515767	-0.207285	-0.224502	-0.800385
23804		5.468033	1.412469	7.960982	0.007661	-0.008219	-0.002049	-0.571533	0.532471	-0.409668	0.515810	-0.207344	-0.224534	-0.800333
23805		5.451912	1.398964	7.941822	0.006487	-0.006126	-0.002475	-0.571777	0.530029	-0.411377	0.515798	-0.207400	-0.224562	-0.800319
23806		5.458578	1.405578	7.946947	0.005540	-0.003259	-0.002581	-0.566162	0.529785	-0.416260	0.515784	-0.207408	-0.224580	-0.800321
23807		5.445993	1.413474	7.937681	0.005378	-0.002247	-0.003605	-0.571777	0.527588	-0.406738	0.515795	-0.207356	-0.224584	-0.800326
23808		5.450828	1.405848	7.956521	0.005811	-0.001294	-0.002730	-0.578125	0.533691	-0.417725	0.515732	-0.207378	-0.224584	-0.800360
23809		5.459197	1.403279	7.951901	0.007567	-0.005422	-0.003775	-0.566162	0.535156	-0.407227	0.515775	-0.207349	-0.224673	-0.800316
23810		5.446473	1.404365	7.948909	0.005502	-0.005142	-0.003915	-0.572021	0.529541	-0.421631	0.515748	-0.207427	-0.224643	-0.800321
23811		5.432220	1.421656	7.949319	0.005931	-0.003497	-0.001236	-0.574463	0.527100	-0.412842	0.515820	-0.207343	-0.224700	-0.800280
23812		5.439932	1.411736	7.951428	0.005794	-0.002581	-0.004298	-0.572998	0.537598	-0.403320	0.515779	-0.207317	-0.224746	-0.800300
23813		5.447496	1.401959	7.953616	0.004969	-0.002608	-0.004715	-0.567383	0.532227	-0.415527	0.515735	-0.207417	-0.224700	-0.800316
23814		5.446435	1.420027	7.956358	0.004759	-0.002096	-0.003466	-0.569580	0.537354	-0.409424	0.515760	-0.207384	-0.224689	-0.800311
23815		5.453960	1.410077	7.958607	0.005174	-0.002429	-0.004160	-0.572998	0.533203	-0.412109	0.515765	-0.207424	-0.224652	-0.800308
23816		5.447306	1.392248	7.965443	0.004738	-0.002692	-0.003231	-0.569824	0.537109	-0.417480	0.515770	-0.207434	-0.224652	-0.800303
23817		5.457356	1.410634	7.940996	0.004739	-0.002692	-0.003231	-0.566406	0.529541	-0.411865	0.515837	-0.207409	-0.224641	-0.800269
23818		5.448903	1.402181	7.957605	0.005111	-0.004215	-0.003454	-0.563965	0.527832	-0.413818	0.515810	-0.207419	-0.224641	-0.800284
23819		5.449843	1.410607	7.950478	0.003973	-0.000240	-0.002550	-0.572510	0.527588	-0.413330	0.515808	-0.207375	-0.224606	-0.800306
23820		5.468544	1.410246	7.965085	0.002545	0.001174	-0.001260	-0.567383	0.530029	-0.404053	0.515810	-0.207336	-0.224578	-0.800323
23821		5.456852	1.400861	7.953055	0.003311	-0.001278	-0.001941	-0.570312	0.529541	-0.411377	0.515746	-0.207404	-0.224510	-0.800365
23822		5.454689	1.404302	7.969115	0.004697	-0.003883	-0.002760	-0.575684	0.523193	-0.416016	0.515724	-0.207419	-0.224517	-0.800373
23823		5.467559	1.420208	7.927961	0.004077	-0.003730	-0.002622	-0.568359	0.529785	-0.421387	0.515699	-0.207377	-0.224580	-0.800383
23824		5.444555	1.403650	7.949479	0.003789	0.000175	-0.003340	-0.564941	0.530762	-0.406982	0.515770	-0.207267	-0.224585	-0.800365
23825		5.441391	1.399951	7.972491	0.003106	-0.001458	-0.002495	-0.568848	0.534912	-0.415771	0.515731	-0.207311	-0.224517	-0.800397
23826		5.463588	1.397662	7.969858	0.006269	-0.006904	-0.002789	-0.569336	0.535645	-0.408691	0.515774	-0.207327	-0.224550	-0.800356
23827		5.452279	1.412677	7.953436	0.004660	-0.005768	-0.004092	-0.572754	0.529785	-0.407227	0.515746	-0.207404	-0.224533	-0.800359
23828		5.461406	1.416932	7.942080	0.005566	-0.002667	-0.002814	-0.570312	0.535645	-0.416748	0.515689	-0.207440	-0.224529	-0.800387
23829		5.442038	1.412522	7.933780	0.004225	0.000436	-0.004269	-0.572510	0.532715	-0.411621	0.515740	-0.207386	-0.224504	-0.800376
23830		5.443977	1.407171	7.969454	0.005215	-0.000548	-0.002827	-0.573730	0.532715	-0.408936	0.515743	-0.207375	-0.224489	-0.800381
23831		5.445608	1.422997	7.955512	0.007366	-0.004912	-0.002523	-0.572510	0.534424	-0.410156	0.515716	-0.207419	-0.224516	-0.800379
23832		5.456246	1.411002	7.940822	0.006356	-0.004524	-0.003729	-0.574219	0.531494	-0.419678	0.515696	-0.207456	-0.224527	-0.800379
23833		5.450402	1.400509	7.940856	0.004766	-0.002793	-0.005267	-0.567627	0.539062	-0.416260	0.515725	-0.207390	-0.224571	-0.800365
23834		5.453416	1.402546	7.969488	0.006004	-0.002406	-0.003743	-0.568359	0.532227	-0.414795	0.515792	-0.207371	-0.224555	-0.800331
23835		5.450437	1.396722	7.946524	0.005610	-0.001477	-0.003285	-0.572998	0.522461	-0.410156	0.515818	-0.207335	-0.224552	-0.800325
23836		5.454540	1.412989	7.961850	0.006625	-0.002559	-0.003881	-0.571289	0.525391	-0.416016	0.515739	-0.207310	-0.224600	-0.800369
23837		5.443169	1.404377	7.949490	0.003752	-0.001713	-0.004671	-0.570068	0.531006	-0.408447	0.515717	-0.207252	-0.224622	-0.800392
23838		5.442843	1.398767	7.955732	0.005179	-0.002434	-0.004158	-0.571045	0.529785	-0.407959	0.515668	-0.207278	-0.224605	-0.800422
23839		5.459994	1.405864	7.933997	0.003942	-0.002822	-0.005682	-0.568115	0.528809	-0.416016	0.515586	-0.207311	-0.224588	-0.800471
23840		5.434256	1.422807	7.961844	0.003963	-0.002227	-0.005918	-0.570557	0.530762	-0.414307	0.515581	-0.207263	-0.224597	-0.800484
23841		5.447136	1.415173	7.924629	0.004036	0.001543	-0.003258	-0.572510	0.535400	-0.402832	0.515599	-0.207208	-0.224567	-0.800495
23842		5.458146	1.388692	7.953396	0.003580	0.000686	-0.002094	-0.569580	0.530762	-0.411133	0.515537	-0.207283	-0.224473	-0.800542
23843		5.436602	1.393488	7.955148	0.004806	-0.000910	-0.003936	-0.566895	0.533936	-0.407471	0.515518	-0.207271	-0.224452	-0.800563
23844		5.436840	1.395261	7.954674	0.006837	-0.003074	-0.005127	-0.570068	0.528809	-0.414551	0.515473	-0.207305	-0.224433	-0.800589
23845		5.451876	1.412064	7.942825	0.005632	-0.000883	-0.003520	-0.578125	0.527832	-0.419189	0.515484	-0.207253	-0.224444	-0.800592
23846		5.449256	1.415852	7.959150	0.003585	-0.000010	-0.003895	-0.569092	0.533936	-0.413330	0.515503	-0.207168	-0.224474	-0.800593
23847		5.437917	1.416548	7.986367	0.001783	0.002235	-0.004188	-0.573242	0.527832	-0.409668	0.515515	-0.207138	-0.224398	-0.800614
23848		5.447241	1.396886	7.979007	0.004915	-0.004401	-0.004002	-0.571045	0.535889	-0.410400	0.515447	-0.207166	-0.224414	-0.800646
23849		5.458819	1.398870	7.951150	0.005988	-0.003002	-0.003504	-0.567139	0.530518	-0.415039	0.515436	-0.207196	-0.224395	-0.800652
23850		5.451717	1.411662	7.948040	0.003170	0.000324	-0.003202	-0.572510	0.533203	-0.418213	0.515466	-0.207149	-0.224360	-0.800654
23851		5.442354	1.402739	7.965455	0.001162	0.002387	-0.004049	-0.566650	0.537842	-0.412598	0.515508	-0.207082	-0.224309	-0.800659
23852		5.449277	1.392187	7.968295	0.002118	-0.000480	-0.003936	-0.573242	0.536377	-0.408203	0.515529	-0.207096	-0.224229	-0.800663
23853		5.442818	1.418623	7.952232	0.001573	0.002749	-0.002941	-0.568115	0.534912	-0.414795	0.515504	-0.207118	-0.224124	-0.800703
23854		5.434849	1.393290	7.966490	0.004227	0.000432	-0.004269	-0.574951	0.538574	-0.406250	0.515532	-0.207081	-0.224085	-0.800706
23855		5.433442	1.404298	7.975664	0.005854	-0.007863	-0.003650	-0.569336	0.533203	-0.415039	0.515467	-0.207204	-0.224081	-0.800717
23856		5.461088	1.390053	7.946057	0.002459	-0.008964	-0.000766	-0.566406	0.529297	-0.414062	0.515491	-0.207274	-0.224086	-0.800683
23857		5.441286	1.401299	7.940418	0.001417	-0.002708	-0.002852	-0.570312	0.531982	-0.419189	0.515497	-0.207272	-0.224052	-0.800688
23858		5.460267	1.401129	7.954813	0.003605	0.000584	-0.004132	-0.577881	0.533203	-0.416748	0.515547	-0.207191	-0.224042	-0.800680
23859		5.437650	1.391936	7.969885	0.005203	-0.001841	-0.004392	-0.569824	0.529053	-0.411133	0.515555	-0.207152	-0.224067	-0.800678
23860		5.452118	1.401750	7.964674	0.007688	-0.002453	-0.004946	-0.568115	0.532959	-0.414551	0.515520	-0.207128	-0.224094	-0.800699
23861		5.448926	1.396107	7.941834	0.004848	0.000278	-0.004409	-0.578369	0.529297	-0.411133	0.515537	-0.207082	-0.224069	-0.800707
23862		5.438712	1.411615	7.955563	0.005323	0.001728	-0.005811	-0.577148	0.525146	-0.415771	0.515479	-0.207035	-0.224066	-0.800758
23863		5.430768	1.417595	7.959272	0.004564	-0.002284	-0.004016	-0.573242	0.530273	-0.414551	0.515453	-0.206986	-0.224107	-0.800775
23864		5.452246	1.408436	7.963407	0.005311	-0.004635	-0.002654	-0.560547	0.531494	-0.416504	0.515453	-0.206986	-0.224134	-0.800768
23865		5.448917	1.395110	7.947087	0.003547	-0.001202	-0.003422	-0.569824	0.533447	-0.413330	0.515505	-0.206944	-0.224100	-0.800755
23866		5.446531	1.398658	7.963305	0.003527	-0.001797	-0.003185	-0.564453	0.528564	-0.414795	0.515512	-0.206945	-0.224068	-0.800759
23867		5.431107	1.408416	7.970799	0.003938	-0.001433	-0.002077	-0.572021	0.531494	-0.409912	0.515540	-0.206912	-0.224048	-0.800755
23868		5.433654	1.400535	7.960311	0.007201	-0.005197	-0.005106	-0.575684	0.532227	-0.417480	0.515483	-0.206939	-0.224076	-0.800777
23869		5.446986	1.426856	7.958001	0.005186	-0.002438	-0.004154	-0.575684	0.527344	-0.410400	0.515497	-0.206901	-0.224101	-0.800771
23870		5.445848	1.407150	7.977491	0.005333	-0.004041	-0.002890	-0.575928	0.537842	-0.414062	0.515439	-0.206919	-0.224119	-0.800798
23871		5.436602	1.419297	7.944824	0.003450	-0.004177	-0.002237	-0.578125	0.528809	-0.414795	0.515454	-0.206960	-0.224099	-0.800784
23872		5.449107	1.400083	7.966376	0.004976	-0.001922	-0.002908	-0.568848	0.521484	-0.408447	0.515442	-0.206930	-0.224120	-0.800793
23873		5.456121	1.380059	7.929627	0.003494	-0.003687	-0.004511	-0.573730	0.539062	-0.414062	0.515344	-0.206943	-0.224118	-0.800854
23874		5.457824	1.398614	7.961341	0.006013	-0.002410	-0.003739	-0.573486	0.531494	-0.415771	0.515364	-0.206948	-0.224107	-0.800843
23875		5.451590	1.425478	7.944935	0.001555	0.001452	-0.004508	-0.569092	0.532715	-0.415039	0.515366	-0.206902	-0.224061	-0.800866
23876		5.442750	1.385750	7.972632	0.002319	0.000396	-0.001582	-0.573486	0.541748	-0.416748	0.515406	-0.206878	-0.224006	-0.800862
23877		5.459421	1.392171	7.951259	0.003772	-0.000427	-0.003105	-0.568848	0.531738	-0.410400	0.515465	-0.206868	-0.223961	-0.800839
23878		5.441065	1.404426	7.975532	0.002574	0.000369	-0.005102	-0.569580	0.528809	-0.413818	0.515426	-0.206864	-0.223901	-0.800882
23879		5.475414	1.399873	7.930126	0.000185	0.003953	-0.005733	-0.576172	0.533203	-0.417725	0.515401	-0.206803	-0.223822	-0.800936
23880		5.465945	1.252823	7.956561	0.009017	0.000589	-0.019654	-0.563721	0.533447	-0.412354	0.515283	-0.206669	-0.223904	-0.801024
23881		5.512422	1.405621	7.958523	0.009904	-0.010048	-0.028909	-0.576416	0.528320	-0.413818	0.515028	-0.206647	-0.224037	-0.801155
23882		5.507958	1.404440	7.935786	0.010956	0.011231	-0.034064	-0.572754	0.531738	-0.411621	0.514754	-0.206368	-0.224102	-0.801386
23883		5.466703	1.457346	7.930851	-0.021767	0.020071	-0.026413	-0.572266	0.533203	-0.406738	0.514498	-0.206263	-0.223733	-0.801680
23884		5.391583	1.492776	7.969800	-0.038628	0.018127	-0.013407	-0.568359	0.529297	-0.410400	0.514289	-0.206362	-0.223147	-0.801952
23885		5.422585	1.406717	7.961731	-0.029534	0.016468	-0.012195	-0.564453	0.533203	-0.416016	0.514140	-0.206377	-0.222683	-0.802173
23886		5.427467	1.318718	8.046430	-0.026526	0.003087	-0.013473	-0.566406	0.531250	-0.410156	0.514018	-0.206473	-0.222346	-0.802320
23887		5.266536	1.388312	8.078406	-0.003078	-0.032373	-0.015430	-0.573975	0.525391	-0.414795	0.513780	-0.206801	-0.222463	-0.802355
23888		5.282928	1.414771	8.125040	0.013968	-0.088570	0.003016	-0.565918	0.534912	-0.407959	0.513623	-0.207581	-0.223116	-0.802073
23889		5.161615	1.417757	8.221923	0.043319	-0.181871	0.021639	-0.568848	0.536377	-0.408203	0.513471	-0.209228	-0.224542	-0.801344
23890		5.653721	1.485842	7.723176	0.056700	-0.199935	0.030665	-0.576416	0.525879	-0.408691	0.513408	-0.210982	-0.226199	-0.800458
23891		5.450972	1.564882	7.886352	0.039656	-0.166320	0.046622	-0.572754	0.528076	-0.404297	0.513528	-0.212502	-0.227482	-0.799615
23892		5.625864	1.756027	7.528835	0.028047	-0.055297	0.067842	-0.584473	0.528076	-0.407959	0.514141	-0.213069	-0.227856	-0.798963
23893		5.932821	0.584324	7.450968	-0.008753	0.135817	0.030617	-0.572998	0.537109	-0.404297	0.514824	-0.211831	-0.226772	-0.799161
23894		4.686188	1.950273	8.703538	-0.002119	0.035592	0.044174	-0.577148	0.542969	-0.412598	0.515384	-0.211655	-0.226301	-0.798980
23895		5.507250	2.222290	7.858954	0.040115	-0.189608	0.234054	-0.568604	0.549805	-0.407715	0.517371	-0.213952	-0.227218	-0.796821
23896		5.287649	1.545609	8.186258	-0.031133	-0.310782	0.383550	-0.576904	0.540283	-0.399170	0.520309	-0.218364	-0.227774	-0.793545
23897		5.775378	0.589709	8.172239	-0.098519	-0.555779	0.365943	-0.576904	0.549316	-0.390869	0.522062	-0.225557	-0.229335	-0.789924
23898		6.380811	1.512136	6.379893	-0.077416	-0.387697	0.238791	-0.576416	0.547852	-0.394043	0.523091	-0.230577	-0.230348	-0.787496
23899		7.445882	-0.182635	5.578006	-0.002776	0.708787	0.089136	-0.572266	0.554443	-0.398193	0.526053	-0.223788	-0.225408	-0.788910
23900		4.406086	0.107729	9.615129	0.018104	0.824632	-0.267263	-0.563232	0.556396	-0.412109	0.525804	-0.214756	-0.220862	-0.792862
23901		4.547886	2.941602	9.438433	0.021113	-0.177117	-0.022556	-0.563721	0.554199	-0.406982	0.525230	-0.216296	-0.222234	-0.792440
23902		5.318709	0.477452	9.497340	0.241980	-1.006036	0.098187	-0.572021	0.552979	-0.400635	0.524073	-0.224923	-0.230875	-0.788323
23903		2.798354	-0.057761	13.179215	0.393937	-2.827181	0.019116	-0.598633	0.537109	-0.355957	0.516961	-0.250071	-0.253008	-0.778590
23904		4.715933	3.113354	13.433011	-0.014089	-5.332702	0.456628	-0.635986	0.544922	-0.278564	0.503287	-0.302890	-0.285195	-0.757380
23905		9.086345	1.608849	12.615364	0.026792	-6.427354	0.595313	-0.655762	0.529541	-0.176758	0.484449	-0.364572	-0.322541	-0.726887
23906		16.580333	2.231535	10.406336	0.618546	-4.690990	0.003977	-0.672607	0.524414	-0.115967	0.467331	-0.402639	-0.355852	-0.702034
23907		15.372031	-0.611809	-0.065678	0.668869	-2.485511	-0.600754	-0.688477	0.491699	-0.094238	0.454004	-0.417379	-0.379001	-0.689952
23908		17.072156	4.121739	-4.457173	0.709485	0.715867	-0.086015	-0.671875	0.468750	-0.123779	0.460304	-0.406712	-0.381323	-0.690867
23909		1.791671	1.886791	-6.849519	0.623960	1.959307	-0.688682	-0.670166	0.441406	-0.168457	0.466710	-0.382792	-0.378696	-0.701599
23910		-1.183268	2.597188	-3.875578	-0.242612	0.661608	-0.887753	-0.662598	0.426025	-0.185303	0.460875	-0.374187	-0.376859	-0.711024
23911		-1.816851	-1.580686	-0.625612	-1.479347	-0.189259	-0.394706	-0.676270	0.424561	-0.170410	0.449505	-0.382484	-0.366542	-0.719234
23912		-0.036112	-4.293911	-0.060027	-1.359161	-0.408760	0.300439	-0.669189	0.444092	-0.141602	0.443793	-0.395131	-0.355082	-0.721690
23913		1.083495	-1.309790	-2.641761	-0.653000	-0.455321	1.043970	-0.666748	0.473633	-0.125732	0.447935	-0.407464	-0.346461	-0.716444
23914		3.274672	-1.043171	-2.741347	-0.602265	-0.795450	1.859480	-0.654541	0.516602	-0.073975	0.457950	-0.425896	-0.335890	-0.704324
23915		14.618445	5.585104	1.809683	-0.112035	-0.218330	1.055332	-0.651855	0.562500	-0.067139	0.465721	-0.432884	-0.330481	-0.697494
23916		24.718453	-5.092408	6.318026	-1.781917	4.506039	0.552213	-0.629883	0.591064	-0.097412	0.478680	-0.405503	-0.285149	-0.724653
23917		10.015310	3.192585	16.483392	0.761478	6.011807	-0.865830	-0.616699	0.582764	-0.198242	0.494771	-0.342331	-0.259675	-0.755368
23918		4.056639	0.824438	8.312073	0.778841	5.232545	-0.981273	-0.594971	0.566406	-0.283447	0.504751	-0.284232	-0.238280	-0.779526
23919		5.558026	3.280663	10.580055	0.289835	4.751845	-0.655091	-0.579590	0.568848	-0.343018	0.512688	-0.233701	-0.213004	-0.798226
23920		-0.045277	0.552915	17.786301	-0.078958	1.379320	-0.248977	-0.567627	0.564941	-0.365234	0.513616	-0.219774	-0.204035	-0.803908
23921		3.774656	1.348769	13.728712	0.230418	-2.135917	0.409325	-0.583984	0.564209	-0.337646	0.512743	-0.240724	-0.218772	-0.794535
23922		1.707007	2.187664	14.298199	-0.276341	-4.818467	0.873664	-0.598877	0.574219	-0.261963	0.506459	-0.292254	-0.243741	-0.773743
23923		8.584438	1.029414	10.610922	-0.849833	-5.910984	1.122129	-0.618652	0.590088	-0.174316	0.494740	-0.357306	-0.267962	-0.745494
23924		12.831504	0.520109	8.376631	-0.030502	-4.720283	0.460183	-0.627930	0.591797	-0.116699	0.482212	-0.402350	-0.294162	-0.720455
23925		15.526524	0.202587	4.806888	0.929490	-2.724754	-0.057600	-0.636230	0.569336	-0.097168	0.476038	-0.420784	-0.318890	-0.703305
23926		19.786361	3.587346	-1.681042	0.544683	0.124688	-0.011531	-0.628418	0.557373	-0.121826	0.479282	-0.416369	-0.322842	-0.701925
23927		5.525221	0.513249	-5.875190	-0.299979	2.227279	-0.605041	-0.626221	0.531006	-0.156006	0.481210	-0.396018	-0.309791	-0.718078
23928		-2.409896	-0.573106	-7.056944	-0.138900	0.815449	-0.801263	-0.624756	0.508789	-0.174072	0.476467	-0.386412	-0.307526	-0.727387
23929		-5.010116	-0.532363	-1.290653	-0.680112	-0.792551	-0.204370	-0.635254	0.514160	-0.147949	0.468274	-0.396874	-0.307000	-0.727298
23930		-1.901353	-2.815556	1.218763	-0.589798	-1.110819	0.034124	-0.630859	0.526367	-0.116211	0.461372	-0.410530	-0.307902	-0.723739
23931		1.017232	-0.633384	-0.290487	-0.064779	-1.022744	0.024696	-0.647461	0.542236	-0.095459	0.457317	-0.420239	-0.313014	-0.718528
23932		3.420573	-1.901870	-3.650504	-0.577591	-1.137301	0.613305	-0.637451	0.567871	-0.046875	0.455298	-0.436112	-0.311010	-0.711184
23933		35.615478	-3.048146	5.342090	-0.812016	2.019916	0.228016	-0.652832	0.585938	-0.056641	0.460614	-0.423531	-0.290910	-0.723759
23934		12.377615	-2.963443	12.766548	2.127345	5.933805	-2.372261	-0.661377	0.549561	-0.171387	0.470409	-0.347609	-0.287535	-0.758425
23935		2.116585	3.262708	11.267920	0.155380	5.833666	-2.088833	-0.658203	0.520996	-0.254395	0.470896	-0.282952	-0.262922	-0.793138
23936		0.966435	12.864591	13.256247	-0.395816	3.973554	-0.629229	-0.644043	0.515869	-0.305420	0.475760	-0.243507	-0.237462	-0.811152
23937		5.475710	-0.232822	11.692491	-0.247444	1.193453	0.920655	-0.617432	0.538818	-0.327637	0.487834	-0.235581	-0.224957	-0.809885
23938		5.418711	-4.159148	9.978645	0.059610	-0.235862	-0.167012	-0.627197	0.539551	-0.322754	0.485681	-0.237143	-0.227417	-0.810036
23939		5.218886	4.582793	9.645047	0.188468	-1.200920	0.025840	-0.635742	0.532715	-0.294922	0.483048	-0.248212	-0.236419	-0.805705
23940		3.030644	0.887852	13.222806	0.325292	-3.138395	0.460514	-0.645996	0.536377	-0.251953	0.479054	-0.279017	-0.256928	-0.791609
23941		4.415677	0.823642	11.923122	-0.018700	-5.433245	0.580453	-0.673340	0.539795	-0.178955	0.466178	-0.334062	-0.286503	-0.767462
23942		15.260589	1.646691	11.372244	0.444255	-5.773746	0.290968	-0.687012	0.526611	-0.084961	0.448930	-0.386979	-0.322250	-0.738149
23943		17.944895	2.416781	5.801983	0.690656	-3.106123	-0.152894	-0.682129	0.510254	-0.071777	0.437986	-0.410837	-0.346364	-0.720703
23944		17.508029	2.388033	1.176078	1.080259	-0.727067	-0.255043	-0.681885	0.490234	-0.080566	0.438024	-0.410318	-0.361189	-0.713664
23945		3.023840	3.304794	0.679459	0.373053	2.255513	-0.759149	-0.666748	0.460205	-0.137451	0.443154	-0.384557	-0.355779	-0.727428
23946		-3.530417	0.772067	-4.750512	0.191092	1.600439	-0.871080	-0.663330	0.428223	-0.179688	0.443161	-0.364985	-0.352638	-0.738946
23947		0.081265	-1.251225	-3.772514	-0.920770	0.499751	0.366999	-0.661621	0.440186	-0.182861	0.444524	-0.367064	-0.339566	-0.743207
23948		2.571081	-3.984092	-1.423289	-0.139569	0.465501	0.911947	-0.653564	0.462402	-0.182617	0.454315	-0.367369	-0.331393	-0.740821
23949		-1.289432	-1.930898	-4.877540	1.198066	0.335516	1.018515	-0.646729	0.480469	-0.189697	0.470570	-0.361623	-0.335763	-0.731475
23950		-3.869790	2.022005	-9.285746	0.511402	-2.128556	1.413720	-0.655762	0.516113	-0.153564	0.476653	-0.383840	-0.346327	-0.711003
23951		40.842692	5.428570	15.200306	-1.609384	-1.073262	0.860965	-0.656494	0.569824	-0.102295	0.471809	-0.406589	-0.334142	-0.707411
23952		16.598106	-6.809693	2.702727	0.062395	6.353806	-0.940370	-0.647217	0.568359	-0.189941	0.488861	-0.344903	-0.300955	-0.742618
23953		1.087233	6.181203	10.790480	0.896833	7.026224	-2.039851	-0.623291	0.532227	-0.298584	0.498209	-0.265228	-0.273903	-0.778729
23954		1.833985	5.834195	13.832451	-0.851067	4.828392	-0.350456	-0.597168	0.543945	-0.353027	0.507625	-0.221896	-0.236200	-0.798304
23955		-2.171161	1.645685	16.950736	-0.580484	1.251559	0.315560	-0.570068	0.553955	-0.372070	0.512828	-0.214012	-0.221513	-0.801335
23956		7.086768	0.569129	6.488552	0.232465	-0.804126	0.552471	-0.584717	0.564941	-0.368408	0.516733	-0.222093	-0.227411	-0.794950
23957		8.805605	-1.129054	4.024533	-0.106447	0.514258	0.163553	-0.578857	0.558838	-0.379883	0.519533	-0.218137	-0.222490	-0.795613
23958		4.562305	-0.465030	10.374679	-0.089268	0.510960	-0.443964	-0.574951	0.558105	-0.372314	0.516308	-0.212409	-0.219419	-0.800102
23959		4.605161	3.025494	8.862957	0.195935	-0.327495	-0.129227	-0.569092	0.549561	-0.366211	0.514656	-0.214076	-0.223752	-0.799522
23960		6.011337	2.110894	6.597780	0.064192	-0.126427	-0.024784	-0.574951	0.550049	-0.366455	0.514248	-0.214866	-0.225191	-0.799169
23961		6.224142	0.958769	7.535561	-0.007594	0.200425	-0.044515	-0.578369	0.550049	-0.368164	0.514372	-0.212799	-0.223869	-0.800013
23962		5.373220	0.394569	8.357320	0.131328	0.265669	-0.153561	-0.579834	0.549805	-0.375000	0.513953	-0.208879	-0.223808	-0.801332
23963		5.388341	0.985855	8.173307	0.302129	0.235590	-0.199297	-0.574463	0.542236	-0.386475	0.513423	-0.204031	-0.225761	-0.802372
23964		4.701921	2.768868	7.659735	0.297537	0.214150	-0.223514	-0.571045	0.539062	-0.392090	0.512563	-0.199352	-0.227859	-0.803504
23965		4.965111	2.406117	7.881824	0.002101	0.021765	-0.048178	-0.581299	0.537598	-0.386719	0.512172	-0.198995	-0.227783	-0.803863
23966		5.209726	1.548980	8.141660	-0.021907	-0.056854	0.022182	-0.580322	0.537354	-0.381104	0.512205	-0.199780	-0.227795	-0.803644
23967		5.642803	0.861376	8.300026	0.109505	-0.096621	-0.022448	-0.583008	0.540039	-0.386230	0.512002	-0.199995	-0.229492	-0.803237
23968		5.406550	1.492474	7.946881	0.194415	-0.090344	-0.112646	-0.578857	0.527588	-0.389404	0.511120	-0.199345	-0.232224	-0.803175
23969		5.210894	2.051003	7.614820	0.124801	-0.104281	-0.072385	-0.585938	0.532471	-0.388428	0.510426	-0.199395	-0.234244	-0.803017
23970		5.289514	2.012561	7.656583	-0.008480	-0.114223	-0.002410	-0.586426	0.520996	-0.387939	0.510071	-0.200599	-0.234816	-0.802776
23971		5.089557	1.767039	7.988671	-0.162552	-0.164748	0.093209	-0.584229	0.529297	-0.379883	0.510138	-0.203572	-0.233923	-0.802246
23972		5.459532	1.511834	8.157754	-0.292024	-0.196195	0.191640	-0.582520	0.544922	-0.383057	0.510761	-0.207970	-0.231676	-0.801373
23973		5.728010	1.189426	8.160998	-0.213952	-0.232081	0.156060	-0.585449	0.541504	-0.370850	0.511115	-0.212120	-0.230527	-0.800390
23974		5.989051	1.042445	8.201651	-0.009978	-0.326029	0.045647	-0.585693	0.541992	-0.365723	0.510624	-0.215585	-0.232306	-0.799262
23975		5.611716	2.086301	7.880606	0.034114	-0.416348	-0.070746	-0.591797	0.540283	-0.364502	0.508816	-0.219329	-0.235410	-0.798488
23976		4.704045	1.594712	8.916226	-0.735815	-0.604307	-0.669685	-0.594238	0.531494	-0.339355	0.498306	-0.228056	-0.233640	-0.803177
23977		3.535498	1.135010	9.823471	-0.558632	-0.440277	-0.814179	-0.603760	0.524658	-0.330078	0.487228	-0.233564	-0.232985	-0.808564
23978		1.276589	2.387484	9.079643	-0.557517	0.120438	-0.877215	-0.621338	0.510498	-0.333252	0.477053	-0.233168	-0.229056	-0.815835
23979		6.666513	1.012340	5.649769	-0.215560	0.225583	-0.208033	-0.623535	0.514648	-0.345215	0.474942	-0.231546	-0.225999	-0.818377
23980		13.418057	1.521905	2.272452	-0.123167	0.198423	0.250952	-0.622803	0.520264	-0.349609	0.477714	-0.230948	-0.222723	-0.817831
23981		4.799526	1.868383	9.077592	-0.275349	0.246436	0.138327	-0.611084	0.510742	-0.341309	0.479044	-0.230464	-0.217962	-0.818471
23982		5.914438	-0.125557	8.022199	-0.121024	0.163132	0.055824	-0.618164	0.519287	-0.348389	0.479734	-0.229678	-0.215508	-0.818938
23983		5.785508	1.141763	7.852732	-0.016680	0.089709	-0.074206	-0.616211	0.524414	-0.353516	0.479190	-0.228666	-0.214930	-0.819691
23984		5.728989	1.251140	7.892808	-0.008024	0.089311	-0.098108	-0.618408	0.527588	-0.343994	0.478427	-0.227543	-0.214514	-0.820558
23985		5.775441	1.433032	7.750449	-0.032181	0.150082	-0.070617	-0.621094	0.521484	-0.358887	0.478038	-0.226018	-0.213408	-0.821494
23986		5.647630	1.684286	7.899626	-0.021609	0.156138	-0.053005	-0.613037	0.525635	-0.349854	0.477872	-0.224408	-0.212322	-0.822313
23987		5.533068	1.277907	7.945928	-0.029480	0.147210	-0.025906	-0.618408	0.517334	-0.349854	0.477943	-0.223013	-0.211138	-0.822956
23988		5.448082	1.203344	8.179355	-0.015057	0.105358	-0.031209	-0.621826	0.525146	-0.352051	0.477878	-0.221946	-0.210361	-0.823481
23989		5.436630	1.413258	8.129722	0.004158	0.007722	-0.011032	-0.614990	0.519775	-0.361572	0.477820	-0.221824	-0.210310	-0.823561
23990		5.474030	1.548184	7.948045	0.031402	-0.052555	0.009027	-0.619629	0.520264	-0.357178	0.477887	-0.222206	-0.210842	-0.823283
23991		5.528026	1.124447	7.884539	0.059291	-0.059658	-0.001939	-0.619385	0.525146	-0.348877	0.477896	-0.222468	-0.211734	-0.822978
23992		5.501508	1.103062	7.946118	0.106923	-0.068330	-0.051409	-0.616699	0.519287	-0.355469	0.477509	-0.222409	-0.213308	-0.822812
23993		5.552034	1.388788	7.987581	0.117874	-0.091519	-0.046122	-0.623535	0.514404	-0.363770	0.477144	-0.222531	-0.215116	-0.822520
23994		5.665485	1.539149	7.830327	0.088009	-0.077453	-0.011763	-0.621826	0.513184	-0.355225	0.477079	-0.222773	-0.216432	-0.822147
23995		5.593695	1.715831	7.814703	0.062019	-0.053199	0.025025	-0.619385	0.516846	-0.357666	0.477386	-0.223025	-0.217236	-0.821688
23996		5.508839	1.414002	7.903277	0.061418	-0.039398	0.061076	-0.629150	0.515137	-0.358398	0.478106	-0.223237	-0.217855	-0.821048
23997		5.539196	0.864886	7.967168	0.107183	-0.074680	0.033772	-0.619385	0.514160	-0.359131	0.478564	-0.223461	-0.219225	-0.820355
23998		5.646215	1.235432	7.869832	0.118384	-0.112323	-0.023298	-0.627930	0.505127	-0.354248	0.478372	-0.223847	-0.221095	-0.819859
23999		5.652009	1.654819	7.824648	0.102017	-0.108836	-0.009669	-0.619385	0.515137	-0.351562	0.478267	-0.224331	-0.222731	-0.819346
24000		5.683357	1.725520	7.693666	0.129603	-0.073727	0.125867	-0.628418	0.510742	-0.364502	0.479744	-0.224674	-0.224071	-0.818021
24001		5.343643	0.965386	8.044213	0.496473	0.095796	0.652839	-0.614990	0.516357	-0.368408	0.488073	-0.222535	-0.226643	-0.812955
24002		5.765514	1.503399	7.646773	0.548250	0.166877	0.722048	-0.601074	0.525879	-0.378418	0.497396	-0.219530	-0.229089	-0.807417
24003		5.914572	1.798583	7.495816	0.221457	0.102353	0.311551	-0.592529	0.532715	-0.375000	0.501463	-0.218017	-0.229751	-0.805120
24004		5.721112	1.071804	7.797286	0.017204	0.031677	-0.034379	-0.594238	0.527588	-0.383789	0.501291	-0.217509	-0.229748	-0.805365
24005		5.659347	1.385759	7.768350	0.000021	0.046290	-0.050476	-0.605225	0.526367	-0.382324	0.500946	-0.216905	-0.229519	-0.805808
24006		5.572619	1.773617	7.739856	-0.033212	0.064651	-0.035042	-0.591064	0.525391	-0.382324	0.500704	-0.216371	-0.228792	-0.806308
24007		5.541936	1.609327	7.852286	-0.042827	0.068437	-0.002889	-0.596924	0.534180	-0.375488	0.500788	-0.215950	-0.227865	-0.806631
24008		5.585038	1.405822	7.856584	-0.041883	0.044205	0.007886	-0.600342	0.528564	-0.383057	0.500912	-0.215810	-0.227073	-0.806815
24009		5.632034	1.285633	7.846183	-0.041654	0.032690	-0.003508	-0.597412	0.530518	-0.380615	0.500878	-0.215741	-0.226379	-0.807050
24010		5.593097	1.456467	7.868134	-0.040382	0.027741	-0.010253	-0.594238	0.530762	-0.381104	0.500770	-0.215698	-0.225748	-0.807305
24011		5.526009	1.558228	7.900937	-0.033415	0.018100	0.004446	-0.594482	0.529053	-0.386475	0.500806	-0.215749	-0.225210	-0.807420
24012		5.624303	1.381721	7.827052	-0.026357	0.021345	0.009837	-0.590332	0.529785	-0.374756	0.500922	-0.215731	-0.224707	-0.807493
24013		5.623630	1.270705	7.876147	-0.019348	0.036707	-0.004773	-0.591064	0.531006	-0.384766	0.500955	-0.215485	-0.224220	-0.807673
24014		5.561738	1.387776	7.892450	-0.010973	0.035753	-0.014733	-0.593506	0.532715	-0.379395	0.500910	-0.215160	-0.223850	-0.807890
24015		5.572717	1.425631	7.894235	-0.003119	0.027845	-0.012778	-0.599609	0.528564	-0.385986	0.500881	-0.214877	-0.223603	-0.808052
24016		5.564739	1.429973	7.846618	-0.009753	0.037705	-0.007609	-0.593750	0.529297	-0.381592	0.500898	-0.214542	-0.223207	-0.808240
24017		5.552864	1.402323	7.896839	-0.016126	0.052998	-0.006060	-0.588867	0.533936	-0.380127	0.500966	-0.214101	-0.222651	-0.808468
24018		5.528829	1.384220	7.916162	-0.017810	0.047528	-0.004727	-0.590088	0.523193	-0.386963	0.501040	-0.213736	-0.222114	-0.808666
24019		5.528201	1.427032	7.872240	-0.016974	0.046968	-0.004081	-0.590820	0.542236	-0.396484	0.501105	-0.213357	-0.221579	-0.808873
24020		5.456513	1.404624	7.942761	-0.014881	0.051714	-0.001794	-0.595703	0.543701	-0.381104	0.501241	-0.212928	-0.221040	-0.809049
24021		5.465138	1.425306	7.959939	-0.009179	0.036903	0.002901	-0.589600	0.535889	-0.395020	0.501386	-0.212645	-0.220636	-0.809144
24022		5.522425	1.383533	7.938242	-0.009275	0.021775	0.004755	-0.595459	0.531494	-0.388184	0.501507	-0.212499	-0.220319	-0.809194
24023		5.508520	1.339683	7.940053	-0.009887	0.020610	0.003342	-0.590332	0.532471	-0.384277	0.501589	-0.212369	-0.220001	-0.809264
24024		5.462212	1.350932	7.940646	-0.003211	0.013746	-0.002999	-0.594238	0.533447	-0.381836	0.501614	-0.212254	-0.219813	-0.809329
24025		5.469678	1.392495	7.943706	0.001120	0.009172	-0.002590	-0.599365	0.527100	-0.384277	0.501635	-0.212163	-0.219695	-0.809372
24026		5.493746	1.385383	7.909617	-0.000973	0.012020	0.000411	-0.585449	0.536377	-0.381104	0.501670	-0.212058	-0.219524	-0.809425
24027		5.480020	1.390819	7.932861	-0.006727	0.023466	0.001202	-0.585938	0.529053	-0.377686	0.501768	-0.211885	-0.219233	-0.809488
24028		5.439464	1.362615	7.963618	-0.002790	0.024101	0.002449	-0.596680	0.538086	-0.387695	0.501876	-0.211681	-0.218969	-0.809546
24029		5.458756	1.322324	7.980658	0.006324	0.013209	-0.001012	-0.587646	0.536621	-0.382324	0.501940	-0.211519	-0.218875	-0.809574
24030		5.469033	1.370634	7.959941	0.010282	0.006843	-0.005291	-0.593750	0.532959	-0.376953	0.501965	-0.211388	-0.218875	-0.809592
24031		5.455981	1.424150	7.957663	0.008161	0.007307	-0.001348	-0.592773	0.533447	-0.388672	0.502006	-0.211281	-0.218834	-0.809606
24032		5.467826	1.344038	7.971377	0.008968	0.005566	-0.000231	-0.592529	0.538574	-0.392334	0.502064	-0.211176	-0.218812	-0.809603
24033		5.466213	1.345808	7.972185	0.005313	0.009767	-0.004853	-0.584229	0.530762	-0.395020	0.502087	-0.211039	-0.218742	-0.809644
24034		5.455037	1.368269	7.979972	0.007748	0.001342	-0.004383	-0.584717	0.539551	-0.389160	0.502104	-0.210963	-0.218750	-0.809651
24035		5.454141	1.360599	7.940526	0.009372	-0.003443	-0.003707	-0.585449	0.537354	-0.383301	0.502129	-0.210942	-0.218804	-0.809627
24036		5.449801	1.388300	7.953383	0.004421	0.003765	-0.002896	-0.592529	0.530029	-0.383301	0.502160	-0.210886	-0.218759	-0.809634
24037		5.470778	1.379779	7.957838	0.005624	-0.000688	-0.001526	-0.590576	0.538574	-0.388916	0.502168	-0.210867	-0.218742	-0.809638
24038		5.459195	1.356202	7.959204	0.005207	-0.002257	-0.002153	-0.582031	0.530273	-0.390381	0.502187	-0.210864	-0.218739	-0.809628
24039		5.441498	1.367927	7.983328	0.006020	-0.003401	-0.001272	-0.591309	0.528809	-0.383789	0.502218	-0.210860	-0.218751	-0.809607
24040		5.452438	1.370252	7.955389	0.007288	-0.001900	-0.002269	-0.586182	0.525879	-0.385742	0.502219	-0.210839	-0.218761	-0.809609
24041		5.466391	1.373081	7.956679	0.005611	-0.001879	-0.001052	-0.591064	0.535400	-0.387207	0.502237	-0.210825	-0.218754	-0.809603
24042		5.457841	1.368640	7.921248	0.006058	-0.002326	-0.003777	-0.584229	0.537354	-0.392334	0.502233	-0.210813	-0.218762	-0.809607
24043		5.450896	1.384081	7.964057	0.004395	0.001383	-0.001950	-0.589355	0.534180	-0.385742	0.502277	-0.210774	-0.218732	-0.809598
24044		5.452937	1.368950	7.960634	0.006658	-0.002354	-0.001888	-0.590820	0.539551	-0.393799	0.502294	-0.210764	-0.218741	-0.809587
24045		5.455254	1.354124	7.956975	0.006066	-0.001732	-0.004014	-0.589355	0.531006	-0.388184	0.502302	-0.210741	-0.218750	-0.809586
24046		5.455939	1.370007	7.943036	0.006255	-0.002733	-0.002989	-0.586426	0.530029	-0.397705	0.502301	-0.210729	-0.218760	-0.809587
24047		5.448158	1.368302	7.953358	0.004168	-0.001188	-0.001553	-0.583740	0.527832	-0.387207	0.502327	-0.210703	-0.218741	-0.809583
24048		5.454025	1.381650	7.952329	0.002112	0.000836	-0.002385	-0.585938	0.536133	-0.388184	0.502337	-0.210681	-0.218687	-0.809597
24049		5.457842	1.349620	7.945998	0.003985	0.000408	-0.002814	-0.587402	0.527588	-0.389160	0.502359	-0.210657	-0.218658	-0.809597
24050		5.453078	1.362435	7.972405	0.003563	0.000740	-0.002121	-0.587891	0.541748	-0.378662	0.502366	-0.210625	-0.218617	-0.809612
24051		5.447350	1.358104	7.966416	0.003967	-0.001378	-0.002103	-0.589111	0.531494	-0.395752	0.502389	-0.210641	-0.218594	-0.809600
24052		5.456147	1.369531	7.948346	0.005007	-0.004945	-0.003784	-0.592773	0.533447	-0.395264	0.502377	-0.210646	-0.218611	-0.809601
24053		5.448730	1.375041	7.951804	0.005020	-0.001258	-0.003176	-0.584473	0.527344	-0.380859	0.502377	-0.210619	-0.218601	-0.809612
24054		5.438452	1.375308	7.978866	0.002492	-0.001166	-0.000335	-0.583740	0.531494	-0.383789	0.502393	-0.210630	-0.218554	-0.809611
24055		5.451723	1.360544	7.947646	0.005810	-0.007280	-0.002427	-0.590332	0.537109	-0.393555	0.502395	-0.210676	-0.218588	-0.809589
24056		5.466433	1.356387	7.954994	0.006447	-0.006232	-0.003045	-0.590576	0.537842	-0.389893	0.502399	-0.210696	-0.218627	-0.809571
24057		5.451272	1.358861	7.968997	0.003974	-0.003281	-0.003422	-0.594482	0.541016	-0.391357	0.502398	-0.210707	-0.218621	-0.809570
24058		5.455617	1.381979	7.977290	0.005192	-0.004045	-0.001439	-0.585205	0.536377	-0.390625	0.502416	-0.210726	-0.218626	-0.809552
24059		5.460927	1.378393	7.943530	0.004360	-0.002189	-0.000528	-0.591309	0.531250	-0.383301	0.502462	-0.210728	-0.218613	-0.809527
24060		5.452541	1.347968	7.980789	0.003135	-0.002021	-0.002272	-0.587402	0.534668	-0.394287	0.502448	-0.210739	-0.218581	-0.809541
24061		5.445423	1.360243	7.977495	0.005610	-0.004973	-0.001895	-0.590088	0.528809	-0.386963	0.502469	-0.210750	-0.218601	-0.809520
24062		5.449168	1.380673	7.939863	0.006865	-0.004663	-0.002419	-0.583496	0.532715	-0.388916	0.502457	-0.210755	-0.218625	-0.809520
24063		5.457230	1.349911	7.961884	0.006645	-0.004141	-0.001175	-0.584229	0.533447	-0.393066	0.502492	-0.210760	-0.218649	-0.809490
24064		5.458367	1.358650	7.954206	0.007074	-0.006377	-0.003187	-0.590332	0.537109	-0.389404	0.502506	-0.210772	-0.218698	-0.809465
24065		5.469166	1.353948	7.932911	0.004830	-0.000261	-0.004203	-0.589355	0.532715	-0.382324	0.502506	-0.210746	-0.218684	-0.809476
24066		5.442694	1.362571	7.968333	0.002742	0.001286	-0.002768	-0.585938	0.528809	-0.393311	0.502503	-0.210729	-0.218628	-0.809497
24067		5.456561	1.371708	7.963174	0.002279	-0.002546	-0.000410	-0.588135	0.526855	-0.392578	0.502525	-0.210735	-0.218595	-0.809491
24068		5.443414	1.371477	7.960906	0.005855	-0.003117	-0.004088	-0.587402	0.531738	-0.391113	0.502504	-0.210713	-0.218607	-0.809506
24069		5.457227	1.367097	7.968916	0.003142	-0.001428	-0.002510	-0.591309	0.540283	-0.387207	0.502511	-0.210704	-0.218580	-0.809512
24070		5.430031	1.358456	7.971816	0.004189	-0.001904	-0.003346	-0.587158	0.530762	-0.374023	0.502516	-0.210710	-0.218565	-0.809511
24071		5.452303	1.371346	7.955509	0.006457	-0.003141	-0.002200	-0.587646	0.539062	-0.387207	0.502505	-0.210730	-0.218568	-0.809512
24072		5.466367	1.366997	7.963343	0.004375	-0.003499	-0.002082	-0.599121	0.535889	-0.392578	0.502527	-0.210752	-0.218565	-0.809493
24073		5.464408	1.370277	7.979503	0.001892	-0.001143	-0.002223	-0.580322	0.535156	-0.386963	0.502506	-0.210753	-0.218514	-0.809520
24074		5.460550	1.363032	7.957371	-0.000152	0.005164	-0.002692	-0.585693	0.534912	-0.392334	0.502551	-0.210707	-0.218417	-0.809530
24075		5.432391	1.353884	7.961025	0.002742	0.001285	-0.002768	-0.583984	0.529541	-0.387451	0.502577	-0.210673	-0.218373	-0.809535
24076		5.459636	1.364785	7.957697	0.004403	-0.000524	-0.003272	-0.584717	0.533447	-0.391602	0.502582	-0.210647	-0.218354	-0.809544
24077		5.451532	1.370159	7.961652	0.003391	0.001022	-0.004943	-0.583740	0.534912	-0.390625	0.502586	-0.210605	-0.218323	-0.809560
24078		5.451166	1.357289	7.974948	0.003363	-0.001952	-0.003752	-0.582275	0.529541	-0.390381	0.502600	-0.210600	-0.218309	-0.809557
24079		5.467283	1.350595	7.966410	0.005440	-0.002190	-0.003632	-0.584473	0.534180	-0.386963	0.502607	-0.210579	-0.218315	-0.809556
24080		5.448335	1.352497	7.951701	0.005446	-0.001595	-0.003870	-0.592285	0.538818	-0.394043	0.502617	-0.210564	-0.218316	-0.809554
24081		5.451813	1.361769	7.973742	0.004000	-0.000906	-0.004371	-0.588623	0.534668	-0.385742	0.502616	-0.210542	-0.218300	-0.809565
24082		5.459999	1.373271	7.955989	0.004005	-0.000311	-0.004610	-0.595215	0.537598	-0.380615	0.502601	-0.210526	-0.218274	-0.809585
24083		5.446100	1.373185	7.954213	0.003170	0.001546	-0.003700	-0.588379	0.535889	-0.392334	0.502576	-0.210515	-0.218217	-0.809619
24084		5.451596	1.358187	7.979935	0.002064	-0.004522	-0.000243	-0.590576	0.536865	-0.388428	0.502603	-0.210552	-0.218194	-0.809598
24085		5.457145	1.361278	7.939415	0.003354	-0.003143	-0.003275	-0.590576	0.534180	-0.386475	0.502596	-0.210569	-0.218178	-0.809602
24086		5.460330	1.356290	7.974960	0.003410	0.000305	-0.006735	-0.587402	0.531494	-0.382812	0.502551	-0.210543	-0.218147	-0.809646
24087		5.454442	1.366498	7.955752	0.003604	0.002401	-0.004870	-0.590332	0.543213	-0.392090	0.502529	-0.210503	-0.218098	-0.809683
24088		5.439985	1.352222	7.967661	0.002141	0.001305	-0.004656	-0.588379	0.534668	-0.386230	0.502543	-0.210480	-0.218052	-0.809693
24089		5.445469	1.366131	7.966713	0.006498	0.001023	-0.003866	-0.588379	0.537842	-0.392090	0.502547	-0.210435	-0.218042	-0.809704
24090		5.455424	1.347224	7.959312	0.004818	-0.002048	-0.003487	-0.582764	0.535156	-0.386475	0.502562	-0.210425	-0.218040	-0.809699
24091		5.453628	1.372359	7.955301	0.005257	-0.000598	-0.004895	-0.583008	0.539795	-0.391113	0.502573	-0.210400	-0.218037	-0.809699
24092		5.445150	1.363877	7.972755	0.004224	0.001663	-0.004775	-0.585693	0.536133	-0.394531	0.502612	-0.210356	-0.218015	-0.809692
24093		5.439020	1.360010	7.966995	0.004844	0.000925	-0.004679	-0.594482	0.535400	-0.395508	0.502631	-0.210303	-0.218003	-0.809697
24094		5.433082	1.356145	7.961103	0.005036	-0.000073	-0.003653	-0.584473	0.533691	-0.395508	0.502621	-0.210261	-0.217987	-0.809719
24095		5.446866	1.352018	7.969123	0.006257	-0.003926	-0.002507	-0.586426	0.538086	-0.386230	0.502650	-0.210248	-0.218015	-0.809696
24096		5.447095	1.353524	7.968711	0.004214	0.000472	-0.004298	-0.587646	0.533447	-0.382324	0.502664	-0.210228	-0.217990	-0.809700
24097		5.444906	1.364064	7.978337	0.002718	-0.001690	-0.001576	-0.594727	0.535645	-0.386475	0.502664	-0.210250	-0.217948	-0.809705
24098		5.445181	1.372103	7.971323	0.003579	-0.000575	-0.003677	-0.583496	0.533203	-0.381592	0.502634	-0.210244	-0.217911	-0.809736
24099		5.427794	1.349786	7.960652	0.001910	0.000639	-0.002937	-0.582275	0.533691	-0.385254	0.502640	-0.210244	-0.217854	-0.809747
24100		5.430917	1.358367	7.983039	0.002112	0.000831	-0.002388	-0.589355	0.527588	-0.390869	0.502665	-0.210234	-0.217801	-0.809748
24101		5.442103	1.356287	8.007872	0.005244	-0.002383	-0.004178	-0.582764	0.541748	-0.391113	0.502624	-0.210211	-0.217799	-0.809780
24102		5.443269	1.385919	7.980187	0.004999	-0.004830	-0.001742	-0.589844	0.538818	-0.393066	0.502689	-0.210238	-0.217819	-0.809727
24103		5.450504	1.351827	7.956749	0.004610	-0.003430	-0.003557	-0.586914	0.533691	-0.388428	0.502698	-0.210242	-0.217825	-0.809719
24104		5.434968	1.354435	7.971025	0.007101	-0.002093	-0.002816	-0.583008	0.531494	-0.391113	0.502708	-0.210222	-0.217840	-0.809714
24105		5.435476	1.363477	7.963673	0.007747	-0.002954	-0.004750	-0.591553	0.537598	-0.381592	0.502710	-0.210191	-0.217878	-0.809711
24106		5.449848	1.366696	7.964579	0.006448	-0.005519	-0.001239	-0.586670	0.524658	-0.392822	0.502711	-0.210239	-0.217893	-0.809694
24107		5.456438	1.359559	7.982827	0.006868	-0.006448	-0.001692	-0.591309	0.539551	-0.387207	0.502688	-0.210243	-0.217931	-0.809697
24108		5.440392	1.358913	7.951171	0.005645	-0.002596	-0.002840	-0.587158	0.533447	-0.390137	0.502696	-0.210251	-0.217931	-0.809690
24109		5.442955	1.350867	7.940874	0.003995	-0.002101	-0.003892	-0.580566	0.529785	-0.393066	0.502688	-0.210243	-0.217919	-0.809700
24110		5.446479	1.353092	7.969547	0.005852	-0.001810	-0.002530	-0.585205	0.529785	-0.384521	0.502723	-0.210209	-0.217931	-0.809684
24111		5.448870	1.345278	7.959332	0.006083	-0.001148	-0.004250	-0.588623	0.531982	-0.384277	0.502701	-0.210187	-0.217929	-0.809704
24112		5.436852	1.370173	7.982447	0.006715	-0.003793	-0.005466	-0.590088	0.535645	-0.390625	0.502655	-0.210190	-0.217949	-0.809726
24113		5.447098	1.358236	7.968248	0.003569	0.001330	-0.002365	-0.589844	0.534424	-0.391846	0.502667	-0.210158	-0.217906	-0.809738
24114		5.425075	1.355078	7.977366	0.004018	0.000870	-0.005088	-0.586670	0.540283	-0.384521	0.502650	-0.210115	-0.217878	-0.809768
24115		5.452724	1.373303	7.966940	0.004387	-0.003500	-0.002074	-0.588135	0.530273	-0.390625	0.502679	-0.210151	-0.217871	-0.809742
24116		5.439217	1.366109	7.971609	0.004413	0.000066	-0.003511	-0.588379	0.531494	-0.390137	0.502665	-0.210114	-0.217847	-0.809767
24117		5.425408	1.365819	7.969823	0.002738	0.000686	-0.002532	-0.591064	0.533447	-0.395996	0.502661	-0.210087	-0.217799	-0.809790
24118		5.427400	1.350488	7.966657	0.005035	-0.000671	-0.003414	-0.590576	0.535156	-0.388916	0.502656	-0.210045	-0.217791	-0.809805
24119		5.449368	1.356401	7.957103	0.005442	-0.003384	-0.003148	-0.592529	0.526855	-0.391113	0.502642	-0.210052	-0.217794	-0.809811
24120		5.441886	1.368775	7.953932	0.003981	-0.000788	-0.002339	-0.582031	0.537354	-0.394531	0.502599	-0.210025	-0.217762	-0.809854
24121		5.425980	1.363694	7.975282	0.002721	-0.001692	-0.001574	-0.593262	0.532227	-0.392090	0.502670	-0.210019	-0.217745	-0.809816
24122		5.440044	1.366209	7.976511	0.004413	-0.003627	-0.004103	-0.592285	0.531250	-0.392090	0.502622	-0.210020	-0.217742	-0.809847
24123		5.448422	1.377253	7.958597	0.001482	0.000376	-0.002007	-0.588867	0.531982	-0.395020	0.502600	-0.210002	-0.217679	-0.809882
24124		5.428719	1.356957	7.964659	0.002108	0.000233	-0.002150	-0.593750	0.536377	-0.389648	0.502609	-0.209971	-0.217635	-0.809896
24125		5.442687	1.345650	7.979302	0.009157	-0.006490	-0.001018	-0.588867	0.531250	-0.388672	0.502602	-0.209995	-0.217686	-0.809880
24126		5.452010	1.357643	7.960576	0.006703	-0.006174	-0.004505	-0.591797	0.529053	-0.400391	0.502562	-0.210012	-0.217724	-0.809890
24127		5.438994	1.351112	7.964821	0.006501	-0.002675	-0.004463	-0.582275	0.529785	-0.385010	0.502539	-0.209956	-0.217753	-0.809911
24128		5.423388	1.360974	7.972439	0.005056	-0.001394	-0.005205	-0.594971	0.533936	-0.389893	0.502528	-0.209939	-0.217751	-0.809923
24129		5.443337	1.383832	7.965738	0.007746	-0.004148	-0.004269	-0.594482	0.536133	-0.390625	0.502474	-0.209936	-0.217778	-0.809951
24130		5.437957	1.366029	7.972883	0.003994	-0.002700	-0.003650	-0.586426	0.533203	-0.385498	0.502432	-0.209945	-0.217760	-0.809979
24131		5.438675	1.360844	7.978786	0.009811	-0.006760	-0.003189	-0.584473	0.537598	-0.390381	0.502428	-0.209966	-0.217828	-0.809958
24132		5.455863	1.354949	7.969411	0.007725	-0.007715	-0.002828	-0.585449	0.532227	-0.389893	0.502463	-0.210002	-0.217893	-0.809909
24133		5.441163	1.372016	7.969667	0.008151	-0.003764	-0.003171	-0.593018	0.530029	-0.387451	0.502480	-0.209986	-0.217936	-0.809891
24134		5.441293	1.359696	7.982712	0.004006	-0.000919	-0.004370	-0.594238	0.535645	-0.384277	0.502414	-0.209972	-0.217904	-0.809944
24135		5.435816	1.355741	7.976559	0.006480	-0.002549	-0.002433	-0.588135	0.538086	-0.386963	0.502371	-0.209989	-0.217894	-0.809969
24136		5.450182	1.365752	7.970766	0.005237	-0.004769	-0.003215	-0.592773	0.543945	-0.385742	0.502368	-0.210026	-0.217903	-0.809959
24137		5.444924	1.355030	7.971141	0.007335	-0.002033	-0.004297	-0.590332	0.534668	-0.388428	0.502346	-0.210040	-0.217906	-0.809968
24138		5.451127	1.376135	7.962821	0.004804	-0.001928	-0.001454	-0.581299	0.532227	-0.392822	0.502347	-0.210045	-0.217887	-0.809971
24139		5.426132	1.350977	7.962859	0.004003	-0.001514	-0.004130	-0.585205	0.533936	-0.386963	0.502393	-0.210014	-0.217891	-0.809950
24140		5.451694	1.371833	7.968688	0.006474	-0.003738	-0.001951	-0.588379	0.531738	-0.394043	0.502418	-0.210025	-0.217908	-0.809927
24141		5.462392	1.359805	7.954225	0.004623	-0.002846	-0.003792	-0.587891	0.532471	-0.391113	0.502414	-0.210006	-0.217915	-0.809933
24142		5.441179	1.363732	7.956120	0.004404	-0.001722	-0.002792	-0.589355	0.544189	-0.391846	0.502420	-0.209991	-0.217904	-0.809936
24143		5.433461	1.361966	7.966545	0.004603	-0.002122	-0.002003	-0.593994	0.531006	-0.390625	0.502462	-0.210007	-0.217893	-0.809909
24144		5.445418	1.381207	7.970683	0.004822	-0.003246	-0.003002	-0.598877	0.534424	-0.388428	0.502411	-0.210007	-0.217885	-0.809942
24145		5.436714	1.355060	7.955620	0.005223	-0.003453	-0.001665	-0.588623	0.534424	-0.391602	0.502342	-0.210031	-0.217866	-0.809984
24146		5.448269	1.346150	7.986980	0.003980	-0.001386	-0.002100	-0.593994	0.536621	-0.391113	0.502357	-0.210021	-0.217847	-0.809982
24147		5.441029	1.358563	7.983592	0.006894	-0.005263	-0.002161	-0.588623	0.527588	-0.393066	0.502331	-0.210043	-0.217870	-0.809986
24148		5.440840	1.356872	7.937071	0.006298	-0.004063	-0.004529	-0.588623	0.537109	-0.394531	0.502309	-0.210016	-0.217904	-0.809998
24149		5.431026	1.358143	7.963842	0.005051	-0.002590	-0.004724	-0.590576	0.533203	-0.388672	0.502314	-0.210001	-0.217916	-0.809996
24150		5.450616	1.360027	7.977476	0.007561	-0.002567	-0.005538	-0.588623	0.530518	-0.389893	0.502272	-0.209980	-0.217940	-0.810020
24151		5.443079	1.380110	7.967422	0.005887	-0.001351	-0.004800	-0.590576	0.534912	-0.388672	0.502250	-0.209947	-0.217945	-0.810041
24152		5.456691	1.375889	7.975624	0.002731	-0.000507	-0.002054	-0.585449	0.539551	-0.389893	0.502241	-0.209951	-0.217897	-0.810059
24153		5.439800	1.360655	7.958099	0.006484	-0.002551	-0.002432	-0.583496	0.531494	-0.398682	0.502288	-0.209953	-0.217911	-0.810025
24154		5.437879	1.364836	7.974121	0.006083	-0.002346	-0.003770	-0.584961	0.528564	-0.399414	0.502347	-0.209897	-0.217951	-0.809992
24155		5.440716	1.357409	7.963580	0.008602	-0.005424	-0.005408	-0.594971	0.527344	-0.391602	0.502368	-0.209844	-0.218039	-0.809970
24156		5.446956	1.365198	7.968538	0.006939	-0.001832	-0.005635	-0.584717	0.526367	-0.388672	0.502280	-0.209801	-0.218051	-0.810032
24157		5.454856	1.356089	7.970936	0.005466	-0.000422	-0.004349	-0.592529	0.529297	-0.389893	0.502275	-0.209755	-0.218050	-0.810047
24158		5.417552	1.361575	7.987767	0.006934	-0.003021	-0.005152	-0.587646	0.541504	-0.389160	0.502209	-0.209735	-0.218069	-0.810089
24159		5.457841	1.364588	7.946455	0.007763	-0.002969	-0.004747	-0.585205	0.539795	-0.386963	0.502224	-0.209739	-0.218098	-0.810070
24160		5.439845	1.383984	7.963930	0.005449	0.000898	-0.002803	-0.580078	0.533447	-0.388916	0.502272	-0.209725	-0.218074	-0.810051
24161		5.428207	1.374199	7.952457	0.002334	0.000290	-0.003633	-0.581299	0.534912	-0.387939	0.502330	-0.209706	-0.218043	-0.810028
24162		5.455395	1.364501	7.969131	0.006086	-0.002347	-0.003768	-0.584717	0.531982	-0.395020	0.502379	-0.209698	-0.218060	-0.809995
24163		5.428756	1.370195	7.958330	0.004846	-0.004571	-0.004545	-0.588867	0.531494	-0.383789	0.502397	-0.209689	-0.218091	-0.809978
24164		5.448534	1.357972	7.985389	0.005903	-0.003863	-0.005863	-0.586670	0.535645	-0.391846	0.502331	-0.209708	-0.218098	-0.810012
24165		5.443507	1.375261	7.958608	0.005056	-0.002595	-0.004721	-0.591064	0.534180	-0.395508	0.502342	-0.209699	-0.218108	-0.810005
24166		5.420323	1.388890	7.970062	0.005249	-0.004775	-0.003207	-0.587402	0.530029	-0.392334	0.502335	-0.209701	-0.218130	-0.810003
24167		5.435569	1.371118	7.990639	0.008573	-0.014333	-0.001781	-0.589600	0.524170	-0.388428	0.502326	-0.209783	-0.218242	-0.809957
24168		5.445096	1.385430	7.986648	0.010198	-0.023135	0.002654	-0.589355	0.536377	-0.381836	0.502284	-0.209960	-0.218401	-0.809894
24169		5.436987	1.384329	7.981173	0.003029	-0.029809	0.011129	-0.578613	0.528076	-0.388916	0.502324	-0.210324	-0.218492	-0.809751
24170		5.455851	1.359269	7.953495	-0.004924	-0.031326	0.014998	-0.582520	0.535889	-0.389404	0.502463	-0.210703	-0.218543	-0.809552
24171		5.483767	1.375506	7.926699	0.001774	-0.026429	0.012237	-0.586914	0.531006	-0.392334	0.502606	-0.211001	-0.218631	-0.809362
24172		5.474895	1.358572	7.935615	-0.002772	-0.019226	0.008011	-0.589111	0.535889	-0.386719	0.502664	-0.211223	-0.218639	-0.809265
24173		5.493673	1.355595	7.918965	-0.006719	-0.007737	0.006005	-0.588867	0.533936	-0.397217	0.502709	-0.211382	-0.218523	-0.809228
24174		5.484254	1.352846	7.946299	-0.009216	0.001880	0.004985	-0.593018	0.539062	-0.394043	0.502793	-0.211409	-0.218350	-0.809215
24175		5.468494	1.290672	7.954117	-0.001022	0.003318	-0.002401	-0.593262	0.536377	-0.391846	0.502805	-0.211376	-0.218255	-0.809241
24176		5.479565	1.323987	7.945184	0.006957	0.000403	-0.008643	-0.586182	0.540039	-0.394531	0.502743	-0.211309	-0.218269	-0.809294
24177		5.455108	1.345897	7.950648	0.008223	0.004275	-0.010624	-0.581543	0.540771	-0.392090	0.502763	-0.211181	-0.218298	-0.809307
24178		5.433864	1.342044	7.944116	0.008225	0.010942	-0.011255	-0.583496	0.541504	-0.389404	0.502828	-0.210990	-0.218289	-0.809319
24179		5.432726	1.330853	7.942533	0.022913	0.016490	-0.021710	-0.582275	0.532227	-0.393066	0.502823	-0.210638	-0.218411	-0.809381
24180		5.420846	1.184948	7.967535	0.027666	0.024962	-0.038456	-0.594971	0.534912	-0.392090	0.502646	-0.210094	-0.218578	-0.809587
24181		5.470555	1.249130	7.981031	0.035363	0.023469	-0.054861	-0.590332	0.535400	-0.384521	0.502240	-0.209495	-0.218851	-0.809920
24182		5.523041	1.569377	7.825100	0.022526	0.053905	-0.047209	-0.586426	0.529541	-0.389648	0.501983	-0.208721	-0.218771	-0.810301
24183		5.459023	1.455599	7.934041	-0.001425	0.099806	-0.037482	-0.584961	0.531982	-0.392578	0.501897	-0.207631	-0.218151	-0.810801
24184		5.404324	1.535442	8.040069	-0.011434	0.094898	-0.017051	-0.587891	0.524414	-0.394287	0.502009	-0.206706	-0.217414	-0.811166
24185		5.419077	1.315194	8.050475	-0.010070	0.073739	-0.019228	-0.588379	0.531982	-0.393555	0.501965	-0.205970	-0.216819	-0.811540
24186		5.386681	1.437178	8.043596	-0.009608	0.054006	-0.018249	-0.587402	0.538574	-0.390869	0.501918	-0.205454	-0.216348	-0.811826
24187		5.329937	1.384631	8.080185	-0.011425	0.038895	-0.006687	-0.590088	0.533447	-0.396484	0.501979	-0.205160	-0.215918	-0.811976
24188		5.358128	1.358728	8.058733	-0.005654	0.018430	-0.012622	-0.587646	0.530518	-0.404297	0.501899	-0.204993	-0.215697	-0.812127
24189		5.352947	1.431362	8.009303	-0.005911	0.013631	-0.009209	-0.588867	0.531982	-0.397949	0.501863	-0.204847	-0.215515	-0.812234
24190		5.345011	1.322615	8.038841	-0.002072	0.011917	-0.013863	-0.583008	0.534424	-0.394531	0.501764	-0.204713	-0.215377	-0.812366
24191		5.330607	1.434127	8.027908	-0.005427	0.016114	-0.013133	-0.594727	0.525879	-0.391846	0.501727	-0.204571	-0.215180	-0.812476
24192		5.352916	1.391243	8.029437	-0.012838	0.018270	-0.006848	-0.586182	0.530518	-0.393799	0.501581	-0.204478	-0.214848	-0.812678
24193		5.378071	1.347917	8.060476	-0.015580	0.019362	-0.005051	-0.586182	0.532471	-0.401855	0.501553	-0.204389	-0.214498	-0.812810
24194		5.371587	1.402730	8.093684	-0.018882	0.005239	-0.005193	-0.584473	0.542480	-0.394287	0.501513	-0.204434	-0.214222	-0.812896
24195		5.351069	1.345470	8.149823	-0.021009	-0.023973	0.000410	-0.591797	0.539062	-0.398926	0.501493	-0.204854	-0.214079	-0.812840
24196		5.343936	1.435026	8.154083	-0.012613	-0.095701	0.006825	-0.589355	0.537598	-0.394531	0.501307	-0.205944	-0.214455	-0.812581
24197		5.319048	1.570318	8.085469	-0.016707	-0.161189	0.029848	-0.588623	0.535400	-0.392822	0.501173	-0.207790	-0.215138	-0.812013
24198		5.616510	1.813672	7.991774	-0.040860	-0.193524	0.075553	-0.589355	0.525635	-0.389404	0.501349	-0.210226	-0.215664	-0.811137
24199		5.543325	2.158195	7.958385	-0.061880	-0.190291	0.184809	-0.582520	0.535156	-0.376709	0.502512	-0.213030	-0.215667	-0.809683
24200		6.189161	2.550926	8.121585	-0.165493	-0.277607	0.508723	-0.584961	0.540283	-0.382812	0.506485	-0.218278	-0.214291	-0.806168
24201		8.496593	3.244899	6.567349	0.868908	-0.178850	1.797161	-0.551025	0.564941	-0.394531	0.526318	-0.219306	-0.219147	-0.791751
24202		9.891964	7.499030	6.799097	0.755909	-0.005883	2.490888	-0.524902	0.593262	-0.392090	0.552880	-0.221079	-0.219698	-0.772775
24203		8.136052	8.131626	5.424208	0.876957	0.306317	1.459181	-0.499023	0.606201	-0.421387	0.570133	-0.216073	-0.221906	-0.760933
24204		6.196494	7.131325	4.969590	0.671324	-0.147662	0.686588	-0.480469	0.610107	-0.433105	0.578122	-0.214592	-0.227463	-0.753649
24205		5.359274	6.696007	6.472933	0.408944	-0.396178	-0.544760	-0.496826	0.611328	-0.438232	0.573148	-0.213797	-0.235651	-0.755156
24206		3.170599	0.298511	6.832892	0.339186	-0.610949	-1.697849	-0.522461	0.578857	-0.454834	0.556352	-0.212069	-0.247732	-0.764282
24207		4.915802	-1.245023	9.459540	0.397510	-0.472589	-1.854432	-0.549805	0.553711	-0.470703	0.538266	-0.207952	-0.259698	-0.774327
24208		4.114050	-1.992165	9.105938	0.076155	0.068087	-1.201148	-0.568115	0.528809	-0.475342	0.527054	-0.202866	-0.263055	-0.782216
24209		3.288675	-1.297789	7.953131	0.269916	0.256709	-0.715580	-0.580078	0.534912	-0.497559	0.521607	-0.196224	-0.265777	-0.786629
24210		3.224108	-0.620698	7.585543	0.447590	0.122358	-0.570977	-0.575439	0.514160	-0.514404	0.517923	-0.190070	-0.270835	-0.788846
24211		3.285298	-0.365118	7.121357	0.557962	-0.144218	-0.567870	-0.594971	0.506836	-0.534424	0.513174	-0.185955	-0.278560	-0.790239
24212		6.053717	1.420090	9.283880	-1.388176	-0.552665	0.768183	-0.589111	0.534668	-0.511475	0.516032	-0.202794	-0.266627	-0.788350
24213		9.417865	-10.877494	12.810204	-1.657216	0.242185	1.577732	-0.562988	0.573486	-0.500977	0.528488	-0.216128	-0.244708	-0.783650
24214		6.355632	-0.171242	8.101050	-0.402729	0.508757	0.222901	-0.566162	0.586670	-0.501953	0.531597	-0.214360	-0.236840	-0.784450
24215		5.247861	1.690998	8.403501	-0.139552	0.205278	-0.044614	-0.564453	0.586670	-0.502441	0.531813	-0.213042	-0.234258	-0.785437
24216		5.757588	1.302866	8.048326	0.007410	0.030236	-0.056374	-0.558838	0.586670	-0.491943	0.531774	-0.212434	-0.234305	-0.785614
24217		5.805977	2.103688	7.456912	-0.056813	0.067765	-0.003770	-0.562988	0.593018	-0.489258	0.532169	-0.212046	-0.233326	-0.785743
24218		5.970317	1.469556	7.451652	-0.042669	0.227669	-0.020645	-0.557861	0.595703	-0.504883	0.532873	-0.209952	-0.231458	-0.786380
24219		5.399719	1.384306	7.917236	0.018010	0.298522	-0.062259	-0.553711	0.586914	-0.512451	0.533582	-0.206620	-0.229836	-0.787257
24220		5.475646	1.135658	8.193938	0.043312	0.205641	-0.043758	-0.552490	0.594238	-0.516113	0.534257	-0.204089	-0.229026	-0.787695
24221		5.500993	1.471917	7.999975	0.026407	0.128545	-0.036819	-0.548096	0.585693	-0.510254	0.534743	-0.202446	-0.228546	-0.787929
24222		5.478094	1.413292	8.045813	0.014222	0.093981	-0.022250	-0.551514	0.588379	-0.516357	0.535201	-0.201278	-0.228127	-0.788039
24223		5.417613	1.411101	8.043486	0.023430	0.034499	-0.008391	-0.546875	0.585449	-0.521729	0.535646	-0.200675	-0.228160	-0.787881
24224		5.436648	1.200845	8.097636	0.025308	-0.015546	-0.006634	-0.542480	0.591553	-0.513428	0.535989	-0.200551	-0.228547	-0.787567
24225		5.495729	1.486602	7.960416	0.000100	-0.036048	0.012522	-0.553223	0.583252	-0.510742	0.536398	-0.200853	-0.228775	-0.787145
24226		5.552149	1.433155	7.894289	-0.052784	0.006038	0.040819	-0.541016	0.590332	-0.511963	0.536995	-0.201198	-0.228109	-0.786843
24227		5.539368	1.453037	7.933653	-0.134655	0.079340	0.081626	-0.544922	0.599609	-0.516357	0.538055	-0.201472	-0.226059	-0.786640
24228		5.515526	1.372271	7.913741	-0.149651	0.123844	0.086759	-0.542236	0.595703	-0.512939	0.539248	-0.201425	-0.223548	-0.786553
24229		5.416904	1.363083	7.971876	-0.126842	0.132833	0.076275	-0.539551	0.598877	-0.514160	0.540385	-0.201116	-0.221217	-0.786511
24230		5.348956	1.283130	8.083392	-0.123971	0.131325	0.080941	-0.537842	0.598389	-0.517090	0.541565	-0.200817	-0.218911	-0.786421
24231		5.391612	1.301302	8.020921	-0.095194	0.105387	0.071199	-0.537842	0.601318	-0.512939	0.542639	-0.200553	-0.217084	-0.786254
24232		5.326947	1.015704	8.109813	-0.079339	0.103095	0.060757	-0.536377	0.607422	-0.521484	0.543616	-0.200184	-0.215446	-0.786124
24233		5.309346	1.102718	8.091245	-0.052375	0.076915	0.046065	-0.530273	0.605469	-0.511719	0.544468	-0.199844	-0.214294	-0.785936
24234		5.186471	1.083497	8.086597	-0.033669	0.068410	0.035153	-0.527344	0.609375	-0.517334	0.545212	-0.199437	-0.213404	-0.785766
24235		5.308637	1.012499	8.114793	-0.010994	0.043186	0.024218	-0.530518	0.610596	-0.521240	0.545858	-0.199089	-0.212940	-0.785531
24236		5.306599	1.039935	8.069114	-0.001307	0.039918	0.008505	-0.530518	0.616455	-0.519287	0.546355	-0.198668	-0.212630	-0.785376
24237		5.215542	1.071905	8.164634	0.005169	0.026186	0.001580	-0.529541	0.610352	-0.517822	0.546760	-0.198320	-0.212493	-0.785219
24238		5.337467	1.042090	8.081654	0.003270	0.009572	0.002703	-0.520752	0.607422	-0.521240	0.547107	-0.198156	-0.212443	-0.785033
24239		5.244303	1.152798	8.141470	-0.005147	0.018833	-0.000459	-0.523193	0.609131	-0.520508	0.547458	-0.197943	-0.212262	-0.784891
24240		5.321452	1.225775	8.090517	-0.018115	0.023910	0.014866	-0.529053	0.609619	-0.522949	0.547925	-0.197814	-0.211878	-0.784701
24241		5.246865	0.907641	8.137562	-0.012361	0.034299	0.005308	-0.528320	0.616211	-0.519775	0.548318	-0.197524	-0.211497	-0.784603
24242		5.284030	1.112885	8.125790	0.007102	0.010105	-0.018221	-0.528076	0.614502	-0.524170	0.548462	-0.197276	-0.211529	-0.784555
24243		5.274554	1.180637	8.138806	-0.009699	0.036306	-0.000542	-0.521973	0.610107	-0.525391	0.548812	-0.196932	-0.211175	-0.784492
24244		5.255274	1.105919	8.155172	-0.019422	0.032108	0.010541	-0.527344	0.607422	-0.523926	0.549246	-0.196723	-0.210730	-0.784361
24245		5.134821	1.015334	8.105890	-0.016796	0.035981	0.014393	-0.529541	0.612305	-0.522949	0.549699	-0.196477	-0.210264	-0.784230
24246		5.242414	0.997164	8.158900	0.010303	0.008970	-0.007624	-0.515381	0.607910	-0.524170	0.549921	-0.196255	-0.210302	-0.784120
24247		5.313532	1.150869	8.147912	0.015955	-0.005624	-0.018799	-0.519043	0.607422	-0.508301	0.550051	-0.196097	-0.210532	-0.784007
24248		5.190001	1.056723	8.215035	0.008996	-0.009249	-0.010237	-0.519531	0.610596	-0.513916	0.550182	-0.196059	-0.210685	-0.783883
24249		5.258369	1.163763	8.116537	0.009946	-0.019011	0.000388	-0.525146	0.608887	-0.519775	0.550408	-0.196135	-0.210891	-0.783650
24250		5.231784	1.208907	8.102573	-0.008921	0.005761	0.010242	-0.519775	0.611572	-0.512695	0.550739	-0.196126	-0.210716	-0.783467
24251		5.246886	1.035762	8.143763	-0.005239	0.002135	0.006369	-0.522705	0.607910	-0.520508	0.551033	-0.196117	-0.210611	-0.783291
24252		5.199582	0.892223	8.175247	0.013992	-0.000780	-0.014582	-0.517578	0.618652	-0.521973	0.551159	-0.195949	-0.210766	-0.783202
24253		5.184071	0.708121	8.192116	0.074705	-0.072925	-0.076231	-0.523193	0.609863	-0.521973	0.550676	-0.195897	-0.212172	-0.783175
24254		5.215045	1.240231	8.117979	0.118180	-0.129506	-0.105225	-0.529297	0.598145	-0.517578	0.549835	-0.196028	-0.214455	-0.783111
24255		5.293812	1.663316	8.090596	0.073591	-0.100124	-0.045814	-0.528809	0.606445	-0.518066	0.549507	-0.196345	-0.215944	-0.782853
24256		5.213236	1.221212	8.103417	0.040383	-0.088183	0.004588	-0.529053	0.604248	-0.517822	0.549642	-0.196903	-0.216908	-0.782352
24257		5.057279	0.572446	8.245626	0.100626	-0.177476	-0.013452	-0.532471	0.598145	-0.516602	0.549501	-0.197870	-0.219118	-0.781590
24258		5.326996	1.295360	8.247335	0.130272	-0.274536	-0.032175	-0.538330	0.600830	-0.514893	0.548966	-0.199531	-0.222324	-0.780638
24259		5.553618	1.972247	8.068772	0.028828	-0.264904	0.084780	-0.539551	0.607910	-0.519775	0.549335	-0.202116	-0.224180	-0.779181
24260		5.604794	2.110726	8.203003	-0.012251	-0.313126	0.214240	-0.539795	0.606445	-0.507568	0.550743	-0.205803	-0.225645	-0.776796
24261		5.812564	2.137849	8.143855	-0.006988	-0.493573	0.432827	-0.537598	0.614746	-0.498535	0.553724	-0.211819	-0.227827	-0.772410
24262		6.050861	1.588450	7.809790	0.347478	-0.615274	0.947715	-0.536865	0.623047	-0.505859	0.562185	-0.217991	-0.232882	-0.763016
24263		7.062153	2.062707	6.944817	0.836048	-0.708761	1.537913	-0.516602	0.625977	-0.510498	0.577113	-0.223251	-0.241559	-0.747495
24264		7.298976	1.471222	6.483502	1.223368	-0.529993	1.882707	-0.495850	0.631104	-0.519531	0.596481	-0.224927	-0.251443	-0.728282
24265		8.515350	2.469134	7.033111	1.212954	-0.175825	1.778417	-0.466553	0.639648	-0.535889	0.615493	-0.222958	-0.258687	-0.710309
24266		9.853887	6.973355	4.632780	0.400004	0.134482	0.255335	-0.465332	0.650879	-0.547363	0.619491	-0.219474	-0.260480	-0.707257
24267		4.799094	4.705180	5.933292	0.057908	0.494321	-1.730897	-0.475830	0.621338	-0.566406	0.606018	-0.208926	-0.261857	-0.721473
24268		3.151744	2.498259	6.579516	0.137106	0.253441	-2.677426	-0.508301	0.571289	-0.574463	0.583014	-0.196652	-0.268045	-0.741333
24269		2.760577	1.287644	5.455091	0.022631	-0.113170	-2.772306	-0.548340	0.534912	-0.572754	0.556963	-0.188050	-0.275758	-0.760518
24270		5.489697	3.973133	6.480522	-1.052169	-0.454075	-1.158279	-0.574219	0.542480	-0.569092	0.542113	-0.195576	-0.271609	-0.770774
24271		6.585045	-19.098356	15.919768	-2.060404	0.314767	1.334773	-0.552002	0.591064	-0.545410	0.551119	-0.210844	-0.246287	-0.768866
24272		5.824837	4.379863	7.559915	-0.098860	0.809220	0.326828	-0.540771	0.601807	-0.566895	0.556754	-0.204678	-0.238880	-0.768810
24273		5.352825	-1.174032	9.210122	-0.090587	0.342240	-0.136262	-0.530762	0.596680	-0.574707	0.556536	-0.201543	-0.235974	-0.770691
24274		5.506203	1.889344	8.342397	0.055370	-0.070177	-0.125409	-0.540039	0.600586	-0.570801	0.555589	-0.201389	-0.237311	-0.771003
24275		5.787789	2.550449	7.740224	-0.052638	-0.107234	0.071169	-0.539795	0.597656	-0.552979	0.556129	-0.202931	-0.237364	-0.770193
24276		5.826819	1.380456	7.667679	-0.032011	-0.050148	0.074563	-0.538086	0.601807	-0.562500	0.556877	-0.203803	-0.237200	-0.769473
24277		5.714416	0.784834	7.790052	-0.016214	0.013875	0.023596	-0.532227	0.601562	-0.561279	0.557391	-0.203790	-0.236880	-0.769203
24278		5.638180	0.917246	7.814914	0.016881	0.039713	-0.057714	-0.541260	0.595703	-0.569824	0.557292	-0.203056	-0.236906	-0.769460
24279		5.625901	1.160908	7.787679	0.047443	0.059820	-0.110876	-0.529541	0.595947	-0.567383	0.556802	-0.201762	-0.237216	-0.770060
24280		5.614927	1.787772	7.760647	0.058928	0.098926	-0.102144	-0.540771	0.594971	-0.561523	0.556565	-0.200030	-0.237347	-0.770643
24281		5.554964	1.628815	7.858110	0.051196	0.127824	-0.076059	-0.543213	0.593994	-0.562012	0.556594	-0.198165	-0.237123	-0.771172
24282		5.472554	1.281771	8.087453	0.066069	0.081375	-0.072748	-0.541748	0.595459	-0.573486	0.556537	-0.196658	-0.237352	-0.771528
24283		5.460913	1.335016	8.078605	0.072578	0.008501	-0.065581	-0.541504	0.592529	-0.572510	0.556373	-0.195822	-0.238138	-0.771617
24284		5.483077	1.681496	7.938985	0.035366	-0.011030	-0.031760	-0.531006	0.593018	-0.569092	0.556379	-0.195535	-0.238616	-0.771538
24285		5.486568	1.650256	7.865002	0.008544	0.002645	0.003022	-0.533203	0.588379	-0.571289	0.556715	-0.195400	-0.238659	-0.771317
24286		5.516713	1.244039	7.934737	0.016756	0.001807	-0.003608	-0.530029	0.588623	-0.573730	0.556993	-0.195199	-0.238802	-0.771123
24287		5.505485	1.387434	7.910645	0.026713	-0.020425	-0.014820	-0.540039	0.589844	-0.576904	0.557131	-0.195107	-0.239225	-0.770915
24288		5.511868	1.481471	7.903811	0.033869	-0.029713	-0.020192	-0.544434	0.588379	-0.574463	0.557188	-0.195043	-0.239789	-0.770714
24289		5.546336	1.499868	7.871427	0.022122	-0.019061	-0.010338	-0.542480	0.588135	-0.565430	0.557325	-0.194994	-0.240137	-0.770520
24290		5.542580	1.479890	7.863213	-0.003848	0.006490	0.001961	-0.539795	0.587891	-0.570312	0.557578	-0.194921	-0.240024	-0.770390
24291		5.522458	1.514634	7.883289	-0.011254	0.014607	0.002991	-0.540039	0.589111	-0.567871	0.557861	-0.194821	-0.239783	-0.770286
24292		5.545412	1.528679	7.891141	-0.023762	0.020947	0.010763	-0.542236	0.590576	-0.566406	0.558199	-0.194773	-0.239357	-0.770185
24293		5.560126	1.396558	7.915765	-0.025854	0.029650	0.010456	-0.541260	0.588135	-0.577393	0.558544	-0.194658	-0.238848	-0.770122
24294		5.528918	1.539099	7.882763	-0.032585	0.030553	0.013032	-0.533936	0.592041	-0.579102	0.558916	-0.194585	-0.238265	-0.770051
24295		5.524279	1.461721	7.884243	-0.045368	0.072361	0.024357	-0.537109	0.590820	-0.579346	0.559511	-0.194226	-0.237246	-0.770025
24296		5.537831	1.380260	7.917485	-0.054281	0.099687	0.025253	-0.537598	0.595947	-0.578369	0.560156	-0.193674	-0.235942	-0.770095
24297		5.523354	1.221426	7.956968	-0.017301	0.111278	0.000812	-0.536621	0.592041	-0.564453	0.560682	-0.192683	-0.234970	-0.770259
24298		5.383319	1.355515	7.965932	0.002359	0.100965	-0.019512	-0.538330	0.596924	-0.576416	0.560992	-0.191604	-0.234298	-0.770507
24299		5.364527	1.511969	8.034412	0.010496	0.060294	-0.015702	-0.538818	0.584717	-0.575195	0.561253	-0.190866	-0.233983	-0.770595
24300		5.423938	1.490991	7.986622	0.000033	0.050838	0.000335	-0.536133	0.592041	-0.584229	0.561595	-0.190346	-0.233590	-0.770594
24301		5.400251	1.338411	8.003580	-0.018441	0.056487	0.013815	-0.527588	0.587646	-0.573486	0.562064	-0.189934	-0.232953	-0.770546
24302		5.024110	1.413646	8.090295	0.008133	0.005091	0.013410	-0.526855	0.596191	-0.575928	0.562433	-0.189831	-0.232932	-0.770309
24303		5.018917	1.308155	8.147872	0.103081	-0.102914	-0.003063	-0.532471	0.593750	-0.579102	0.562565	-0.190048	-0.234626	-0.769645
24304		5.232935	1.475662	8.188717	0.188669	-0.245872	-0.017193	-0.530518	0.594971	-0.583496	0.562331	-0.190997	-0.238177	-0.768489
24305		5.429245	1.600859	8.223381	0.191375	-0.387062	0.015633	-0.537109	0.585205	-0.582275	0.562010	-0.193366	-0.242669	-0.766724
24306		5.461875	1.470106	8.450525	0.204316	-0.653150	0.079707	-0.544678	0.581543	-0.565186	0.561486	-0.198380	-0.248987	-0.763796
24307		4.767853	1.196114	9.194509	0.296870	-1.073241	0.256931	-0.559082	0.579834	-0.559326	0.561474	-0.207282	-0.258658	-0.758207
24308		5.672462	2.113734	8.944925	0.250191	-1.983105	0.366033	-0.578369	0.577637	-0.538574	0.559191	-0.225391	-0.273881	-0.749329
24309		5.444725	1.442859	8.730831	0.131849	-2.493266	0.423946	-0.612305	0.583252	-0.487793	0.554914	-0.249107	-0.291181	-0.738397
24310		6.971608	1.738927	8.487077	0.001273	-2.796535	0.482635	-0.631592	0.582031	-0.453613	0.548992	-0.276468	-0.308857	-0.725797
24311		8.874417	2.177837	8.428033	-0.050605	-2.680620	0.481371	-0.657227	0.585449	-0.411865	0.542684	-0.302778	-0.324915	-0.712916
24312		9.243654	2.629388	7.292655	-0.129786	-2.288087	0.513111	-0.665283	0.583496	-0.373779	0.537396	-0.325950	-0.337164	-0.700915
24313		8.627896	2.611902	6.562389	-0.132429	-2.067809	0.628368	-0.675781	0.595215	-0.340820	0.533610	-0.347428	-0.347184	-0.688489
24314		9.240260	2.041449	5.208647	0.032782	-1.856717	0.751750	-0.678223	0.604492	-0.316895	0.532159	-0.366280	-0.356457	-0.674970
24315		9.101851	0.909340	3.249352	0.530554	-1.498528	0.757400	-0.672607	0.598145	-0.296631	0.534344	-0.378609	-0.367340	-0.660449
24316		12.117426	2.700225	3.994288	0.828046	-0.838108	0.545196	-0.670654	0.595703	-0.299805	0.538860	-0.382470	-0.377053	-0.648982
24317		10.762156	2.261573	4.956820	0.288952	0.523585	0.292744	-0.657471	0.591797	-0.319580	0.545080	-0.377663	-0.374370	-0.648155
24318		9.357714	0.406283	3.383990	0.397470	0.994930	0.372146	-0.644043	0.582275	-0.347412	0.554587	-0.368616	-0.368932	-0.648417
24319		8.877908	0.955533	2.092688	0.572567	1.079518	0.251861	-0.627441	0.576416	-0.383301	0.564193	-0.357034	-0.364802	-0.648947
24320		8.604200	1.207790	1.620158	0.230727	0.780762	0.160422	-0.616943	0.571045	-0.404053	0.570071	-0.349807	-0.360356	-0.650229
24321		8.537898	1.141555	2.794426	0.008640	0.518722	0.043644	-0.613037	0.564209	-0.413574	0.572808	-0.345741	-0.356463	-0.652141
24322		8.402253	-0.778605	4.274019	0.146155	0.430198	-0.030285	-0.601807	0.557129	-0.430908	0.575122	-0.341070	-0.354635	-0.653559
24323		9.050395	-1.331614	5.231819	0.557293	0.608811	-0.012349	-0.601562	0.548096	-0.446289	0.580088	-0.332041	-0.354782	-0.653740
24324		10.658324	-0.334263	6.431390	0.305186	1.116144	0.262214	-0.573730	0.547363	-0.469238	0.588408	-0.321860	-0.347991	-0.655046
24325		9.350210	0.287514	6.142802	-0.179561	1.812210	0.364168	-0.541748	0.544189	-0.492188	0.598416	-0.309868	-0.331570	-0.660259
24326		6.083792	0.833807	4.865259	-0.350570	1.734402	0.277622	-0.517334	0.550293	-0.521240	0.606413	-0.299277	-0.314482	-0.666182
24327		6.155339	0.767630	5.728206	-0.120346	1.272681	-0.037148	-0.498291	0.554688	-0.530762	0.610605	-0.289434	-0.303867	-0.671606
24328		7.819183	1.389894	7.276254	0.061583	1.428752	-0.498931	-0.488037	0.541016	-0.556396	0.611983	-0.275049	-0.295165	-0.680222
24329		7.212713	1.133251	7.102769	-0.116079	1.722205	-0.669975	-0.474121	0.526123	-0.590576	0.612104	-0.258774	-0.283164	-0.691508
24330		6.898631	-0.050842	7.308707	0.114348	2.116094	-0.830717	-0.442871	0.503418	-0.607422	0.612563	-0.236589	-0.270471	-0.704015
24331		2.636324	-1.023604	5.226483	0.819304	2.077245	-1.044114	-0.430908	0.489990	-0.646240	0.612560	-0.208420	-0.264671	-0.715039
24332		4.460275	1.034454	6.285931	0.617069	1.530862	-0.865851	-0.413574	0.469482	-0.673584	0.611357	-0.187115	-0.260580	-0.723415
24333		4.339461	0.253575	5.987413	0.058421	1.481498	-0.725277	-0.395996	0.450928	-0.691162	0.609662	-0.170892	-0.251359	-0.732070
24334		5.266615	0.374082	6.434071	0.113013	1.185037	-0.717628	-0.375488	0.440186	-0.699463	0.607000	-0.156928	-0.244789	-0.739597
24335		4.238136	1.064521	7.012509	0.035582	1.347509	-0.615686	-0.355957	0.428223	-0.718506	0.605431	-0.142312	-0.235992	-0.746665
24336		3.021916	1.604252	6.582861	-0.122535	0.891971	-0.299891	-0.342773	0.428711	-0.728760	0.605038	-0.134042	-0.228547	-0.750819
24337		5.328915	2.769103	8.147087	-0.180000	0.764754	-0.281221	-0.333496	0.435791	-0.726562	0.604283	-0.127435	-0.221464	-0.754690
24338		3.806790	2.274713	7.310677	-0.072738	0.673444	-0.418880	-0.320557	0.424805	-0.739258	0.602086	-0.120485	-0.216281	-0.759078
24339		3.785814	1.719467	7.617510	0.127407	0.339926	-0.430671	-0.318604	0.421631	-0.739746	0.599132	-0.115153	-0.215509	-0.762454
24340		3.863707	1.104773	8.422618	0.212678	0.206105	-0.352063	-0.323486	0.420654	-0.742432	0.596665	-0.110664	-0.216431	-0.764789
24341		4.086056	0.795344	8.830003	0.277677	0.184688	-0.116826	-0.313721	0.402100	-0.752197	0.596463	-0.106529	-0.217801	-0.765145
24342		4.000008	0.949774	9.344567	0.402243	0.237452	0.149621	-0.312012	0.398682	-0.765137	0.599101	-0.101683	-0.219608	-0.763224
24343		4.027637	1.612340	9.610560	0.275381	0.414750	0.404702	-0.288574	0.392822	-0.765625	0.604468	-0.096792	-0.218539	-0.759928
24344		3.177511	1.975185	8.564951	0.146362	0.374815	0.458268	-0.282227	0.393555	-0.765869	0.610040	-0.093394	-0.216466	-0.756486
24345		3.574552	2.370659	8.383317	0.034218	0.224014	0.188474	-0.282959	0.403076	-0.767578	0.612499	-0.091544	-0.214789	-0.755203
24346		3.382087	1.653284	7.993788	0.096203	0.082700	0.001036	-0.276611	0.396484	-0.770508	0.612874	-0.090049	-0.214991	-0.755020
24347		3.973251	1.704603	8.654361	0.044552	0.015017	-0.013902	-0.277832	0.399170	-0.768066	0.612868	-0.089548	-0.215240	-0.755014
24348		3.939715	1.128055	8.404492	-0.059449	0.127386	0.125467	-0.278320	0.403076	-0.773682	0.614361	-0.089158	-0.213491	-0.754343
24349		3.716365	0.950281	7.702345	0.023743	0.160086	0.303940	-0.269775	0.406494	-0.772461	0.617709	-0.088297	-0.212072	-0.752107
24350		3.370492	1.433421	7.637418	0.149355	0.179526	0.309991	-0.263428	0.404053	-0.773438	0.621292	-0.086298	-0.211674	-0.749495
24351		3.469838	2.121159	8.628744	0.025296	0.140953	0.236708	-0.251709	0.417969	-0.778809	0.623941	-0.085429	-0.210487	-0.747726
24352		3.033558	2.322294	8.383843	-0.075501	0.193067	0.153064	-0.257324	0.405029	-0.777344	0.625831	-0.084637	-0.208038	-0.746922
24353		3.008695	1.807665	7.822127	0.083405	0.134469	0.027592	-0.249268	0.409912	-0.777588	0.626559	-0.082821	-0.207662	-0.746620
24354		3.276870	0.810885	7.992726	-0.030265	0.084300	-0.100959	-0.253662	0.406982	-0.780762	0.625837	-0.082030	-0.206750	-0.747565
24355		3.280318	0.264873	8.056505	-0.155006	0.026642	-0.070632	-0.252197	0.422607	-0.774658	0.625118	-0.082832	-0.205091	-0.748534
24356		3.294810	0.989699	8.331887	-0.261088	0.020684	-0.098858	-0.252197	0.424316	-0.768311	0.624006	-0.084446	-0.202511	-0.749983
24357		3.261432	1.257518	8.377662	-0.320060	0.027100	-0.208100	-0.250732	0.438721	-0.763428	0.621811	-0.086183	-0.199440	-0.752427
24358		4.146725	1.221464	8.675068	-0.346689	-0.004081	-0.242362	-0.262207	0.439209	-0.756836	0.619172	-0.088332	-0.196391	-0.755152
24359		3.888235	1.217071	8.381687	-0.314772	-0.004737	-0.134257	-0.263184	0.449707	-0.755859	0.617573	-0.090505	-0.193525	-0.756941
24360		3.377347	1.847344	8.508841	-0.258602	-0.002113	-0.098636	-0.261963	0.454590	-0.750977	0.616373	-0.092305	-0.191127	-0.758311
24361		2.938975	1.468799	8.977787	-0.273144	0.023031	-0.164193	-0.268066	0.468262	-0.749023	0.614585	-0.093820	-0.188471	-0.760238
24362		4.066579	1.914675	9.445882	-0.274787	0.037378	-0.118804	-0.270020	0.473145	-0.744873	0.613250	-0.095317	-0.185631	-0.761827
24363		4.062866	2.940093	8.657291	-0.174516	0.192678	-0.082484	-0.269531	0.476074	-0.743652	0.612733	-0.094649	-0.182511	-0.763079
24364		2.313079	2.095514	7.972411	-0.111376	0.109213	-0.221042	-0.276123	0.478271	-0.737549	0.610772	-0.093976	-0.180796	-0.765140
24365		3.769595	0.909987	10.508232	0.102644	0.091803	-0.304301	-0.272217	0.481201	-0.733643	0.608216	-0.091645	-0.181355	-0.767323
24366		5.925992	2.074798	10.877707	0.111065	0.360906	0.182856	-0.277344	0.482422	-0.739014	0.610939	-0.087772	-0.179386	-0.766074
24367		5.360812	3.659688	8.889390	0.062112	0.406084	0.605266	-0.257812	0.489258	-0.745117	0.617723	-0.084783	-0.176133	-0.761714
24368		3.470734	3.382881	8.352852	0.198586	0.222183	0.395190	-0.254639	0.490723	-0.753174	0.622210	-0.082025	-0.175816	-0.758430
24369		2.007825	1.626674	9.253122	0.483154	0.164148	0.068720	-0.246582	0.491211	-0.755859	0.623743	-0.076881	-0.178978	-0.756968
24370		3.853273	1.674127	10.278990	0.382425	0.233219	-0.179122	-0.244873	0.486572	-0.762695	0.622962	-0.071311	-0.180877	-0.757705
24371		4.806493	1.462465	8.830325	-0.045422	0.189763	-0.054567	-0.243164	0.485352	-0.763428	0.622868	-0.069764	-0.178948	-0.758384
24372		4.198698	2.122996	7.862929	-0.041596	0.054911	0.150308	-0.253906	0.496582	-0.760986	0.624417	-0.069926	-0.177927	-0.757334
24373		2.767748	2.460054	8.190813	0.216153	-0.030746	0.207508	-0.243164	0.485352	-0.763428	0.626539	-0.069015	-0.179967	-0.755181
24374		2.900361	2.820797	10.151768	0.327547	0.157507	0.116372	-0.239014	0.493164	-0.773926	0.628308	-0.065246	-0.181659	-0.753639
24375		2.706892	3.143658	8.953795	0.172930	0.277077	0.021295	-0.233643	0.487061	-0.768066	0.629313	-0.061348	-0.181029	-0.753279
24376		2.991867	3.314112	7.475536	0.173957	0.117021	-0.168802	-0.237793	0.488281	-0.777100	0.628158	-0.058516	-0.181812	-0.754280
24377		2.591339	1.630077	7.740153	0.451068	-0.103940	-0.351697	-0.251953	0.475830	-0.785889	0.624959	-0.055173	-0.187072	-0.755901
24378		3.142417	1.200380	10.123420	0.538327	-0.044966	-0.335274	-0.256592	0.471680	-0.793945	0.622078	-0.050627	-0.192674	-0.757187
24379		3.434835	1.074955	9.633990	0.205526	0.370543	-0.061495	-0.252930	0.472412	-0.792480	0.622550	-0.045393	-0.191712	-0.757375
24380		2.767014	1.567288	7.447301	0.099739	0.286800	0.151624	-0.244629	0.468506	-0.803467	0.624765	-0.042286	-0.190273	-0.756093
24381		0.049389	1.679292	10.026023	0.217010	0.081123	-0.048316	-0.251465	0.470947	-0.797119	0.624655	-0.039731	-0.191652	-0.755975
24382		-2.328872	2.619154	10.934666	0.246353	0.226655	-0.006344	-0.244629	0.469238	-0.805176	0.625291	-0.035670	-0.192143	-0.755526
24383		2.350411	2.649865	9.237327	0.259561	-0.481126	0.247591	-0.257568	0.473877	-0.805908	0.626601	-0.038792	-0.198162	-0.752727
24384		6.781061	3.249889	12.120706	0.227642	-0.587224	0.161597	-0.272461	0.460205	-0.815674	0.626784	-0.042947	-0.204740	-0.750585
24385		5.425416	3.841951	10.667401	0.104043	-0.305676	0.163957	-0.272705	0.459717	-0.815674	0.627621	-0.045435	-0.207946	-0.748856
24386		4.669335	3.633509	9.265391	0.014722	-0.177396	-0.004799	-0.282471	0.468506	-0.806641	0.627156	-0.046986	-0.209407	-0.748743
24387		4.291770	2.644118	9.369873	-0.058721	0.046475	-0.087431	-0.269775	0.466553	-0.813477	0.626460	-0.046801	-0.208476	-0.749597
24388		3.623139	2.661556	9.184518	-0.064807	0.105501	-0.105613	-0.273682	0.460693	-0.817383	0.625743	-0.046063	-0.207037	-0.750640
24389		2.669076	1.421899	8.780713	-0.008355	0.133471	-0.106319	-0.272461	0.467529	-0.817871	0.625122	-0.044621	-0.205909	-0.751554
24390		2.365469	1.248700	8.487618	0.193633	0.069456	-0.063362	-0.282715	0.457031	-0.815430	0.624848	-0.042311	-0.207152	-0.751574
24391		2.314409	2.612700	8.233244	0.249189	0.044206	-0.024956	-0.274902	0.453125	-0.814941	0.624893	-0.039904	-0.209090	-0.751131
24392		2.454699	3.501435	8.244064	0.165850	-0.099174	-0.044471	-0.276855	0.455811	-0.816406	0.624333	-0.039443	-0.211374	-0.750982
24393		3.092393	2.939148	8.693893	0.042895	-0.112988	-0.026256	-0.281738	0.446045	-0.817139	0.623843	-0.040117	-0.212601	-0.751007
24394		3.004246	2.577112	8.963227	-0.015734	-0.159919	0.044950	-0.285400	0.457275	-0.816650	0.623866	-0.041878	-0.213608	-0.750606
24395		3.406731	2.957068	9.053918	-0.063828	-0.198978	0.067756	-0.295654	0.449463	-0.812500	0.623969	-0.044441	-0.214454	-0.750132
24396		3.734683	2.966882	9.069890	-0.100638	-0.142374	0.038398	-0.294434	0.459717	-0.808105	0.623924	-0.046682	-0.214529	-0.750011
24397		3.585749	2.546354	8.979964	-0.127401	-0.112678	0.035452	-0.291748	0.458984	-0.812500	0.623914	-0.048845	-0.214124	-0.749998
24398		3.563370	2.092921	9.062910	-0.095494	-0.065156	0.047940	-0.285156	0.467529	-0.803955	0.624165	-0.050346	-0.213638	-0.749828
24399		3.218954	2.332242	8.787911	-0.033016	-0.064205	0.048732	-0.289551	0.460205	-0.808838	0.624464	-0.051355	-0.213730	-0.749484
24400		2.752104	2.800686	8.376391	0.049579	-0.206137	-0.084569	-0.291992	0.458984	-0.803467	0.623186	-0.052691	-0.215788	-0.749866
24401		3.506615	1.801080	9.150665	0.122843	-0.231130	-0.130180	-0.303955	0.452637	-0.806641	0.621454	-0.053567	-0.218754	-0.750381
24402		3.533743	2.561488	8.922177	0.203650	-0.262439	-0.099246	-0.310059	0.448242	-0.806641	0.619971	-0.054194	-0.222697	-0.750403
24403		4.893149	2.860849	9.490797	0.152795	-0.070266	-0.068932	-0.313965	0.456055	-0.803467	0.619266	-0.053495	-0.224651	-0.750453
24404		4.086031	3.155895	9.210438	0.100656	0.064540	-0.061606	-0.320312	0.445312	-0.802002	0.618972	-0.051957	-0.225068	-0.750679
24405		4.137297	2.913668	9.352398	0.083511	0.117526	-0.124812	-0.320068	0.446533	-0.813965	0.618221	-0.049877	-0.224955	-0.751472
24406		4.161967	3.269155	9.309362	0.084036	0.159734	-0.161092	-0.318848	0.437744	-0.809082	0.617245	-0.047294	-0.224542	-0.752564
24407		4.019087	3.691502	9.204382	-0.001227	0.134547	-0.226416	-0.305176	0.433105	-0.816406	0.615527	-0.045423	-0.223560	-0.754376
24408		4.010162	3.675485	9.352298	-0.121580	0.124098	-0.241820	-0.305420	0.434814	-0.808105	0.613560	-0.044532	-0.221530	-0.756628
24409		4.209159	3.024629	8.684817	-0.173459	0.076459	-0.096533	-0.305420	0.430908	-0.805176	0.612800	-0.044891	-0.219293	-0.757873
24410		2.818706	4.770779	10.100848	0.014785	-0.135307	0.244328	-0.300293	0.434814	-0.806396	0.614790	-0.046749	-0.220270	-0.755863
24411		3.034323	3.477375	10.610710	-0.215016	-0.112863	0.215025	-0.294678	0.438965	-0.802002	0.616420	-0.050078	-0.218917	-0.754715
24412		2.729569	3.846373	10.526836	-0.154882	-0.036856	0.248355	-0.292725	0.444336	-0.794922	0.618598	-0.052315	-0.217520	-0.753183
24413		2.429146	3.569043	10.806240	-0.117509	-0.110848	-0.092634	-0.288818	0.445312	-0.793457	0.617382	-0.054031	-0.217267	-0.754132
24414		2.552576	2.916475	10.934263	-0.073143	-0.078826	-0.218946	-0.285889	0.426270	-0.801514	0.615085	-0.054757	-0.217265	-0.755955
24415		2.901066	2.444377	10.626412	-0.049747	-0.027446	-0.205415	-0.280273	0.422607	-0.795898	0.613066	-0.054853	-0.217078	-0.757640
24416		2.956324	2.477561	10.349077	-0.108623	-0.005637	-0.185844	-0.275635	0.421387	-0.798096	0.611244	-0.055246	-0.216147	-0.759348
24417		2.645550	2.293837	10.020244	-0.155829	0.002418	-0.265376	-0.276123	0.406982	-0.791260	0.608648	-0.055706	-0.214758	-0.761790
24418		2.607152	2.221454	9.924169	-0.142416	-0.009191	-0.300235	-0.273926	0.406982	-0.784180	0.605687	-0.056081	-0.213603	-0.764442
24419		2.905557	2.309464	9.527889	-0.177561	0.011201	-0.322733	-0.271973	0.399170	-0.784424	0.602528	-0.056465	-0.211967	-0.767360
24420		2.768506	2.438894	8.622923	-0.243783	0.018844	-0.366773	-0.280273	0.394287	-0.788818	0.598904	-0.057156	-0.209662	-0.770772
24421		2.593921	2.566037	8.343767	-0.255514	-0.056813	-0.467388	-0.276855	0.385010	-0.777832	0.594081	-0.058397	-0.207874	-0.774885
24422		2.689026	1.972931	8.357989	-0.247490	-0.049131	-0.507445	-0.280029	0.379883	-0.786133	0.588866	-0.059398	-0.206125	-0.779244
24423		3.007501	1.230195	8.415947	-0.116846	0.043816	-0.417795	-0.272461	0.375977	-0.779541	0.584838	-0.058760	-0.204889	-0.782644
24424		3.010703	0.785951	8.390078	-0.099857	0.135140	-0.251498	-0.275635	0.372803	-0.781006	0.582670	-0.057530	-0.203024	-0.784836
24425		3.067744	0.953787	8.079139	-0.112184	0.227455	-0.061165	-0.269775	0.360840	-0.776855	0.582587	-0.055967	-0.200225	-0.785729
24426		2.827761	1.667189	7.747646	-0.155360	0.197562	-0.033749	-0.269531	0.366699	-0.781494	0.582662	-0.055082	-0.197197	-0.786501
24427		2.904942	2.264510	7.573809	-0.269501	0.094538	-0.197047	-0.277100	0.365234	-0.778076	0.580791	-0.055637	-0.193907	-0.788661
24428		3.088627	2.286862	7.359377	-0.319000	0.053578	-0.308556	-0.265625	0.366943	-0.774414	0.577673	-0.056685	-0.190500	-0.791701
24429		2.904644	2.331930	7.281188	-0.282433	0.011978	-0.295290	-0.264648	0.373047	-0.768799	0.574597	-0.057910	-0.187741	-0.794505
24430		3.067272	2.214290	7.643308	-0.196673	0.054582	-0.265926	-0.263916	0.366943	-0.777344	0.571963	-0.058164	-0.185504	-0.796908
24431		3.266966	1.600698	7.563914	-0.102165	0.101527	-0.202072	-0.267822	0.367676	-0.765137	0.570136	-0.057422	-0.183825	-0.798659
24432		3.661088	1.425057	7.577400	-0.071722	0.121236	-0.059702	-0.265381	0.363770	-0.768066	0.569795	-0.056595	-0.182207	-0.799332
24433		3.620968	1.744319	7.475314	-0.077716	0.147604	0.088988	-0.253418	0.362793	-0.779785	0.570994	-0.055886	-0.180236	-0.798973
24434		3.433957	2.269236	7.404337	-0.081208	0.114960	0.133021	-0.249023	0.362793	-0.767822	0.572555	-0.055629	-0.178434	-0.798278
24435		3.334380	2.562202	7.566228	-0.016022	0.040629	0.065591	-0.245850	0.378662	-0.771484	0.573322	-0.055496	-0.177863	-0.797864
24436		3.636165	2.533600	8.170923	-0.039275	-0.002269	-0.023567	-0.253418	0.374512	-0.765137	0.573090	-0.055761	-0.177431	-0.798109
24437		3.760981	2.194279	8.489074	0.006361	0.008641	0.041144	-0.250732	0.374512	-0.764404	0.573560	-0.055734	-0.177334	-0.797794
24438		3.688508	2.165077	8.757663	0.086475	0.072905	0.177670	-0.253174	0.369385	-0.775391	0.575590	-0.054794	-0.177480	-0.796363
24439		3.644404	2.226755	8.484662	0.155238	0.112929	0.293353	-0.245361	0.368652	-0.769531	0.578901	-0.053219	-0.177943	-0.793963
24440		3.361868	2.189968	8.354029	0.141133	0.078201	0.307966	-0.235352	0.375244	-0.768311	0.582260	-0.052122	-0.178507	-0.791449
24441		3.204276	2.129790	8.637431	0.087533	-0.009271	0.258808	-0.233398	0.364746	-0.778076	0.584895	-0.052171	-0.179206	-0.789342
24442		3.016317	2.095172	9.250342	0.083013	-0.008546	0.273927	-0.235352	0.366699	-0.784424	0.587671	-0.052280	-0.179845	-0.787124
24443		2.684059	2.314743	9.101839	0.124959	0.033275	0.299633	-0.227295	0.371094	-0.785889	0.590813	-0.051726	-0.180570	-0.784639
24444		2.858401	2.651672	8.814545	0.130017	-0.007002	0.250098	-0.227539	0.361816	-0.777344	0.593373	-0.051417	-0.181671	-0.782471
24445		2.983529	2.968338	8.747183	0.039741	-0.111271	0.108812	-0.234619	0.366455	-0.777832	0.594251	-0.052475	-0.182752	-0.781482
24446		2.820339	2.773785	8.850653	-0.005643	-0.183306	-0.038673	-0.231934	0.367432	-0.777588	0.593491	-0.054237	-0.184022	-0.781641
24447		2.702537	2.287142	8.992711	0.001773	-0.200217	-0.107042	-0.244385	0.366943	-0.779053	0.592026	-0.055951	-0.185536	-0.782273
24448		2.995340	1.992550	9.065300	0.032236	-0.159224	-0.055931	-0.249512	0.371582	-0.780518	0.591172	-0.057157	-0.187007	-0.782481
24449		2.825773	1.985953	9.130919	0.034021	-0.135193	0.000872	-0.254639	0.379639	-0.775879	0.590930	-0.058247	-0.188276	-0.782280
24450		2.789377	2.136793	9.139868	0.009112	-0.090127	0.012496	-0.252197	0.376465	-0.772705	0.590887	-0.059107	-0.188960	-0.782082
24451		2.779692	2.172971	8.933548	0.031238	-0.080580	0.018800	-0.252441	0.366943	-0.768066	0.590944	-0.059726	-0.189783	-0.781793
24452		2.779292	2.254180	8.954668	0.011820	-0.090985	0.016645	-0.252686	0.372559	-0.768311	0.590940	-0.060583	-0.190495	-0.781557
24453		2.688268	2.302628	9.026056	0.024101	-0.074724	0.017421	-0.253662	0.368164	-0.772461	0.590990	-0.061193	-0.191205	-0.781298
24454		2.977640	2.088321	9.069409	0.074613	-0.026276	0.049992	-0.253906	0.372070	-0.778320	0.591511	-0.061034	-0.192025	-0.780715
24455		3.082726	2.258463	8.750270	0.092452	0.053365	0.126300	-0.249268	0.370361	-0.774902	0.592980	-0.060148	-0.192372	-0.779583
24456		2.920883	2.472678	8.463698	0.092007	0.029098	0.100753	-0.257080	0.367920	-0.769531	0.594139	-0.059441	-0.192912	-0.778621
24457		2.780066	2.640207	8.132327	0.034829	-0.039614	-0.006115	-0.250732	0.375000	-0.776123	0.594049	-0.059569	-0.193485	-0.778538
24458		2.770040	2.768709	7.872641	-0.011502	-0.107867	-0.122795	-0.252686	0.368408	-0.770996	0.592622	-0.060422	-0.194201	-0.779381
24459		2.686744	2.202210	7.876073	0.004819	-0.162314	-0.236234	-0.260254	0.369873	-0.774414	0.589965	-0.061409	-0.195565	-0.780976
24460		2.844094	1.301965	8.401302	0.018240	-0.161086	-0.235549	-0.263916	0.372314	-0.777588	0.587321	-0.062285	-0.197048	-0.782526
24461		3.198404	1.246895	8.732694	0.011051	-0.071534	-0.079424	-0.267334	0.368408	-0.781006	0.586415	-0.062723	-0.197678	-0.783011
24462		3.324984	2.105784	8.607252	-0.018461	-0.023217	0.041393	-0.267090	0.370361	-0.773926	0.586787	-0.063203	-0.197570	-0.782721
24463		2.857012	2.207406	8.110942	0.047799	-0.045494	-0.025240	-0.272705	0.373779	-0.776611	0.586504	-0.063251	-0.198326	-0.782738
24464		2.730662	1.454949	8.113620	0.023774	-0.118478	-0.191441	-0.269775	0.367676	-0.778809	0.584393	-0.063776	-0.199513	-0.783972
24465		2.893754	0.832117	8.763289	-0.047527	-0.135372	-0.246042	-0.274902	0.374023	-0.781250	0.581641	-0.064851	-0.200165	-0.785762
24466		3.764355	1.242675	9.179447	-0.131520	-0.049542	-0.122171	-0.285400	0.384033	-0.781006	0.580247	-0.066005	-0.199264	-0.786925
24467		3.533683	2.012325	8.178282	-0.131933	0.039283	0.056315	-0.282471	0.387939	-0.777344	0.580827	-0.066732	-0.197566	-0.786864
24468		2.529219	1.882484	7.590985	-0.063624	-0.059739	-0.026445	-0.286377	0.392578	-0.770752	0.580405	-0.067734	-0.197327	-0.787149
24469		3.094365	1.574694	9.369786	-0.074383	-0.105360	-0.147736	-0.288086	0.398438	-0.765381	0.578666	-0.068963	-0.197416	-0.788300
24470		3.898261	1.345765	9.952267	-0.007392	0.058464	0.094460	-0.285156	0.399170	-0.771484	0.579772	-0.068691	-0.196768	-0.787673
24471		4.341256	2.012931	8.986835	0.115427	0.239294	0.425673	-0.279053	0.397705	-0.771729	0.584677	-0.066562	-0.195730	-0.784482
24472		3.944671	2.626061	8.129611	0.161169	0.195975	0.577835	-0.265625	0.406982	-0.774902	0.590978	-0.064894	-0.195322	-0.779989
24473		3.329244	3.250244	8.425824	0.163724	0.081676	0.490604	-0.270752	0.403320	-0.770264	0.596121	-0.064105	-0.195845	-0.775999
24474		2.511009	2.952483	8.630451	0.187086	0.000850	0.284892	-0.265869	0.412354	-0.783203	0.599072	-0.063420	-0.197358	-0.773395
24475		2.783571	2.002155	8.922997	0.129305	-0.053277	0.026214	-0.268066	0.422852	-0.773438	0.599335	-0.063052	-0.198919	-0.772821
24476		3.614792	1.279661	8.708640	0.018612	-0.114669	-0.076352	-0.283691	0.414551	-0.769531	0.598366	-0.063849	-0.199951	-0.773241
24477		4.714125	1.498949	9.322106	0.000075	-0.160549	0.004225	-0.283691	0.416504	-0.773438	0.598044	-0.065432	-0.201082	-0.773064
24478		4.270999	2.330930	9.164800	-0.035044	-0.140047	0.157731	-0.285400	0.429688	-0.769775	0.599226	-0.067465	-0.201594	-0.771839
24479		3.194802	3.210695	8.985457	-0.027969	-0.121714	0.137995	-0.289795	0.428711	-0.770508	0.600268	-0.069219	-0.202054	-0.770754
24480		3.087369	3.065194	9.410086	-0.024743	-0.127043	-0.015789	-0.288574	0.443848	-0.772705	0.599814	-0.070611	-0.202717	-0.770806
24481		3.376972	2.602176	9.586317	0.029875	-0.053375	0.024086	-0.299072	0.441895	-0.770264	0.599978	-0.070983	-0.203319	-0.770486
24482		3.223260	3.077717	8.856059	0.108009	-0.006835	0.135853	-0.297607	0.448975	-0.760254	0.601404	-0.070605	-0.204224	-0.769169
24483		2.855253	3.054572	8.923336	0.159895	-0.081434	0.023073	-0.304443	0.444336	-0.764893	0.601598	-0.070265	-0.206289	-0.768497
24484		3.083053	2.374077	10.111261	0.043079	-0.103320	-0.100177	-0.312988	0.456055	-0.772217	0.600445	-0.070694	-0.207502	-0.769032
24485		3.067231	2.676294	10.029537	0.097087	0.030919	0.080092	-0.309326	0.439941	-0.768555	0.601419	-0.069894	-0.208066	-0.768192
24486		2.722112	3.315082	9.398031	0.153401	0.094085	0.065856	-0.303955	0.443604	-0.765869	0.602466	-0.068026	-0.208706	-0.767365
24487		2.655730	3.027654	9.602527	0.188070	0.121262	-0.064773	-0.309326	0.446289	-0.776123	0.602355	-0.065294	-0.209584	-0.767450
24488		2.917916	2.669970	9.823166	0.200197	0.150159	-0.104962	-0.301514	0.441406	-0.774902	0.601936	-0.062086	-0.210390	-0.767824
24489		3.112648	2.512291	9.345553	0.190747	0.226273	-0.032597	-0.300781	0.440186	-0.788574	0.602397	-0.058407	-0.210472	-0.767729
24490		2.962787	1.841292	8.680289	0.143286	0.268381	-0.068345	-0.299561	0.443359	-0.790771	0.602582	-0.054587	-0.209804	-0.768048
24491		3.316755	1.968137	8.547102	0.156550	0.260336	-0.061688	-0.299561	0.431885	-0.798584	0.602808	-0.050760	-0.209316	-0.768266
24492		3.131322	2.456852	7.956750	0.181708	0.163699	-0.015183	-0.290039	0.435791	-0.798584	0.603238	-0.047794	-0.209765	-0.767996
24493		3.248092	2.527828	8.302998	0.123921	0.086283	-0.148552	-0.302734	0.430664	-0.797852	0.602145	-0.045657	-0.210322	-0.768831
24494		3.450843	2.220377	8.832746	0.074818	0.056622	-0.141836	-0.299805	0.429688	-0.805664	0.601008	-0.044192	-0.210626	-0.769723
24495		3.713295	2.698777	9.031921	-0.012150	0.117390	0.079702	-0.298584	0.437012	-0.807373	0.602112	-0.043379	-0.209513	-0.769210
24496		3.006282	3.120210	8.352432	0.051173	0.104235	0.103953	-0.298340	0.432373	-0.808594	0.603448	-0.042280	-0.209096	-0.768337
24497		0.691759	3.825117	9.570956	0.073485	-0.099885	-0.112688	-0.309814	0.436279	-0.808350	0.602179	-0.042406	-0.210546	-0.768930
24498		2.571884	3.100499	9.318025	0.060411	-0.197250	-0.181324	-0.298828	0.433594	-0.812988	0.599979	-0.043383	-0.212636	-0.770019
24499		4.482165	2.057684	10.028973	-0.037500	-0.191608	-0.046908	-0.315186	0.429199	-0.813965	0.599029	-0.045396	-0.213666	-0.770357
24500		3.837994	1.947703	10.074888	0.076841	-0.135418	0.045869	-0.312256	0.428955	-0.808350	0.599186	-0.046260	-0.215322	-0.769722
24501		4.386637	2.812795	9.585407	0.124769	-0.092336	0.097725	-0.320801	0.426025	-0.809570	0.599983	-0.046492	-0.217086	-0.768592
24502		3.904565	2.930232	9.143599	0.124383	-0.020735	0.037067	-0.315674	0.426758	-0.811768	0.600389	-0.045875	-0.218344	-0.767955
24503		3.553407	2.904271	8.832626	0.140053	0.042940	-0.041190	-0.317627	0.426270	-0.812988	0.600227	-0.044315	-0.219320	-0.767895
24504		3.166600	2.659942	8.792453	0.143952	0.058870	-0.038547	-0.314697	0.422363	-0.815674	0.600133	-0.042581	-0.220212	-0.767811
24505		2.702976	2.952193	8.357811	0.166287	0.050863	-0.069717	-0.318359	0.420410	-0.821045	0.599728	-0.040670	-0.221393	-0.767892
24506		2.531066	2.871491	8.225791	0.158480	-0.005619	-0.099026	-0.318604	0.411621	-0.823486	0.598877	-0.039277	-0.222937	-0.768181
24507		2.479047	2.463104	8.438779	0.145784	-0.081922	-0.014028	-0.326904	0.409424	-0.821045	0.598621	-0.038949	-0.224888	-0.767829
24508		3.479774	3.315796	8.860514	0.139528	-0.158606	0.031819	-0.324951	0.404053	-0.816406	0.598582	-0.039532	-0.227327	-0.767111
