// Start Time: Unknown
// Update Rate: 40.0Hz
// Filter Profile: human (46.1)
// Firmware Version: 4.3.4
PacketCounter	SampleTimeFine	Acc_X	Acc_Y	Acc_Z	Gyr_X	Gyr_Y	Gyr_Z	Mag_X	Mag_Y	Mag_Z	Quat_q0	Quat_q1	Quat_q2	Quat_q3
23593		9.552570	-0.365736	0.795833	0.001394	0.004709	0.002141	-0.625977	0.516357	0.212891	0.382815	-0.591354	-0.329923	-0.628414
23594		9.552673	-0.379137	0.793234	0.004514	0.005781	-0.000413	-0.630127	0.516113	0.219482	0.382869	-0.591285	-0.329934	-0.628440
23595		9.564759	-0.353045	0.828663	0.005881	0.004190	0.001977	-0.630127	0.511963	0.217285	0.382938	-0.591236	-0.329946	-0.628438
23596		9.557659	-0.370694	0.814360	0.005221	0.000337	0.001518	-0.630127	0.516113	0.217285	0.382990	-0.591214	-0.329974	-0.628412
23597		9.551847	-0.340088	0.806704	0.002863	-0.000517	0.001868	-0.627930	0.514160	0.217285	0.383025	-0.591210	-0.329984	-0.628389
23598		9.571841	-0.378394	0.764581	0.001037	0.003556	0.004186	-0.629883	0.510010	0.215332	0.383080	-0.591191	-0.329945	-0.628394
23599		9.556729	-0.403855	0.776115	0.004717	0.005176	0.001118	-0.623535	0.511963	0.217285	0.383143	-0.591133	-0.329951	-0.628407
23600		9.555480	-0.380921	0.821423	0.004260	0.004460	0.000789	-0.630127	0.514160	0.217285	0.383200	-0.591086	-0.329956	-0.628414
23601		9.550453	-0.403030	0.799327	0.005224	0.004074	0.000117	-0.630127	0.516113	0.217285	0.383260	-0.591033	-0.329972	-0.628419
23602		9.544799	-0.385058	0.788846	0.005506	0.004483	-0.001750	-0.625732	0.514160	0.210693	0.383313	-0.590970	-0.329998	-0.628431
23603		9.558063	-0.381645	0.779946	0.003424	0.003769	-0.000048	-0.627930	0.514160	0.217285	0.383363	-0.590932	-0.329998	-0.628437
23604		9.584140	-0.391597	0.793835	0.007182	0.006130	-0.003294	-0.621826	0.518311	0.219482	0.383423	-0.590850	-0.330040	-0.628455
23605		9.554127	-0.397171	0.791483	0.005002	0.005852	-0.003968	-0.621582	0.514160	0.217285	0.383463	-0.590785	-0.330068	-0.628477
23606		9.559185	-0.387225	0.812243	0.007285	0.005961	-0.004137	-0.628174	0.520508	0.214844	0.383520	-0.590709	-0.330113	-0.628491
23607		9.543718	-0.384328	0.831244	0.003912	0.000375	-0.005419	-0.623779	0.514160	0.212891	0.383528	-0.590687	-0.330162	-0.628481
23608		9.515953	-0.394205	0.819191	0.005739	-0.000231	-0.005918	-0.630127	0.514160	0.219482	0.383543	-0.590648	-0.330232	-0.628472
23609		9.546239	-0.356256	0.794307	-0.001487	-0.000538	-0.005918	-0.621582	0.514160	0.217285	0.383498	-0.590655	-0.330244	-0.628486
23610		9.612898	-0.382829	0.769634	-0.002607	0.001833	-0.003073	-0.630127	0.516113	0.215088	0.383477	-0.590660	-0.330217	-0.628509
23611		9.566385	-0.391769	0.752636	0.004218	0.003342	-0.006135	-0.625732	0.510010	0.215332	0.383491	-0.590607	-0.330262	-0.628526
23612		9.533815	-0.408506	0.790679	0.006833	0.005511	-0.007685	-0.625732	0.511963	0.217285	0.383504	-0.590525	-0.330339	-0.628555
23613		9.536822	-0.392955	0.819190	0.005210	0.002045	-0.007470	-0.625977	0.518311	0.208252	0.383497	-0.590491	-0.330410	-0.628554
23614		9.565400	-0.376017	0.795770	0.003059	0.004591	-0.010214	-0.627930	0.511963	0.212891	0.383509	-0.590411	-0.330456	-0.628597
23615		9.557046	-0.382830	0.754044	0.002171	0.005718	-0.009722	-0.623779	0.514160	0.223877	0.383487	-0.590334	-0.330503	-0.628658
23616		9.565611	-0.384767	0.794447	0.001330	0.004761	-0.007340	-0.625732	0.507812	0.217529	0.383448	-0.590339	-0.330523	-0.628667
23617		9.547995	-0.376401	0.822197	0.001207	0.006102	-0.009050	-0.627930	0.514160	0.219482	0.383393	-0.590289	-0.330565	-0.628725
23618		9.553618	-0.348725	0.809871	0.000854	0.001483	-0.008819	-0.627930	0.514160	0.215088	0.383336	-0.590292	-0.330607	-0.628735
23619		9.563742	-0.387132	0.801780	0.000013	0.004261	-0.007841	-0.627930	0.511963	0.210693	0.383308	-0.590255	-0.330626	-0.628776
23620		9.556514	-0.389514	0.791704	-0.000166	0.003686	-0.006818	-0.632080	0.511963	0.212891	0.383296	-0.590199	-0.330647	-0.628826
23621		9.532211	-0.368803	0.775536	0.002779	0.004179	-0.008344	-0.625732	0.514160	0.215088	0.383279	-0.590126	-0.330703	-0.628875
23622		9.559471	-0.371963	0.821119	0.003186	0.003244	-0.008500	-0.625977	0.516357	0.219482	0.383271	-0.590091	-0.330752	-0.628887
23623		9.547170	-0.383097	0.791759	-0.000952	0.004643	-0.007170	-0.627930	0.511963	0.217285	0.383239	-0.590102	-0.330739	-0.628904
23624		9.548463	-0.346283	0.796294	-0.000317	0.005932	-0.007863	-0.630127	0.511963	0.217285	0.383191	-0.590070	-0.330749	-0.628957
23625		9.533221	-0.356080	0.811804	0.000876	0.004039	-0.007667	-0.625732	0.510010	0.215332	0.383139	-0.590043	-0.330783	-0.628997
23626		9.603470	-0.394454	0.807729	-0.001832	0.002298	-0.008493	-0.625732	0.510010	0.215332	0.383063	-0.590028	-0.330809	-0.629043
23627		9.552511	-0.379824	0.810891	-0.000866	0.001912	-0.009163	-0.628174	0.516357	0.217285	0.382990	-0.590012	-0.330847	-0.629083
23628		9.529309	-0.368615	0.754180	-0.005100	0.003739	-0.010209	-0.625977	0.516357	0.217285	0.382913	-0.590024	-0.330824	-0.629130
23629		9.541085	-0.369722	0.817856	0.001292	0.003364	-0.011039	-0.630127	0.514160	0.219482	0.382883	-0.590016	-0.330855	-0.629140
23630		9.559517	-0.355190	0.827990	-0.005175	0.002994	-0.010029	-0.627686	0.507812	0.215332	0.382763	-0.590046	-0.330846	-0.629189
23631		9.575542	-0.337901	0.778000	-0.002135	0.003059	-0.009179	-0.630127	0.516113	0.217285	0.382666	-0.590013	-0.330882	-0.629261
23632		9.580146	-0.358613	0.758385	0.000422	0.003318	-0.007993	-0.627930	0.510010	0.215332	0.382642	-0.590006	-0.330893	-0.629275
23633		9.560939	-0.372065	0.786405	0.004654	0.005223	-0.008349	-0.630127	0.514160	0.212891	0.382625	-0.589937	-0.330960	-0.629316
23634		9.543767	-0.346997	0.781671	0.004729	0.005963	-0.008527	-0.630127	0.516113	0.217285	0.382667	-0.589838	-0.331016	-0.629353
23635		9.558406	-0.349693	0.801428	0.004909	0.006534	-0.009549	-0.630127	0.514160	0.215088	0.382676	-0.589789	-0.331059	-0.629371
23636		9.564081	-0.379976	0.742916	0.002035	0.010506	-0.009607	-0.629883	0.507812	0.219727	0.382684	-0.589692	-0.331075	-0.629449
23637		9.556824	-0.336662	0.778484	0.007049	0.015182	-0.011010	-0.632324	0.514160	0.212891	0.382622	-0.589574	-0.331138	-0.629564
23638		9.550447	-0.333144	0.802931	0.004030	0.013942	-0.009309	-0.632080	0.509766	0.217529	0.382675	-0.589414	-0.331162	-0.629669
23639		9.578926	-0.359162	0.806826	0.006542	0.012550	-0.008606	-0.627930	0.510010	0.215332	0.382646	-0.589306	-0.331217	-0.629759
23640		9.563879	-0.337300	0.863517	0.002026	0.010239	-0.006388	-0.629883	0.509766	0.217529	0.382639	-0.589245	-0.331215	-0.629820
23641		9.553944	-0.323757	0.798777	-0.000665	0.011054	-0.006068	-0.629883	0.510010	0.215332	0.382578	-0.589211	-0.331186	-0.629905
23642		9.565076	-0.357673	0.824498	-0.000920	0.009741	-0.004867	-0.632324	0.514160	0.215088	0.382550	-0.589166	-0.331157	-0.629980
23643		9.563306	-0.335378	0.802351	-0.006601	0.008410	-0.003514	-0.627930	0.511963	0.215088	0.382522	-0.589163	-0.331064	-0.630048
23644		9.550111	-0.350966	0.810705	-0.000875	0.011389	-0.004380	-0.629883	0.509766	0.219727	0.382540	-0.589124	-0.331002	-0.630106
23645		9.545576	-0.340559	0.829518	0.000550	0.007996	-0.003316	-0.625732	0.510010	0.215332	0.382464	-0.589162	-0.330963	-0.630137
23646		9.564799	-0.367421	0.829316	-0.001249	0.007686	-0.003487	-0.629883	0.507812	0.219727	0.382458	-0.589171	-0.330906	-0.630162
23647		9.534156	-0.346827	0.834528	0.001778	0.005198	-0.003782	-0.627930	0.510010	0.213135	0.382350	-0.589218	-0.330903	-0.630185
23648		9.632739	-0.357642	0.811169	-0.001595	0.006799	-0.004660	-0.627930	0.510010	0.217529	0.382354	-0.589183	-0.330873	-0.630232
23649		9.548944	-0.363117	0.851932	0.002125	0.006084	-0.002608	-0.625732	0.510010	0.213135	0.382331	-0.589217	-0.330839	-0.630232
23650		9.549788	-0.359094	0.816919	-0.000611	0.005248	-0.002776	-0.627930	0.514160	0.215088	0.382366	-0.589213	-0.330796	-0.630236
23651		9.556882	-0.353841	0.828975	0.005954	0.002897	-0.005764	-0.632080	0.509766	0.217529	0.382423	-0.589219	-0.330810	-0.630189
23652		9.563030	-0.351844	0.877385	-0.000504	0.005078	-0.003619	-0.629883	0.510010	0.215332	0.382339	-0.589242	-0.330791	-0.630228
23653		9.569813	-0.335533	0.824822	-0.000909	0.002288	-0.002062	-0.627686	0.505615	0.213135	0.382307	-0.589274	-0.330764	-0.630232
23654		9.569241	-0.353575	0.789583	0.005651	0.002240	-0.000683	-0.630127	0.514160	0.215088	0.382329	-0.589239	-0.330813	-0.630226
23655		9.576317	-0.349051	0.801496	0.005875	0.004459	-0.001218	-0.627930	0.511963	0.217285	0.382417	-0.589238	-0.330794	-0.630183
23656		9.544549	-0.364036	0.802943	0.004454	0.004126	-0.000881	-0.632080	0.509766	0.215332	0.382441	-0.589296	-0.330756	-0.630135
23657		9.541912	-0.345476	0.816181	0.004817	0.005266	-0.002923	-0.623535	0.511963	0.215088	0.382435	-0.589259	-0.330784	-0.630158
23658		9.557763	-0.359584	0.795655	0.005647	0.005960	-0.002083	-0.623779	0.514160	0.215088	0.382528	-0.589287	-0.330740	-0.630098
23659		9.561359	-0.341956	0.788236	0.004711	0.005435	-0.002080	-0.630127	0.514160	0.210693	0.382635	-0.589333	-0.330677	-0.630023
23660		9.550951	-0.344102	0.823238	0.003923	0.006388	-0.002434	-0.629883	0.510010	0.208740	0.382771	-0.589248	-0.330671	-0.630024
23661		9.572083	-0.362722	0.818220	0.003667	0.005079	-0.001234	-0.629883	0.509766	0.219727	0.382886	-0.589131	-0.330702	-0.630047
23662		9.537384	-0.346373	0.835541	0.006285	0.003524	-0.001371	-0.630127	0.511963	0.210693	0.382817	-0.589212	-0.330703	-0.630012
23663		9.548885	-0.351560	0.830638	0.001692	0.000479	0.001016	-0.625732	0.511963	0.217285	0.382906	-0.589193	-0.330699	-0.629978
23664		9.571436	-0.380675	0.784473	0.002959	0.003052	-0.000365	-0.625732	0.511963	0.215088	0.382915	-0.589294	-0.330642	-0.629909
23665		9.559805	-0.375176	0.791065	0.004572	0.006511	-0.000573	-0.623535	0.510010	0.215332	0.382986	-0.589318	-0.330595	-0.629867
23666		9.564596	-0.365877	0.811922	0.002019	0.006246	-0.001765	-0.625977	0.518311	0.217041	0.383009	-0.589366	-0.330539	-0.629838
23667		9.560397	-0.369203	0.826375	0.002136	0.008633	-0.001459	-0.627930	0.514160	0.210693	0.383109	-0.589442	-0.330414	-0.629772
23668		9.567713	-0.377947	0.835685	0.003375	0.008395	-0.000773	-0.627930	0.516357	0.212891	0.383260	-0.589369	-0.330372	-0.629770
23669		9.557530	-0.350517	0.841974	0.002280	0.003835	-0.001562	-0.623779	0.514160	0.217285	0.383366	-0.589384	-0.330323	-0.629717
23670		9.582120	-0.382162	0.856387	0.001236	0.003480	-0.000717	-0.625732	0.514160	0.217285	0.383392	-0.589509	-0.330235	-0.629630
23671		9.584941	-0.370073	0.816329	0.001268	0.002571	-0.001381	-0.630127	0.516113	0.212891	0.383396	-0.589620	-0.330170	-0.629559
23672		9.549815	-0.372402	0.797219	-0.005656	0.001481	-0.000726	-0.630127	0.511963	0.212891	0.383416	-0.589671	-0.330081	-0.629546
23673		9.555882	-0.371310	0.844909	0.002465	0.000686	-0.001180	-0.627930	0.510010	0.210938	0.383436	-0.589667	-0.330098	-0.629527
23674		9.542877	-0.387357	0.850852	-0.002897	-0.001151	-0.002367	-0.627930	0.514160	0.215088	0.383420	-0.589675	-0.330100	-0.629529
23675		9.550329	-0.352769	0.832751	0.001519	-0.002395	-0.002327	-0.625732	0.514160	0.215088	0.383421	-0.589757	-0.330094	-0.629454
23676		9.575353	-0.354256	0.816885	0.001067	-0.003112	-0.002657	-0.632324	0.514160	0.217285	0.383428	-0.589860	-0.330079	-0.629361
23677		9.578374	-0.384790	0.800711	0.008970	0.000151	-0.002829	-0.625732	0.511963	0.215088	0.383431	-0.589881	-0.330145	-0.629306
23678		9.555289	-0.373296	0.811760	0.004176	0.001417	-0.003379	-0.627930	0.516357	0.212891	0.383445	-0.589918	-0.330157	-0.629256
23679		9.536621	-0.371371	0.806598	0.003281	0.002540	-0.002891	-0.630127	0.511963	0.215088	0.383535	-0.589916	-0.330140	-0.629211
23680		9.517961	-0.369497	0.801302	0.005825	0.000248	-0.002846	-0.625732	0.510010	0.217529	0.383531	-0.589922	-0.330194	-0.629180
23681		9.582913	-0.359210	0.825026	0.003650	-0.000040	-0.003530	-0.623779	0.518311	0.212646	0.383471	-0.590004	-0.330218	-0.629128
23682		9.585897	-0.389713	0.809485	0.000998	0.002422	-0.002733	-0.630127	0.511963	0.219482	0.383597	-0.590048	-0.330148	-0.629046
23683		9.598132	-0.420782	0.797793	-0.002035	0.008623	-0.003849	-0.627930	0.511963	0.210693	0.383498	-0.590088	-0.330096	-0.629096
23684		9.540889	-0.376825	0.794167	-0.002972	0.008098	-0.003847	-0.625732	0.511963	0.215088	0.383534	-0.590013	-0.330054	-0.629167
23685		9.546326	-0.318688	0.822357	-0.002110	0.007883	-0.003670	-0.627930	0.511963	0.212891	0.383524	-0.590025	-0.329991	-0.629194
23686		9.561943	-0.362592	0.830972	-0.002743	0.006597	-0.002979	-0.623779	0.518311	0.214844	0.383529	-0.590001	-0.329944	-0.629238
23687		9.576381	-0.398716	0.811412	-0.002885	0.007676	-0.001473	-0.625732	0.511963	0.215088	0.383623	-0.590063	-0.329805	-0.629196
23688		9.549346	-0.361448	0.807813	0.004968	0.006735	-0.003274	-0.623535	0.511963	0.217285	0.383662	-0.590050	-0.329803	-0.629186
23689		9.550794	-0.382018	0.833758	0.007446	0.006262	-0.001900	-0.623779	0.516357	0.212891	0.383708	-0.590085	-0.329793	-0.629130
23690		9.558181	-0.390055	0.842561	0.009677	0.005889	-0.005093	-0.623535	0.510010	0.215332	0.383856	-0.590045	-0.329812	-0.629067
23691		9.546814	-0.353874	0.820743	0.002201	0.006807	-0.002785	-0.627930	0.511963	0.208496	0.383858	-0.590061	-0.329786	-0.629065
23692		9.588895	-0.378082	0.813298	0.003884	0.004731	-0.002914	-0.630127	0.516113	0.219482	0.383956	-0.589953	-0.329819	-0.629088
23693		9.578822	-0.393181	0.844109	0.006201	0.003939	-0.003734	-0.632080	0.511963	0.210693	0.383940	-0.590010	-0.329825	-0.629042
23694		9.560136	-0.391233	0.839241	-0.000724	0.002847	-0.003087	-0.625732	0.511963	0.219482	0.383934	-0.589947	-0.329844	-0.629095
23695		9.551896	-0.386460	0.800584	0.004848	0.001788	-0.004726	-0.623535	0.511963	0.212891	0.383869	-0.590039	-0.329859	-0.629040
23696		9.557139	-0.389517	0.816601	-0.000021	0.002313	-0.005103	-0.627930	0.511963	0.215088	0.383875	-0.590061	-0.329850	-0.629021
23697		9.537682	-0.360843	0.819014	-0.001551	0.002152	-0.003928	-0.623535	0.510010	0.217529	0.383820	-0.590099	-0.329834	-0.629027
23698		9.561160	-0.352057	0.844395	0.000098	0.000985	-0.003394	-0.623779	0.514160	0.215088	0.383747	-0.590200	-0.329813	-0.628988
23699		9.587440	-0.424948	0.778550	0.002758	0.001082	-0.003039	-0.627930	0.514160	0.217285	0.383780	-0.590261	-0.329795	-0.628919
23700		9.541504	-0.384208	0.836109	0.006195	0.001382	-0.004880	-0.630127	0.514160	0.215088	0.383770	-0.590300	-0.329830	-0.628871
23701		9.535877	-0.365373	0.824781	-0.000472	0.001594	-0.005434	-0.625732	0.514160	0.215088	0.383724	-0.590317	-0.329835	-0.628880
23702		9.588114	-0.373014	0.786596	0.000390	0.001380	-0.005256	-0.629883	0.505615	0.215332	0.383713	-0.590362	-0.329824	-0.628850
23703		9.575926	-0.414830	0.785790	-0.005639	0.005432	-0.005353	-0.625732	0.511963	0.215088	0.383553	-0.590347	-0.329825	-0.628962
23704		9.558621	-0.390713	0.781092	-0.000398	0.008600	-0.005868	-0.625732	0.514160	0.219482	0.383542	-0.590328	-0.329791	-0.629004
23705		9.534941	-0.365304	0.797665	-0.001527	0.008662	-0.007397	-0.630127	0.514160	0.212891	0.383471	-0.590382	-0.329725	-0.629031
23706		9.556473	-0.364119	0.828890	0.001881	0.006160	-0.007170	-0.627930	0.514160	0.212891	0.383487	-0.590313	-0.329746	-0.629076
23707		9.575434	-0.376970	0.832696	-0.003578	0.009600	-0.005227	-0.625732	0.511963	0.217285	0.383503	-0.590267	-0.329682	-0.629142
23708		9.550289	-0.362408	0.785653	-0.000359	0.010242	-0.005381	-0.627930	0.516357	0.215088	0.383473	-0.590272	-0.329626	-0.629185
23709		9.553095	-0.360580	0.811789	0.004135	0.009742	-0.005511	-0.630371	0.520508	0.214844	0.383537	-0.590228	-0.329599	-0.629201
23710		9.548148	-0.379504	0.859046	0.006122	0.006910	-0.004950	-0.625732	0.510010	0.217529	0.383635	-0.590198	-0.329582	-0.629179
23711		9.584207	-0.372442	0.844082	0.004105	0.006940	-0.003444	-0.634521	0.516113	0.215088	0.383616	-0.590212	-0.329578	-0.629179
23712		9.547247	-0.382945	0.830485	0.002088	0.006970	-0.001939	-0.623779	0.516357	0.217285	0.383636	-0.590175	-0.329555	-0.629214
23713		9.541268	-0.332992	0.859914	0.000400	0.006487	-0.002959	-0.627930	0.516357	0.215088	0.383666	-0.590245	-0.329468	-0.629175
23714		9.551823	-0.372695	0.852567	-0.001694	0.003225	-0.002423	-0.627930	0.516357	0.215088	0.383674	-0.590296	-0.329404	-0.629157
23715		9.606366	-0.385536	0.806873	0.003993	0.004554	-0.003749	-0.627930	0.514160	0.215088	0.383718	-0.590302	-0.329389	-0.629132
23716		9.558520	-0.385412	0.830126	-0.003681	0.006054	-0.002985	-0.623779	0.514160	0.210693	0.383698	-0.590327	-0.329318	-0.629158
23717		9.520704	-0.369406	0.823899	-0.000461	0.006698	-0.003137	-0.625732	0.510010	0.210938	0.383775	-0.590300	-0.329262	-0.629165
23718		9.530778	-0.345472	0.895671	-0.002555	0.003436	-0.002602	-0.628174	0.516357	0.219482	0.383777	-0.590286	-0.329240	-0.629189
23719		9.547805	-0.386203	0.866837	0.004000	0.000847	-0.002345	-0.629883	0.507812	0.217529	0.383766	-0.590379	-0.329226	-0.629116
23720		9.592659	-0.385565	0.821413	-0.002887	0.001396	-0.001225	-0.623779	0.514160	0.215088	0.383653	-0.590436	-0.329218	-0.629135
23721		9.573367	-0.389356	0.784188	0.002800	0.002726	-0.002549	-0.623779	0.514160	0.215088	0.383694	-0.590478	-0.329193	-0.629084
23722		9.555336	-0.382315	0.811123	0.006506	0.003178	-0.003032	-0.630127	0.511963	0.217285	0.383759	-0.590496	-0.329199	-0.629024
23723		9.551640	-0.398267	0.820821	0.007662	0.003359	-0.004714	-0.627930	0.514160	0.217285	0.383743	-0.590481	-0.329264	-0.629014
23724		9.569133	-0.389726	0.799890	0.012298	0.008041	-0.006599	-0.630127	0.516113	0.215088	0.383796	-0.590421	-0.329332	-0.629003
23725		9.556973	-0.369443	0.811032	0.009528	0.008111	-0.006115	-0.623779	0.516357	0.217285	0.383860	-0.590345	-0.329376	-0.629012
23726		9.575963	-0.382113	0.814922	0.004511	0.007153	-0.006144	-0.625977	0.516357	0.219482	0.383889	-0.590368	-0.329349	-0.628987
23727		9.554028	-0.348248	0.826680	0.007171	0.007252	-0.005784	-0.627930	0.514160	0.217285	0.383908	-0.590391	-0.329345	-0.628955
23728		9.555918	-0.381551	0.848951	0.000511	0.006307	-0.003801	-0.629883	0.510010	0.215332	0.383885	-0.590415	-0.329310	-0.628965
23729		9.572923	-0.360362	0.831879	-0.000351	0.006519	-0.003981	-0.627930	0.514160	0.215088	0.383837	-0.590389	-0.329312	-0.629018
23730		9.563503	-0.359121	0.830534	-0.002370	0.006551	-0.002478	-0.627930	0.511963	0.208496	0.383828	-0.590405	-0.329246	-0.629043
23731		9.549969	-0.361581	0.841650	0.002272	0.004972	-0.004104	-0.629883	0.509766	0.217529	0.383887	-0.590318	-0.329269	-0.629076
23732		9.555072	-0.365126	0.858343	0.002727	0.004540	-0.001221	-0.629883	0.510010	0.215332	0.383849	-0.590332	-0.329276	-0.629083
23733		9.585258	-0.371013	0.859574	0.002543	0.001421	-0.001348	-0.625732	0.511963	0.215088	0.383822	-0.590346	-0.329301	-0.629073
23734		9.573863	-0.415969	0.790351	-0.001466	0.004280	-0.000411	-0.625732	0.514160	0.210693	0.383820	-0.590388	-0.329243	-0.629065
23735		9.535572	-0.387155	0.787640	0.002087	0.006961	-0.001937	-0.625732	0.514160	0.206299	0.383906	-0.590342	-0.329210	-0.629073
23736		9.552344	-0.377106	0.835334	0.007549	0.007228	-0.005268	-0.623535	0.510010	0.215332	0.384054	-0.590204	-0.329259	-0.629087
23737		9.603435	-0.387859	0.834902	0.011150	0.004149	-0.003501	-0.627930	0.511963	0.212891	0.384106	-0.590186	-0.329324	-0.629038
23738		9.552801	-0.369402	0.869440	0.003924	0.001254	-0.004711	-0.625732	0.511963	0.217285	0.384104	-0.590176	-0.329370	-0.629025
23739		9.535484	-0.444079	0.781469	0.001598	0.003189	-0.006450	-0.628174	0.518311	0.214844	0.384042	-0.590217	-0.329376	-0.629021
23740		9.535466	-0.362414	0.828400	-0.001320	0.001789	-0.005613	-0.628174	0.518311	0.212646	0.384026	-0.590265	-0.329342	-0.629004
23741		9.556472	-0.348229	0.862159	-0.002182	0.002000	-0.005793	-0.623779	0.514160	0.217285	0.384026	-0.590289	-0.329309	-0.628999
23742		9.568614	-0.365558	0.853226	-0.002963	-0.000753	-0.004748	-0.625977	0.518311	0.217041	0.383957	-0.590403	-0.329268	-0.628954
23743		9.585276	-0.429664	0.756484	-0.002669	0.002192	-0.005462	-0.625732	0.511963	0.217285	0.383923	-0.590486	-0.329207	-0.628929
23744		9.545772	-0.402813	0.789607	0.003654	0.004802	-0.007465	-0.632324	0.516113	0.212891	0.383884	-0.590492	-0.329234	-0.628934
23745		9.549380	-0.383754	0.782254	0.004060	0.007573	-0.009020	-0.627930	0.511963	0.217285	0.383891	-0.590399	-0.329276	-0.628995
23746		9.549828	-0.376055	0.816292	0.007913	0.009497	-0.009854	-0.627930	0.511963	0.212891	0.383875	-0.590327	-0.329340	-0.629038
23747		9.580979	-0.387549	0.847588	0.012629	0.011208	-0.010506	-0.625732	0.514160	0.217285	0.383939	-0.590172	-0.329449	-0.629088
23748		9.566389	-0.361556	0.867415	0.003532	0.009812	-0.010577	-0.632324	0.514160	0.215088	0.383909	-0.590140	-0.329456	-0.629132
23749		9.571734	-0.333578	0.856368	0.005070	0.008825	-0.009195	-0.634277	0.511963	0.208496	0.383892	-0.590058	-0.329502	-0.629195
23750		9.567484	-0.353948	0.835453	0.003798	0.008819	-0.006674	-0.625977	0.516357	0.208496	0.383923	-0.589909	-0.329557	-0.629288
23751		9.580813	-0.349135	0.827905	0.000540	0.009081	-0.005867	-0.625732	0.510010	0.210938	0.384003	-0.589836	-0.329521	-0.629326
23752		9.540313	-0.357607	0.858914	0.001182	0.006662	-0.005150	-0.629883	0.510010	0.213135	0.384014	-0.589790	-0.329524	-0.629361
23753		9.576942	-0.345063	0.875619	0.001264	0.003700	-0.003924	-0.630127	0.516113	0.212891	0.383985	-0.589776	-0.329539	-0.629384
23754		9.589614	-0.394748	0.828309	-0.003310	0.006010	-0.002486	-0.627930	0.516357	0.212891	0.383989	-0.589786	-0.329468	-0.629410
23755		9.575024	-0.389352	0.811813	0.001698	0.010667	-0.003850	-0.625732	0.511963	0.212891	0.384049	-0.589741	-0.329415	-0.629443
23756		9.551004	-0.364745	0.828777	-0.002350	0.011874	-0.003404	-0.628174	0.516357	0.217285	0.384064	-0.589706	-0.329335	-0.629508
23757		9.552246	-0.366336	0.891267	0.002567	0.007901	-0.004812	-0.625732	0.514160	0.212891	0.384069	-0.589719	-0.329297	-0.629512
23758		9.567893	-0.348175	0.910324	-0.002888	0.002527	-0.003784	-0.627930	0.511963	0.219482	0.384054	-0.589767	-0.329250	-0.629502
23759		9.664811	-0.390904	0.824477	-0.008286	0.004136	-0.003192	-0.627930	0.516357	0.212891	0.383927	-0.589876	-0.329148	-0.629529
23760		9.541789	-0.355418	0.863229	-0.002596	0.005467	-0.004497	-0.634277	0.511963	0.212891	0.383928	-0.589889	-0.329090	-0.629547
23761		9.523337	-0.390728	0.787223	-0.009262	0.005659	-0.005081	-0.627930	0.510010	0.210938	0.383820	-0.589886	-0.329029	-0.629648
23762		9.549348	-0.399139	0.802126	0.001257	0.008535	-0.007872	-0.625732	0.514160	0.215088	0.383812	-0.589804	-0.329049	-0.629720
23763		9.553975	-0.345685	0.926822	-0.000653	0.008392	-0.007216	-0.625732	0.514160	0.219482	0.383795	-0.589799	-0.329009	-0.629755
23764		9.561996	-0.360695	0.835185	0.000860	0.002073	-0.004916	-0.628174	0.516357	0.217285	0.383743	-0.589889	-0.328982	-0.629717
23765		9.576438	-0.364022	0.854075	0.008055	0.000781	-0.005321	-0.623779	0.516357	0.217285	0.383760	-0.589925	-0.329024	-0.629651
23766		9.558956	-0.388109	0.841118	0.010973	0.002182	-0.006150	-0.630127	0.514160	0.212891	0.383814	-0.589953	-0.329073	-0.629566
23767		9.607383	-0.398863	0.816946	0.003167	0.007531	-0.005979	-0.630127	0.511963	0.212891	0.383831	-0.589898	-0.329079	-0.629604
23768		9.543808	-0.366979	0.829790	0.005744	0.010593	-0.006835	-0.625977	0.516357	0.215088	0.383860	-0.589798	-0.329109	-0.629664
23769		9.550037	-0.347454	0.847149	0.008558	0.009614	-0.007969	-0.625732	0.514160	0.210693	0.383919	-0.589743	-0.329129	-0.629669
23770		9.554474	-0.336345	0.868596	0.010998	0.007514	-0.007064	-0.629883	0.509766	0.219727	0.384017	-0.589652	-0.329194	-0.629661
23771		9.568831	-0.339353	0.888341	0.003147	0.002191	-0.005058	-0.629883	0.507812	0.208740	0.383937	-0.589699	-0.329224	-0.629650
23772		9.567200	-0.365493	0.857761	0.004227	0.003047	-0.002862	-0.629883	0.507812	0.213135	0.383964	-0.589637	-0.329280	-0.629663
23773		9.559143	-0.342657	0.854386	0.002441	-0.000960	-0.001644	-0.629883	0.505615	0.213135	0.383933	-0.589662	-0.329317	-0.629639
23774		9.564282	-0.346525	0.869794	0.001838	-0.000593	-0.000475	-0.632324	0.514160	0.208496	0.383894	-0.589685	-0.329349	-0.629624
23775		9.582049	-0.406474	0.805032	-0.001350	0.000401	0.000146	-0.625732	0.514160	0.212891	0.383925	-0.589688	-0.329329	-0.629613
23776		9.555716	-0.377769	0.828005	0.005494	0.004463	-0.001685	-0.636719	0.516113	0.214844	0.383996	-0.589688	-0.329322	-0.629573
23777		9.572427	-0.386597	0.839472	0.001974	0.004566	-0.002236	-0.627930	0.511963	0.217285	0.383990	-0.589677	-0.329311	-0.629593
23778		9.569431	-0.367814	0.852261	0.002919	0.002538	-0.003377	-0.628174	0.518311	0.217041	0.383961	-0.589722	-0.329308	-0.629570
23779		9.542042	-0.379135	0.840721	0.002004	0.006209	-0.001753	-0.630127	0.514160	0.212891	0.383991	-0.589763	-0.329241	-0.629548
23780		9.562717	-0.365478	0.875217	0.002431	0.002729	-0.003048	-0.625732	0.510010	0.215332	0.384003	-0.589766	-0.329242	-0.629537
23781		9.630731	-0.385786	0.884524	0.005432	0.001175	-0.002650	-0.627930	0.514160	0.212891	0.384005	-0.589798	-0.329270	-0.629492
23782		9.536641	-0.354466	0.862342	-0.002689	-0.001750	-0.000853	-0.630127	0.511963	0.217285	0.383985	-0.589879	-0.329229	-0.629450
23783		9.549163	-0.391290	0.817436	-0.002803	-0.000439	-0.002561	-0.627930	0.511963	0.215088	0.383902	-0.589963	-0.329199	-0.629437
23784		9.554864	-0.408151	0.829351	0.000001	0.001137	-0.002549	-0.625732	0.514160	0.215088	0.383872	-0.590011	-0.329182	-0.629419
23785		9.567567	-0.372119	0.859148	0.000085	-0.000682	-0.003872	-0.630127	0.516113	0.212891	0.383845	-0.590082	-0.329167	-0.629376
23786		9.562298	-0.348361	0.878817	0.006160	-0.003056	-0.003254	-0.629883	0.507812	0.215332	0.383872	-0.590112	-0.329220	-0.629305
23787		9.583608	-0.371776	0.840148	0.005226	-0.003582	-0.003258	-0.627930	0.510010	0.210938	0.383827	-0.590147	-0.329300	-0.629257
23788		9.566247	-0.396725	0.826243	0.002556	-0.001135	-0.002483	-0.623779	0.518311	0.212646	0.383833	-0.590155	-0.329339	-0.629226
23789		9.546530	-0.368641	0.827676	0.004425	-0.000085	-0.002475	-0.629883	0.509766	0.217529	0.383902	-0.590202	-0.329331	-0.629144
23790		9.550190	-0.350772	0.818521	0.006722	-0.002515	-0.003761	-0.629883	0.509766	0.217529	0.383861	-0.590243	-0.329403	-0.629093
23791		9.576273	-0.407914	0.824987	0.005547	0.000999	-0.003490	-0.625732	0.511963	0.215088	0.383829	-0.590262	-0.329447	-0.629071
23792		9.547204	-0.379094	0.824163	0.004413	0.003603	-0.003881	-0.625732	0.514160	0.217285	0.383841	-0.590267	-0.329458	-0.629053
23793		9.543619	-0.346659	0.840637	0.002243	0.003303	-0.004579	-0.632324	0.516113	0.221680	0.383823	-0.590308	-0.329439	-0.629036
23794		9.574472	-0.365052	0.838120	0.004498	0.000648	-0.002653	-0.627930	0.516357	0.208496	0.383782	-0.590379	-0.329435	-0.628996
23795		9.568502	-0.376653	0.855300	0.001652	-0.000018	-0.002004	-0.625732	0.510010	0.217529	0.383841	-0.590380	-0.329440	-0.628957
23796		9.555567	-0.368777	0.800315	-0.000934	-0.000525	-0.000004	-0.627930	0.514160	0.210693	0.383799	-0.590471	-0.329401	-0.628917
23797		9.560924	-0.391456	0.780365	0.002544	0.001417	-0.001339	-0.630127	0.514160	0.217285	0.383849	-0.590469	-0.329406	-0.628887
23798		9.551942	-0.385037	0.809899	0.004226	0.003043	-0.002861	-0.634521	0.516113	0.215088	0.383846	-0.590485	-0.329410	-0.628871
23799		9.570831	-0.379805	0.848509	0.001827	0.003094	-0.001880	-0.628174	0.518311	0.212646	0.383848	-0.590485	-0.329401	-0.628874
23800		9.558757	-0.379562	0.822642	0.005420	0.003726	-0.001506	-0.627930	0.516357	0.215088	0.383928	-0.590478	-0.329393	-0.628837
23801		9.545817	-0.395584	0.829398	0.002804	0.002709	-0.002537	-0.630127	0.511963	0.215088	0.383948	-0.590502	-0.329376	-0.628810
23802		9.554858	-0.376458	0.868278	-0.000776	-0.000477	-0.004054	-0.625732	0.511963	0.212891	0.383891	-0.590540	-0.329386	-0.628804
23803		9.608815	-0.410560	0.823005	0.005663	0.000821	-0.004328	-0.630371	0.520508	0.208252	0.383915	-0.590535	-0.329436	-0.628768
23804		9.555774	-0.406515	0.829209	0.001351	0.000732	-0.002694	-0.634521	0.516113	0.215088	0.383977	-0.590528	-0.329432	-0.628739
23805		9.536008	-0.378205	0.830927	0.005663	0.000820	-0.004327	-0.625732	0.510010	0.213135	0.383977	-0.590517	-0.329483	-0.628723
23806		9.527372	-0.389740	0.824153	0.003507	-0.002034	-0.006168	-0.623779	0.514160	0.210693	0.383946	-0.590535	-0.329550	-0.628690
23807		9.549974	-0.366666	0.852633	0.004254	-0.002068	-0.005145	-0.628174	0.516357	0.219482	0.383972	-0.590553	-0.329602	-0.628630
23808		9.575512	-0.386111	0.801609	0.004067	-0.002626	-0.004126	-0.623535	0.511963	0.215088	0.383938	-0.590636	-0.329621	-0.628562
23809		9.589640	-0.394929	0.788265	0.004944	0.002496	-0.004869	-0.625977	0.518311	0.214844	0.383949	-0.590644	-0.329648	-0.628534
23810		9.536294	-0.371839	0.830524	0.008466	0.002394	-0.004315	-0.628174	0.516357	0.219482	0.384015	-0.590643	-0.329682	-0.628478
23811		9.547392	-0.362573	0.829405	0.004729	0.000292	-0.004331	-0.630127	0.516113	0.208496	0.383996	-0.590697	-0.329695	-0.628431
23812		9.569640	-0.393636	0.819745	0.002861	-0.000759	-0.004339	-0.627930	0.511963	0.215088	0.384025	-0.590678	-0.329741	-0.628406
23813		9.557380	-0.374096	0.828663	0.000231	0.000778	-0.004229	-0.625732	0.511963	0.210693	0.383986	-0.590706	-0.329748	-0.628400
23814		9.554699	-0.373949	0.804868	-0.004110	-0.000955	-0.003077	-0.627930	0.514160	0.210693	0.383954	-0.590749	-0.329730	-0.628389
23815		9.548438	-0.390960	0.790021	0.000489	0.000938	-0.002877	-0.625732	0.514160	0.210693	0.383970	-0.590752	-0.329735	-0.628374
23816		9.564644	-0.385948	0.804496	-0.000373	0.002277	-0.005610	-0.623535	0.511963	0.217285	0.383970	-0.590745	-0.329743	-0.628376
23817		9.564612	-0.384870	0.805388	0.002155	0.005117	-0.003258	-0.623779	0.516357	0.215088	0.383970	-0.590766	-0.329718	-0.628370
23818		9.545331	-0.369733	0.804516	0.003392	0.006023	-0.005113	-0.627930	0.514160	0.215088	0.384005	-0.590759	-0.329706	-0.628362
23819		9.547364	-0.354779	0.833087	0.004599	0.003024	-0.002349	-0.632324	0.514160	0.215088	0.384033	-0.590760	-0.329716	-0.628338
23820		9.569573	-0.386104	0.824099	0.004758	0.001936	-0.003848	-0.628174	0.518311	0.217041	0.384032	-0.590748	-0.329753	-0.628330
23821		9.573747	-0.381552	0.812017	0.001006	0.002389	-0.002724	-0.625977	0.516357	0.215088	0.384035	-0.590793	-0.329721	-0.628303
23822		9.558775	-0.411455	0.791198	0.001078	0.003122	-0.002904	-0.632080	0.511963	0.215088	0.384049	-0.590820	-0.329695	-0.628283
23823		9.550273	-0.369602	0.823988	0.004484	0.004329	-0.004058	-0.625977	0.516357	0.215088	0.384045	-0.590784	-0.329728	-0.628302
23824		9.546055	-0.372295	0.837401	0.001611	0.002019	-0.003891	-0.623779	0.514160	0.219482	0.384051	-0.590813	-0.329718	-0.628276
23825		9.602776	-0.405702	0.816491	0.005693	0.002460	-0.003843	-0.628174	0.518311	0.214844	0.384057	-0.590852	-0.329725	-0.628231
23826		9.580582	-0.420982	0.820455	0.001293	0.005322	-0.003442	-0.627686	0.505615	0.215332	0.384081	-0.590854	-0.329694	-0.628232
23827		9.529761	-0.373345	0.825934	-0.000343	0.003916	-0.005130	-0.630127	0.511963	0.215088	0.384014	-0.590841	-0.329707	-0.628278
23828		9.529536	-0.401747	0.855322	-0.000657	-0.000662	-0.004892	-0.630127	0.514160	0.215088	0.383951	-0.590873	-0.329724	-0.628278
23829		9.541832	-0.370648	0.852750	-0.002898	-0.001698	-0.005412	-0.625732	0.511963	0.215088	0.383875	-0.590925	-0.329725	-0.628275
23830		9.582730	-0.378312	0.787656	-0.002596	-0.002448	-0.004721	-0.625732	0.514160	0.215088	0.383807	-0.590995	-0.329722	-0.628252
23831		9.582296	-0.412231	0.784444	0.002562	-0.000012	-0.005027	-0.621582	0.514160	0.217285	0.383796	-0.591023	-0.329745	-0.628220
23832		9.544164	-0.377286	0.812036	0.003194	0.001263	-0.005713	-0.625977	0.516357	0.215088	0.383788	-0.591065	-0.329754	-0.628181
23833		9.541837	-0.395136	0.753441	0.002804	0.004960	-0.007633	-0.627930	0.510010	0.219727	0.383789	-0.591045	-0.329769	-0.628191
23834		9.544502	-0.392557	0.778458	0.004600	0.005278	-0.007444	-0.627930	0.511963	0.215088	0.383740	-0.591027	-0.329799	-0.628222
23835		9.565447	-0.396061	0.778030	-0.000289	0.009456	-0.009266	-0.627930	0.516357	0.208496	0.383699	-0.590965	-0.329798	-0.628307
23836		9.550549	-0.370496	0.797564	0.007083	0.011284	-0.009529	-0.621338	0.510010	0.215332	0.383782	-0.590816	-0.329862	-0.628362
23837		9.559950	-0.363097	0.835127	0.004610	0.010600	-0.008371	-0.623779	0.514160	0.210693	0.383796	-0.590748	-0.329874	-0.628411
23838		9.567744	-0.388929	0.809506	0.001159	0.010301	-0.006559	-0.625732	0.511963	0.212891	0.383841	-0.590675	-0.329861	-0.628459
23839		9.543054	-0.398889	0.822969	-0.000335	0.009233	-0.006057	-0.630127	0.511963	0.217285	0.383843	-0.590626	-0.329837	-0.628517
23840		9.536959	-0.331889	0.819642	-0.002879	0.007817	-0.004722	-0.634277	0.509766	0.215332	0.383786	-0.590623	-0.329779	-0.628585
23841		9.557416	-0.371473	0.816391	0.001504	0.007515	-0.003978	-0.621338	0.510010	0.215332	0.383758	-0.590572	-0.329773	-0.628652
23842		9.559277	-0.410095	0.807604	0.007410	0.011047	-0.005802	-0.623535	0.510010	0.219727	0.383812	-0.590503	-0.329781	-0.628681
23843		9.586281	-0.396555	0.823187	0.001023	0.013027	-0.004579	-0.625732	0.511963	0.215088	0.383797	-0.590479	-0.329701	-0.628754
23844		9.549088	-0.388275	0.846364	0.005782	0.013834	-0.005868	-0.625977	0.516357	0.210693	0.383848	-0.590384	-0.329688	-0.628819
23845		9.555953	-0.352792	0.831618	0.003845	0.012047	-0.005700	-0.623779	0.514160	0.217285	0.383930	-0.590290	-0.329680	-0.628861
23846		9.538044	-0.358401	0.856518	0.002398	0.010069	-0.005859	-0.627930	0.510010	0.213135	0.383939	-0.590271	-0.329637	-0.628897
23847		9.575067	-0.358524	0.870383	-0.002972	0.005433	-0.005025	-0.623779	0.516357	0.215088	0.383892	-0.590266	-0.329605	-0.628947
23848		9.610733	-0.391898	0.820708	-0.003697	0.005981	-0.003020	-0.632324	0.514160	0.215088	0.383888	-0.590307	-0.329518	-0.628955
23849		9.527250	-0.382417	0.826735	-0.006751	0.004238	-0.004390	-0.630127	0.511963	0.217285	0.383809	-0.590339	-0.329449	-0.629010
23850		9.540180	-0.359469	0.853490	-0.009668	0.002837	-0.003570	-0.627930	0.510010	0.213135	0.383690	-0.590418	-0.329347	-0.629063
23851		9.571839	-0.391049	0.847709	-0.004908	0.003647	-0.004857	-0.625977	0.520508	0.214844	0.383627	-0.590435	-0.329309	-0.629105
23852		9.551321	-0.344181	0.885161	-0.001418	0.000789	-0.002227	-0.627930	0.514160	0.210693	0.383643	-0.590506	-0.329258	-0.629055
23853		9.546476	-0.393581	0.830762	-0.005292	-0.002782	-0.001896	-0.627930	0.514160	0.215088	0.383612	-0.590576	-0.329230	-0.629022
23854		9.641793	-0.383009	0.759454	-0.013217	0.000159	-0.002065	-0.625732	0.514160	0.215088	0.383504	-0.590691	-0.329106	-0.629046
23855		9.601826	-0.387807	0.693065	-0.015519	0.012094	-0.000090	-0.625732	0.510010	0.213135	0.383451	-0.590735	-0.328890	-0.629150
23856		9.525905	-0.376986	0.772710	-0.000938	0.017979	-0.001634	-0.628174	0.518311	0.214844	0.383512	-0.590636	-0.328789	-0.629258
23857		9.531523	-0.382434	0.853023	0.013272	0.019683	-0.005310	-0.625977	0.516357	0.215088	0.383676	-0.590460	-0.328802	-0.629316
23858		9.570310	-0.427698	0.826650	0.010403	0.017367	-0.005152	-0.623779	0.514160	0.208496	0.383804	-0.590324	-0.328797	-0.629368
23859		9.592002	-0.415170	0.796633	0.007429	0.021667	-0.007626	-0.625732	0.514160	0.215088	0.383945	-0.590119	-0.328797	-0.629474
23860		9.562366	-0.385550	0.800575	0.009881	0.024895	-0.007631	-0.625977	0.516357	0.210693	0.384066	-0.589919	-0.328771	-0.629602
23861		9.563133	-0.345207	0.901189	0.007432	0.021655	-0.007622	-0.625732	0.510010	0.215332	0.384192	-0.589732	-0.328758	-0.629707
23862		9.580616	-0.325401	0.947353	0.002664	0.015528	-0.005418	-0.625732	0.510010	0.210938	0.384211	-0.589650	-0.328703	-0.629801
23863		9.595322	-0.347751	0.933565	-0.002272	0.010492	-0.001718	-0.627930	0.516357	0.215088	0.384230	-0.589618	-0.328626	-0.629859
23864		9.562013	-0.382933	0.875776	0.002712	0.004516	-0.001201	-0.621582	0.514160	0.208496	0.384264	-0.589643	-0.328589	-0.629835
23865		9.518081	-0.385849	0.853266	0.002379	0.002501	0.000173	-0.627930	0.514160	0.217285	0.384348	-0.589662	-0.328574	-0.629773
23866		9.568681	-0.394432	0.792772	0.003863	0.003045	-0.003350	-0.627686	0.507812	0.213135	0.384341	-0.589694	-0.328561	-0.629755
23867		9.622458	-0.398543	0.848669	0.004098	0.006879	-0.003404	-0.630127	0.514160	0.212891	0.384344	-0.589659	-0.328558	-0.629787
23868		9.562816	-0.453110	0.806781	0.005458	0.011790	-0.004466	-0.630127	0.511963	0.212891	0.384398	-0.589575	-0.328549	-0.629837
23869		9.515444	-0.342134	0.870964	0.006096	0.008869	-0.006770	-0.630127	0.514160	0.215088	0.384413	-0.589500	-0.328577	-0.629884
23870		9.608067	-0.343689	0.902985	0.007563	0.002984	-0.006821	-0.625732	0.510010	0.215332	0.384411	-0.589483	-0.328631	-0.629873
23871		9.532837	-0.350175	0.943435	0.007017	-0.001223	-0.004911	-0.627686	0.507812	0.215332	0.384392	-0.589518	-0.328682	-0.629826
23872		9.569804	-0.402094	0.856530	-0.004925	-0.003318	-0.004424	-0.623535	0.511963	0.215088	0.384263	-0.589619	-0.328650	-0.629825
23873		9.555678	-0.396663	0.836834	-0.003523	-0.004624	-0.005221	-0.630127	0.511963	0.208496	0.384168	-0.589737	-0.328631	-0.629783
23874		9.552850	-0.342167	0.850676	0.001262	-0.002173	-0.006014	-0.623535	0.510010	0.210938	0.384145	-0.589742	-0.328696	-0.629759
23875		9.564735	-0.334947	0.908193	0.005076	-0.008314	-0.003826	-0.625732	0.511963	0.215088	0.384132	-0.589820	-0.328780	-0.629650
23876		9.599292	-0.371435	0.891363	0.003059	-0.011947	-0.000939	-0.630127	0.511963	0.208496	0.384086	-0.589971	-0.328823	-0.629514
23877		9.532173	-0.347625	0.970603	-0.006738	-0.015379	-0.000218	-0.623779	0.518311	0.214844	0.383998	-0.590139	-0.328848	-0.629397
23878		9.539068	-0.395625	0.878553	-0.028856	-0.022020	0.003034	-0.625977	0.518311	0.214844	0.383750	-0.590545	-0.328656	-0.629268
23879		9.498901	-0.412058	0.870004	-0.001748	-0.021360	0.000297	-0.623779	0.514160	0.215088	0.383682	-0.590793	-0.328702	-0.629052
23880		9.469552	-0.864679	0.779703	-0.004061	-0.039078	0.002724	-0.625732	0.511963	0.217285	0.383528	-0.591199	-0.328798	-0.628714
23881		9.428295	-0.204462	1.001527	0.106388	-0.057167	-0.011651	-0.630127	0.516113	0.217285	0.383974	-0.591159	-0.329949	-0.627876
23882		9.276805	-0.138811	1.273001	0.133493	-0.119357	0.012348	-0.621582	0.511963	0.210693	0.384555	-0.591568	-0.331436	-0.626350
23883		9.392099	0.181435	1.791758	0.173545	-0.216162	0.040273	-0.621582	0.514160	0.219482	0.385288	-0.592622	-0.333521	-0.623792
23884		9.552116	0.275059	2.282851	0.127618	-0.334894	0.096083	-0.619629	0.522705	0.223633	0.385558	-0.595091	-0.335353	-0.620282
23885		9.342206	0.298100	2.696662	0.082489	-0.514764	0.157988	-0.611084	0.522705	0.230225	0.385227	-0.599418	-0.337218	-0.615290
23886		9.363262	0.077375	3.211188	0.112676	-0.769836	0.235000	-0.613525	0.526855	0.243164	0.384606	-0.605843	-0.339926	-0.607851
23887		9.360004	0.215619	3.987906	0.179470	-1.097915	0.316285	-0.594482	0.535645	0.262939	0.383610	-0.614675	-0.344039	-0.597206
23888		9.198817	-0.632934	3.972599	0.195527	-1.474765	0.367561	-0.582031	0.546143	0.282227	0.381377	-0.626351	-0.349504	-0.583167
23889		8.995621	-1.467828	3.152573	0.296860	-1.853003	0.343532	-0.562744	0.548584	0.308838	0.377941	-0.639902	-0.357502	-0.565578
23890		7.838004	0.369922	-0.024257	0.019542	-2.011751	0.369100	-0.541504	0.550781	0.339600	0.371486	-0.655633	-0.363807	-0.547529
23891		8.011781	-0.498859	-1.857017	-0.045882	-2.057695	0.413564	-0.509766	0.561523	0.367920	0.364315	-0.671762	-0.369239	-0.528842
23892		6.473961	0.670113	-2.916339	-0.033331	-1.933893	0.460589	-0.495117	0.563721	0.394287	0.357908	-0.686860	-0.373477	-0.510529
23893		6.678830	-2.425958	-4.302141	0.150491	-1.773608	0.458695	-0.469727	0.572510	0.414062	0.353604	-0.699653	-0.378030	-0.492486
23894		9.945574	0.789247	0.028593	-0.080018	-1.770901	0.526719	-0.437744	0.581299	0.433594	0.347534	-0.713418	-0.380331	-0.474977
23895		7.700967	-1.024423	-4.881894	-0.607528	-1.697947	0.544285	-0.414307	0.579346	0.464600	0.337032	-0.728782	-0.378740	-0.460262
23896		7.510732	-2.560144	-4.728787	0.115801	-1.541633	0.336689	-0.395264	0.581543	0.484619	0.332487	-0.738869	-0.382355	-0.444218
23897		7.255767	-3.653608	-6.673237	-0.291667	-1.331473	0.310025	-0.371582	0.581787	0.504395	0.324900	-0.749087	-0.382936	-0.432053
23898		3.229085	-1.959702	-7.873886	-0.294918	-0.922314	0.235953	-0.365234	0.581787	0.513184	0.318751	-0.756619	-0.382386	-0.423918
23899		1.430572	-5.132672	-11.806478	-0.027315	-0.196148	-0.157462	-0.360840	0.579590	0.515625	0.316561	-0.757186	-0.384213	-0.422892
23900		10.881180	-4.380826	-9.102386	-0.363958	0.563418	-0.171540	-0.371582	0.575439	0.517822	0.314737	-0.754995	-0.381389	-0.430657
23901		12.696508	-4.501084	-13.468663	-0.699587	1.314203	-0.445634	-0.398682	0.560303	0.511719	0.311773	-0.748603	-0.376318	-0.448080
23902		11.872459	-6.320494	-16.766350	-0.017864	2.261153	-0.817571	-0.440918	0.542969	0.479248	0.317409	-0.731947	-0.374760	-0.472292
23903		19.691932	-6.291354	-12.023927	0.603934	3.056554	-0.857780	-0.485596	0.534180	0.430908	0.331928	-0.706891	-0.373842	-0.500371
23904		20.839563	0.559447	-1.118079	1.321307	3.418816	-0.545223	-0.539307	0.548584	0.368408	0.355849	-0.676694	-0.372496	-0.526026
23905		11.720128	2.726286	3.254786	1.610777	3.527161	-0.478469	-0.584229	0.548340	0.293213	0.382355	-0.643262	-0.371131	-0.549800
23906		4.420356	5.701103	2.128981	0.799367	3.186319	-0.351596	-0.626709	0.543701	0.235840	0.400872	-0.615238	-0.364059	-0.572927
23907		1.084198	2.315935	4.651900	-0.210275	2.399561	-0.064083	-0.645996	0.543701	0.200684	0.409541	-0.598501	-0.350944	-0.592377
23908		-2.118539	-2.888063	0.600729	0.056755	0.715851	-0.052588	-0.652344	0.541504	0.189697	0.412704	-0.592720	-0.348106	-0.597645
23909		0.452659	2.278078	4.289739	0.861096	-0.399324	-0.133876	-0.656738	0.543457	0.191650	0.416321	-0.590709	-0.357577	-0.591506
23910		-0.129984	1.919699	4.498495	-0.187780	-0.635423	0.077160	-0.656738	0.543457	0.202637	0.412649	-0.596778	-0.358906	-0.587165
23911		0.128513	1.270956	3.562968	-0.622580	-0.599903	0.190837	-0.645996	0.539307	0.218262	0.406683	-0.605279	-0.355958	-0.584414
23912		0.418137	0.967739	2.905248	-0.676160	-0.513489	0.272613	-0.639648	0.541504	0.235840	0.401240	-0.613708	-0.351499	-0.582081
23913		0.146783	1.421682	3.310408	-0.897815	-0.594060	0.294780	-0.628906	0.543701	0.264404	0.393836	-0.623832	-0.345590	-0.579909
23914		-0.240547	-0.130772	3.389645	-0.900955	-0.923459	0.208076	-0.611816	0.539551	0.289062	0.384264	-0.635837	-0.341862	-0.575485
23915		0.139451	-2.149027	1.947342	-0.443430	-1.373506	0.187263	-0.583984	0.539795	0.320068	0.376138	-0.648602	-0.343628	-0.565469
23916		2.774633	2.744349	-1.853104	-1.299920	-2.850498	0.411148	-0.545410	0.538086	0.379639	0.355957	-0.676177	-0.344123	-0.545580
23917		15.692528	2.599965	7.188083	-0.325944	-3.213052	0.402166	-0.492188	0.540527	0.428467	0.341818	-0.700763	-0.352413	-0.517588
23918		13.839698	-0.588871	-17.751087	-3.916574	-2.240887	0.817944	-0.457031	0.511230	0.504639	0.302373	-0.734486	-0.328775	-0.510889
23919		15.118404	-1.851074	-20.509143	-0.256798	-0.681518	0.316328	-0.437988	0.515625	0.511230	0.299207	-0.741126	-0.326733	-0.504434
23920		34.383423	-9.512067	-12.799993	-0.472258	0.421592	0.355449	-0.440186	0.515625	0.511230	0.298771	-0.741705	-0.318910	-0.508828
23921		23.908337	-15.215000	-17.711253	0.573233	1.177879	-0.283922	-0.463867	0.521729	0.486572	0.306926	-0.730889	-0.320771	-0.518366
23922		20.790960	-4.267297	-8.857049	1.933796	2.237561	-0.711134	-0.509033	0.529785	0.419922	0.328733	-0.705658	-0.331001	-0.533310
23923		11.752903	2.530022	-0.484764	2.649848	2.652133	-0.641986	-0.552002	0.544434	0.355225	0.358421	-0.673702	-0.343062	-0.547693
23924		5.142644	7.867580	5.138836	1.149439	2.463216	-0.301899	-0.584229	0.543945	0.313232	0.376372	-0.650057	-0.342231	-0.564490
23925		1.927870	2.315383	1.825011	-0.037541	1.946582	-0.200720	-0.607422	0.539551	0.275879	0.382823	-0.635500	-0.334304	-0.581229
23926		-0.231148	0.899529	-0.488399	-0.217202	0.676908	-0.092274	-0.628906	0.539551	0.269043	0.383219	-0.631255	-0.330194	-0.587904
23927		-0.027139	0.633967	2.609541	0.263370	-0.453831	-0.014234	-0.622314	0.535400	0.275879	0.383307	-0.633318	-0.334422	-0.583220
23928		0.043303	0.556696	4.349319	-0.339832	-0.734349	0.118136	-0.614014	0.543701	0.297607	0.378385	-0.640824	-0.334517	-0.578159
23929		0.058842	0.121821	2.643860	-0.763032	-0.525462	0.123075	-0.609375	0.533203	0.311279	0.370932	-0.648763	-0.330463	-0.576463
23930		0.014386	-0.810766	1.928852	-0.589728	-0.154863	0.088116	-0.607422	0.535400	0.328857	0.366125	-0.653019	-0.326176	-0.577172
23931		0.020478	-0.274512	3.037768	-0.700118	-0.043366	0.131902	-0.598633	0.527100	0.333496	0.361161	-0.657109	-0.320189	-0.579008
23932		0.374813	-1.061340	3.432432	-0.553485	-0.238420	0.059420	-0.590088	0.527100	0.344727	0.356069	-0.661612	-0.316699	-0.578953
23933		-0.685791	-1.062280	-1.806951	-0.854499	-1.514450	0.311956	-0.558105	0.527344	0.384521	0.345166	-0.677506	-0.314514	-0.568266
23934		9.618340	-3.598758	4.406523	0.320764	-3.065471	0.618299	-0.505127	0.546875	0.419189	0.339945	-0.699860	-0.324458	-0.537922
23935		14.311452	3.474403	6.883933	-2.941581	-2.896800	1.023640	-0.446777	0.519775	0.502197	0.308872	-0.735047	-0.307469	-0.519392
23936		24.601782	0.477755	-12.464665	-1.084435	-2.355185	0.110016	-0.416504	0.509521	0.533447	0.290394	-0.754630	-0.308194	-0.501220
23937		19.603550	-1.829829	-18.428633	0.643631	-1.386997	-0.601112	-0.401855	0.518066	0.544189	0.287285	-0.758567	-0.322764	-0.487716
23938		12.379081	-10.214427	-20.033715	-0.140343	-0.091244	0.227557	-0.395264	0.515869	0.548828	0.286955	-0.760599	-0.320039	-0.486539
23939		14.877063	-8.380061	-21.138862	0.662822	1.552208	-0.560244	-0.431641	0.517822	0.508789	0.295971	-0.746417	-0.323740	-0.500456
23940		20.691480	-5.510660	-11.630314	2.000327	2.649954	-1.083220	-0.485352	0.530029	0.450928	0.318291	-0.717410	-0.336281	-0.520508
23941		17.838502	-0.151838	-1.464884	2.584560	2.992348	-0.797625	-0.541260	0.540283	0.379639	0.348441	-0.683467	-0.347950	-0.538881
23942		9.710041	8.536280	6.634011	2.164186	2.979086	-0.452393	-0.577881	0.550537	0.306396	0.376437	-0.651339	-0.353043	-0.556250
23943		2.883254	3.218588	2.707685	-0.092608	2.085184	-0.220916	-0.607666	0.543945	0.277832	0.383195	-0.636122	-0.344265	-0.574449
23944		0.393931	0.176553	-0.349807	-0.016596	0.979959	-0.123958	-0.618164	0.537354	0.262695	0.386327	-0.628625	-0.340401	-0.582846
23945		-0.191220	1.367012	0.232899	0.305963	0.376759	-0.049268	-0.626709	0.541504	0.258057	0.389946	-0.624234	-0.341191	-0.584691
23946		-0.767479	1.420359	3.520586	-0.377711	0.597418	-0.043509	-0.635010	0.533203	0.253906	0.389205	-0.621562	-0.335857	-0.591083
23947		-0.931713	-0.134135	2.143380	-0.359190	0.624662	-0.153428	-0.641357	0.531006	0.245117	0.387884	-0.618089	-0.331346	-0.598098
23948		-0.221056	-1.061798	1.500286	0.252858	0.434379	-0.244385	-0.641602	0.535156	0.238281	0.389799	-0.612654	-0.333005	-0.601515
23949		0.752441	-1.116383	4.012058	0.583199	0.292924	-0.320244	-0.645508	0.528809	0.223145	0.393058	-0.606317	-0.338384	-0.602811
23950		0.635906	0.536507	6.175022	0.562735	0.125519	-0.292145	-0.643311	0.528809	0.216553	0.395634	-0.601417	-0.344171	-0.602758
23951		-2.063929	1.481095	1.697109	-0.348008	-0.709890	0.000234	-0.630615	0.528809	0.238770	0.389935	-0.608523	-0.344972	-0.598869
23952		5.410209	-2.495463	-4.086301	-0.927035	-2.482227	0.374545	-0.592529	0.537598	0.287109	0.374755	-0.632957	-0.347013	-0.581813
23953		14.595220	-3.619167	0.534293	0.980441	-2.169653	0.198607	-0.562988	0.554932	0.306396	0.374370	-0.644791	-0.362514	-0.559175
23954		23.802278	13.599356	3.950913	0.086906	-2.032013	0.002483	-0.531006	0.552979	0.339600	0.365753	-0.658464	-0.372413	-0.542180
23955		38.847026	-2.952473	4.462457	-0.524928	-1.963772	0.580585	-0.505371	0.553223	0.381592	0.356080	-0.676706	-0.372858	-0.525597
23956		4.331616	-8.191725	-19.938152	-3.169359	-1.044562	0.680984	-0.496338	0.538330	0.426270	0.328539	-0.700285	-0.350470	-0.528047
23957		-3.155709	-8.133736	-21.198690	1.373434	0.329795	-0.348262	-0.496582	0.546875	0.399414	0.339639	-0.690883	-0.361118	-0.526232
23958		15.000033	-4.588280	-5.373242	0.378732	1.281962	-0.314781	-0.522217	0.546631	0.379395	0.346568	-0.679384	-0.360855	-0.536761
23959		11.175228	0.342454	-1.030108	0.258094	1.540450	-0.337741	-0.538818	0.533936	0.349121	0.353367	-0.666340	-0.358730	-0.549942
23960		5.775490	3.131654	-2.005610	0.348513	1.609553	-0.273127	-0.556152	0.542236	0.324463	0.361528	-0.652436	-0.356232	-0.562782
23961		6.955938	-1.540962	-1.762005	0.059213	1.610357	-0.267165	-0.571045	0.537842	0.298096	0.367228	-0.639582	-0.351516	-0.576641
23962		8.962841	-2.568140	3.014102	0.670468	1.446870	-0.395217	-0.579590	0.539795	0.262695	0.376025	-0.624275	-0.352833	-0.586852
23963		8.781984	0.628038	6.573909	0.511851	1.016229	-0.366558	-0.594482	0.537598	0.245117	0.381776	-0.612800	-0.354649	-0.594094
23964		9.464707	1.761889	4.443280	0.118047	0.536977	-0.205203	-0.600830	0.531250	0.232178	0.383526	-0.607393	-0.354512	-0.598584
23965		10.046045	2.180640	1.921679	-0.220571	0.265257	-0.033095	-0.598633	0.533447	0.234375	0.382772	-0.606382	-0.351809	-0.601678
23966		9.951134	-0.056500	1.099827	-0.072976	0.142091	0.054287	-0.600830	0.533447	0.232178	0.383246	-0.605967	-0.350138	-0.602768
23967		9.602329	-1.117031	1.103396	0.076145	0.058135	0.069249	-0.596436	0.531250	0.227783	0.384593	-0.605533	-0.349874	-0.602500
23968		9.471763	-0.906675	0.019554	-0.032717	0.037797	0.099078	-0.602783	0.531250	0.232178	0.385251	-0.605905	-0.348656	-0.602412
23969		9.380483	-0.320895	-0.745709	0.072143	0.115953	0.077165	-0.604980	0.533447	0.227783	0.386877	-0.605086	-0.348015	-0.602563
23970		9.439431	-0.001787	0.735244	0.018016	0.149991	0.102961	-0.598877	0.539795	0.223145	0.388435	-0.604383	-0.346611	-0.603077
23971		9.714456	-0.439177	1.956168	-0.051288	0.062621	0.135234	-0.596680	0.537598	0.220947	0.389332	-0.604811	-0.344862	-0.603071
23972		9.804981	-0.394042	1.812978	-0.142122	-0.094616	0.147019	-0.598877	0.543945	0.227295	0.388950	-0.606913	-0.343094	-0.602213
23973		9.944070	-0.807957	1.790605	-0.125224	-0.255548	0.160696	-0.598877	0.537598	0.231934	0.388102	-0.610195	-0.342121	-0.599993
23974		9.790766	-0.190586	2.319625	-0.242064	-0.433601	0.224633	-0.586426	0.550293	0.244629	0.386068	-0.615632	-0.340628	-0.596591
23975		9.766828	0.380193	1.517035	-0.502634	-0.562817	0.315052	-0.582031	0.546143	0.262451	0.382121	-0.623629	-0.337084	-0.592828
23976		9.677293	-0.226240	0.397118	-0.730969	-0.566512	0.459585	-0.575684	0.550537	0.282227	0.377396	-0.633265	-0.330688	-0.589231
23977		8.744513	-1.808413	-2.127489	-1.445606	-0.259685	0.568716	-0.566895	0.537842	0.302490	0.368982	-0.644285	-0.316624	-0.590337
23978		8.087117	-2.715461	-1.778805	-1.008697	0.273746	0.326574	-0.564697	0.537842	0.315674	0.364305	-0.648208	-0.305188	-0.594953
23979		7.780376	-2.178830	-0.859484	-0.139516	0.703840	-0.118759	-0.573242	0.540039	0.304688	0.364950	-0.643191	-0.301822	-0.601681
23980		7.273422	-0.168838	-5.288384	0.170191	0.244933	-0.387238	-0.581787	0.535645	0.300293	0.364315	-0.639161	-0.305024	-0.604737
23981		10.136983	0.384334	0.637730	0.458154	0.206538	-0.284869	-0.579346	0.529297	0.289551	0.366596	-0.634475	-0.309772	-0.605880
23982		9.596034	-1.988279	0.481821	-0.204747	0.172219	-0.192271	-0.585449	0.522949	0.287598	0.364174	-0.633423	-0.308912	-0.608872
23983		9.194309	-1.631537	0.105460	-0.488188	0.153512	-0.126139	-0.591797	0.518555	0.294434	0.359928	-0.634039	-0.305442	-0.612496
23984		9.051583	-0.928420	-0.189105	-0.473476	0.164963	-0.150469	-0.593994	0.516602	0.296631	0.355639	-0.634381	-0.302206	-0.616241
23985		9.238112	-0.193023	-1.249559	-0.472997	0.216594	-0.159427	-0.595703	0.508057	0.301270	0.351467	-0.634262	-0.298808	-0.620400
23986		9.791339	0.633032	-0.198665	-0.326103	0.288502	-0.127408	-0.597900	0.505859	0.301514	0.348961	-0.633036	-0.295972	-0.624414
23987		9.422537	-0.392254	0.759380	-0.267756	0.285093	-0.107622	-0.599854	0.499512	0.301758	0.347050	-0.631638	-0.293450	-0.628074
23988		10.064752	0.038764	0.984949	-0.216525	0.214633	-0.069354	-0.604004	0.497314	0.297363	0.345576	-0.630698	-0.291323	-0.630815
23989		10.223931	0.668792	0.561758	-0.047568	0.161562	-0.005906	-0.604004	0.495361	0.295166	0.345741	-0.629669	-0.290258	-0.632243
23990		9.710425	0.501390	0.977217	0.234839	0.102744	0.057279	-0.601807	0.497314	0.290771	0.348411	-0.628107	-0.291183	-0.631905
23991		9.166350	-1.056855	1.523028	0.304002	0.023662	0.054551	-0.604248	0.503662	0.286133	0.351311	-0.626851	-0.293018	-0.630697
23992		9.386492	-1.322835	0.844108	0.177798	-0.047157	0.030100	-0.602295	0.508057	0.285889	0.352767	-0.626611	-0.294354	-0.629500
23993		9.858146	-0.040588	-0.537620	0.212897	-0.034571	0.015250	-0.602295	0.508057	0.281494	0.354426	-0.626060	-0.296025	-0.628332
23994		9.571168	0.774755	-0.910908	0.452829	0.051593	0.036310	-0.604492	0.512207	0.272461	0.358441	-0.623833	-0.299033	-0.626843
23995		9.600836	0.648850	0.221373	0.572733	0.103873	0.086866	-0.602539	0.520752	0.272217	0.363970	-0.620818	-0.302351	-0.625056
23996		9.366220	-0.977003	1.628246	0.694612	0.079687	0.047366	-0.598389	0.522705	0.252441	0.370019	-0.617254	-0.307021	-0.622753
23997		9.510419	-1.865810	1.544371	0.409622	0.029837	0.026887	-0.602783	0.524902	0.252197	0.373504	-0.615281	-0.309848	-0.621223
23998		9.414129	-1.191068	0.500753	0.123975	0.006325	0.041964	-0.600586	0.527100	0.250000	0.374804	-0.614876	-0.310423	-0.620554
23999		9.513160	-0.180988	-0.440878	0.199897	0.039339	0.020725	-0.604980	0.531250	0.249756	0.376651	-0.613774	-0.311598	-0.619938
24000		9.259856	-0.252323	-0.208831	0.535029	0.104373	-0.045522	-0.607178	0.529053	0.238770	0.380798	-0.610317	-0.315565	-0.618809
24001		8.980338	-0.943792	0.963477	0.793983	0.141605	-0.222507	-0.613770	0.537598	0.225342	0.385665	-0.604591	-0.322682	-0.617744
24002		9.158208	-0.429648	1.192821	0.904651	0.108356	-0.264530	-0.613770	0.537598	0.214355	0.390870	-0.598343	-0.331101	-0.616099
24003		9.546442	-0.704679	1.156377	0.376281	0.063071	-0.109010	-0.613770	0.535400	0.207764	0.393100	-0.595624	-0.334477	-0.615492
24004		9.377633	-1.663204	0.776783	-0.057722	0.031419	0.021382	-0.613770	0.539551	0.203125	0.392962	-0.595819	-0.333689	-0.615819
24005		9.277596	-0.600595	1.056206	-0.123329	0.003156	-0.008343	-0.617920	0.531250	0.209961	0.391999	-0.596424	-0.332765	-0.616346
24006		9.480481	0.252270	1.364245	-0.198816	-0.040443	0.015512	-0.611572	0.537598	0.212158	0.390454	-0.597834	-0.331271	-0.616766
24007		9.676682	-0.377648	1.000754	-0.287972	-0.070898	0.028168	-0.609375	0.533203	0.220947	0.388225	-0.599962	-0.329153	-0.617240
24008		9.617209	-0.863886	0.697047	-0.288501	-0.087868	0.021022	-0.611572	0.535400	0.225342	0.385853	-0.602190	-0.327151	-0.617622
24009		9.389998	-1.037119	0.691362	-0.222425	-0.104379	0.003692	-0.607178	0.535400	0.227539	0.383776	-0.604146	-0.325869	-0.617684
24010		9.536311	-0.481682	0.727207	-0.231455	-0.122888	0.003733	-0.611328	0.529053	0.227783	0.381557	-0.606282	-0.324606	-0.617630
24011		9.641021	-0.364680	0.476870	-0.231207	-0.124028	-0.003102	-0.611328	0.526855	0.240967	0.379275	-0.608382	-0.323399	-0.617604
24012		9.407128	-0.876978	-0.060734	-0.128792	-0.096322	-0.025373	-0.609131	0.526855	0.241211	0.377697	-0.609696	-0.323003	-0.617483
24013		9.336199	-0.988982	0.002965	-0.089665	-0.064684	-0.042863	-0.609131	0.524902	0.247803	0.376416	-0.610506	-0.322901	-0.617517
24014		9.551556	-0.699541	0.130970	-0.092213	-0.034110	-0.056494	-0.604980	0.527100	0.247803	0.375126	-0.611042	-0.322731	-0.617862
24015		9.499898	-0.454158	0.163060	-0.058283	-0.002964	-0.063741	-0.611084	0.522705	0.245605	0.374175	-0.611150	-0.322740	-0.618326
24016		9.380267	-0.368231	0.574979	-0.003394	0.000063	-0.068479	-0.615479	0.520508	0.245605	0.373615	-0.610950	-0.323200	-0.618623
24017		9.369535	-0.293223	0.857472	-0.061804	-0.025704	-0.053938	-0.606934	0.520752	0.245850	0.372614	-0.611276	-0.323214	-0.618896
24018		9.500330	-0.432735	0.564053	-0.124032	-0.049650	-0.043107	-0.606934	0.520752	0.250244	0.371132	-0.612126	-0.322779	-0.619174
24019		9.395750	-0.285901	0.477222	-0.087395	-0.060523	-0.038810	-0.611084	0.518555	0.256836	0.369917	-0.612909	-0.322642	-0.619198
24020		9.526647	-0.306961	0.605237	-0.065849	-0.068089	-0.034794	-0.608887	0.518555	0.254639	0.368857	-0.613668	-0.322664	-0.619067
24021		9.667828	-0.338328	0.348084	-0.129795	-0.067376	-0.023602	-0.611084	0.518555	0.256836	0.367404	-0.614755	-0.322111	-0.619140
24022		9.491531	-0.546890	-0.065942	-0.105036	-0.042542	-0.023658	-0.608887	0.516357	0.259033	0.366240	-0.615533	-0.321639	-0.619303
24023		9.442849	-0.588386	0.054289	-0.069582	-0.013645	-0.034912	-0.604492	0.516357	0.261475	0.365378	-0.615879	-0.321395	-0.619594
24024		9.472188	-0.540663	0.449734	-0.046687	-0.003311	-0.040601	-0.610840	0.514160	0.263672	0.364691	-0.616025	-0.321325	-0.619891
24025		9.500763	-0.262144	0.490102	-0.092260	-0.010187	-0.034831	-0.608643	0.507812	0.266113	0.363662	-0.616449	-0.320881	-0.620303
24026		9.396240	-0.270099	0.284616	-0.065323	-0.010164	-0.034733	-0.608887	0.514160	0.268066	0.362833	-0.616753	-0.320635	-0.620614
24027		9.406679	-0.214288	0.428870	-0.078716	-0.012986	-0.029594	-0.613037	0.510010	0.263672	0.361938	-0.617162	-0.320269	-0.620918
24028		9.498753	-0.396378	0.435649	-0.113462	-0.019115	-0.020293	-0.612793	0.503662	0.266113	0.360825	-0.617800	-0.319595	-0.621279
24029		9.486741	-0.422819	0.362833	-0.077275	-0.023889	-0.020927	-0.608643	0.505859	0.272705	0.359957	-0.618306	-0.319217	-0.621473
24030		9.435570	-0.320766	0.335496	-0.052794	-0.028964	-0.018170	-0.614990	0.507812	0.274902	0.359277	-0.618766	-0.319025	-0.621508
24031		9.490873	-0.201437	0.292669	-0.069507	-0.029581	-0.014014	-0.608398	0.497314	0.268799	0.358496	-0.619317	-0.318673	-0.621590
24032		9.429636	-0.401196	0.048909	-0.039976	-0.014332	-0.014541	-0.606445	0.503662	0.277344	0.358003	-0.619605	-0.318491	-0.621681
24033		9.430862	-0.384324	0.187745	-0.022709	-0.000886	-0.021222	-0.608643	0.507812	0.277100	0.357642	-0.619702	-0.318429	-0.621824
24034		9.481428	-0.346257	0.229733	-0.025708	0.008410	-0.022039	-0.614990	0.503662	0.270508	0.357295	-0.619736	-0.318318	-0.622045
24035		9.386001	-0.268030	0.326620	0.014808	0.008148	-0.023662	-0.610596	0.499512	0.275146	0.357254	-0.619565	-0.318546	-0.622123
24036		9.451758	-0.195469	0.355254	-0.006815	0.002682	-0.018130	-0.616943	0.503662	0.274902	0.357053	-0.619566	-0.318568	-0.622227
24037		9.462673	-0.266187	0.272969	-0.004871	0.001440	-0.013093	-0.606201	0.501709	0.268555	0.356905	-0.619582	-0.318579	-0.622289
24038		9.428291	-0.266697	0.322562	0.016335	0.001160	-0.011048	-0.612793	0.505859	0.268311	0.356954	-0.619514	-0.318762	-0.622235
24039		9.443024	-0.239141	0.381068	-0.003805	-0.001530	-0.005528	-0.617188	0.507812	0.270508	0.356883	-0.619573	-0.318762	-0.622217
24040		9.433736	-0.320164	0.296541	0.012296	-0.004140	-0.006309	-0.606445	0.508057	0.270508	0.356916	-0.619577	-0.318901	-0.622123
24041		9.422181	-0.313901	0.301355	0.010887	-0.004519	-0.005963	-0.610596	0.503662	0.272949	0.356947	-0.619604	-0.319038	-0.622009
24042		9.444697	-0.273650	0.297315	0.013693	-0.005426	-0.007159	-0.612793	0.501465	0.275146	0.356970	-0.619618	-0.319188	-0.621904
24043		9.461292	-0.268515	0.310218	0.007066	-0.002347	-0.003412	-0.606445	0.503662	0.279541	0.356972	-0.619653	-0.319230	-0.621847
24044		9.423650	-0.340511	0.326721	0.006899	-0.002668	-0.005598	-0.610596	0.501465	0.270752	0.356954	-0.619699	-0.319289	-0.621781
24045		9.430047	-0.239321	0.421955	-0.007039	-0.007510	-0.003651	-0.610596	0.501465	0.279541	0.356836	-0.619829	-0.319262	-0.621733
24046		9.472989	-0.283634	0.228251	-0.016071	-0.007767	0.000114	-0.610840	0.507812	0.274902	0.356657	-0.620033	-0.319111	-0.621709
24047		9.398595	-0.259327	0.205537	0.007055	-0.004264	-0.000722	-0.610596	0.499512	0.268555	0.356689	-0.620096	-0.319164	-0.621601
24048		9.446750	-0.256699	0.250411	0.006869	-0.000615	0.001971	-0.612793	0.501465	0.275146	0.356753	-0.620126	-0.319175	-0.621529
24049		9.442676	-0.313632	0.223093	0.008647	0.005896	0.001115	-0.610596	0.501465	0.272949	0.356836	-0.620105	-0.319160	-0.621510
24050		9.443539	-0.313775	0.293148	0.019695	0.007577	-0.000476	-0.612793	0.507812	0.272705	0.357006	-0.620013	-0.319245	-0.621460
24051		9.461961	-0.318868	0.336783	0.014891	0.008450	0.002249	-0.610596	0.505859	0.283691	0.357176	-0.619947	-0.319284	-0.621409
24052		9.438045	-0.257719	0.322067	0.003558	0.004698	0.005189	-0.610596	0.505859	0.272705	0.357234	-0.619997	-0.319189	-0.621374
24053		9.404834	-0.231888	0.299934	0.012595	0.004430	0.007822	-0.610596	0.505859	0.268311	0.357409	-0.619996	-0.319180	-0.621279
24054		9.490860	-0.297656	0.312370	0.020057	0.003461	0.008617	-0.604248	0.505859	0.272705	0.357655	-0.619963	-0.319240	-0.621140
24055		9.453631	-0.364243	0.258100	0.009899	0.004911	0.011374	-0.608643	0.507812	0.274902	0.357842	-0.619993	-0.319185	-0.621031
24056		9.425684	-0.313332	0.291936	0.010610	0.006053	0.009854	-0.606445	0.505859	0.274902	0.358021	-0.620004	-0.319135	-0.620942
24057		9.413201	-0.332582	0.299449	0.006787	0.008489	0.009201	-0.612793	0.503662	0.272949	0.358172	-0.620012	-0.319045	-0.620893
24058		9.464416	-0.275362	0.306371	0.007486	0.007717	0.010377	-0.608643	0.507812	0.274902	0.358325	-0.620015	-0.318942	-0.620855
24059		9.411742	-0.341919	0.271555	0.000100	0.010834	0.013109	-0.614990	0.507812	0.272705	0.358464	-0.620048	-0.318760	-0.620835
24060		9.436389	-0.367196	0.326685	0.018373	0.008793	0.009810	-0.614990	0.507812	0.268311	0.358708	-0.619990	-0.318751	-0.620757
24061		9.433602	-0.382396	0.300836	0.004940	0.007376	0.009216	-0.606445	0.508057	0.272705	0.358848	-0.619990	-0.318661	-0.620722
24062		9.442441	-0.297637	0.281851	0.007563	0.010110	0.010712	-0.606445	0.510010	0.268311	0.359028	-0.619984	-0.318566	-0.620672
24063		9.438532	-0.408755	0.284527	0.016602	0.010334	0.006961	-0.608643	0.507812	0.270508	0.359267	-0.619911	-0.318590	-0.620594
24064		9.419635	-0.374568	0.285931	0.017635	0.010714	0.006115	-0.610840	0.510010	0.268311	0.359492	-0.619830	-0.318605	-0.620538
24065		9.392882	-0.331173	0.280472	0.022671	0.010884	0.005418	-0.606689	0.512207	0.268066	0.359759	-0.619715	-0.318674	-0.620463
24066		9.455393	-0.351838	0.310852	0.017502	0.013697	0.004933	-0.608643	0.510010	0.272705	0.360006	-0.619605	-0.318709	-0.620411
24067		9.483792	-0.349778	0.286316	0.012058	0.016102	0.006299	-0.614990	0.510010	0.268066	0.360205	-0.619514	-0.318650	-0.620416
24068		9.417956	-0.383732	0.267304	0.011848	0.016688	0.004785	-0.606445	0.508057	0.266113	0.360396	-0.619396	-0.318600	-0.620450
24069		9.433839	-0.384836	0.321450	0.020239	0.016498	0.002396	-0.610840	0.512207	0.270264	0.360641	-0.619238	-0.318647	-0.620440
24070		9.463921	-0.342698	0.401694	0.013895	0.015534	0.005792	-0.606445	0.505859	0.272705	0.360855	-0.619136	-0.318617	-0.620433
24071		9.425916	-0.395132	0.354034	0.008997	0.012626	0.004473	-0.608398	0.503662	0.275146	0.360984	-0.619085	-0.318540	-0.620449
24072		9.444587	-0.326662	0.370311	0.018826	0.009981	0.003776	-0.613037	0.512207	0.270264	0.361153	-0.619010	-0.318532	-0.620429
24073		9.417298	-0.388177	0.283551	0.013588	0.005925	0.004482	-0.606689	0.512207	0.268066	0.361308	-0.618976	-0.318543	-0.620367
24074		9.427847	-0.401898	0.352225	0.014961	0.007453	0.001611	-0.608643	0.512207	0.268066	0.361472	-0.618917	-0.318598	-0.620302
24075		9.478157	-0.417317	0.319272	0.007030	0.010284	0.001624	-0.610840	0.512207	0.265869	0.361582	-0.618869	-0.318573	-0.620299
24076		9.426393	-0.424398	0.288942	0.006189	0.012382	-0.001243	-0.604248	0.508057	0.268311	0.361674	-0.618789	-0.318558	-0.620333
24077		9.434498	-0.310390	0.347032	0.007980	0.012735	-0.001080	-0.610840	0.507812	0.268311	0.361769	-0.618713	-0.318537	-0.620364
24078		9.462960	-0.411989	0.309969	0.002880	0.011827	-0.000222	-0.611084	0.518555	0.267822	0.361815	-0.618663	-0.318458	-0.620428
24079		9.439200	-0.423415	0.392405	0.006661	0.010540	-0.002077	-0.606445	0.510010	0.270508	0.361912	-0.618598	-0.318481	-0.620424
24080		9.449652	-0.414589	0.324927	0.007033	0.009119	-0.005270	-0.606689	0.516357	0.265869	0.361947	-0.618543	-0.318494	-0.620452
24081		9.423270	-0.386007	0.350589	0.005983	0.007084	-0.004922	-0.608887	0.514160	0.268066	0.362008	-0.618498	-0.318555	-0.620430
24082		9.429770	-0.349884	0.403328	0.005627	0.004281	-0.003395	-0.608643	0.510010	0.272705	0.362047	-0.618485	-0.318589	-0.620403
24083		9.481014	-0.342524	0.368874	0.004407	0.001673	-0.002035	-0.604492	0.510010	0.268311	0.362046	-0.618515	-0.318575	-0.620380
24084		9.454806	-0.450963	0.272771	0.006808	0.003330	-0.002551	-0.610840	0.507812	0.266113	0.362086	-0.618514	-0.318603	-0.620344
24085		9.424424	-0.409395	0.278415	0.007691	0.009505	-0.006619	-0.604492	0.510010	0.263916	0.362113	-0.618429	-0.318626	-0.620401
24086		9.452350	-0.426202	0.253514	0.012299	0.015057	-0.008669	-0.606445	0.510010	0.270508	0.362209	-0.618276	-0.318709	-0.620455
24087		9.446475	-0.353051	0.354781	0.015750	0.018741	-0.009530	-0.608643	0.510010	0.266113	0.362313	-0.618092	-0.318775	-0.620543
24088		9.466160	-0.364293	0.428868	0.010685	0.016676	-0.006147	-0.610596	0.505859	0.263916	0.362407	-0.617946	-0.318799	-0.620622
24089		9.465326	-0.384591	0.432079	0.007084	0.008192	-0.005935	-0.606445	0.508057	0.266113	0.362425	-0.617873	-0.318814	-0.620675
24090		9.437617	-0.378995	0.321031	-0.002133	0.007675	-0.004411	-0.610840	0.507812	0.263916	0.362392	-0.617866	-0.318759	-0.620730
24091		9.443734	-0.378629	0.302497	-0.010210	0.013241	-0.002412	-0.606445	0.503662	0.268555	0.362333	-0.617847	-0.318601	-0.620865
24092		9.457838	-0.386906	0.360364	-0.003790	0.016332	-0.002260	-0.606689	0.516357	0.265869	0.362309	-0.617796	-0.318443	-0.621011
24093		9.445436	-0.367855	0.441485	-0.001411	0.010214	-0.002233	-0.608643	0.512207	0.265869	0.362345	-0.617776	-0.318409	-0.621028
24094		9.481852	-0.356250	0.390075	-0.007858	0.005223	0.000315	-0.610840	0.512207	0.263672	0.362309	-0.617829	-0.318302	-0.621050
24095		9.437388	-0.394276	0.364889	-0.002893	0.002989	-0.000686	-0.608643	0.512207	0.265869	0.362300	-0.617862	-0.318259	-0.621044
24096		9.451387	-0.350777	0.391636	-0.003442	0.002429	-0.000178	-0.604492	0.510010	0.266113	0.362284	-0.617914	-0.318204	-0.621030
24097		9.464528	-0.417642	0.306203	-0.014812	0.003220	0.001166	-0.606689	0.512207	0.265869	0.362191	-0.618024	-0.318042	-0.621058
24098		9.441900	-0.368599	0.354452	-0.000040	0.007028	-0.000364	-0.606689	0.514404	0.263672	0.362223	-0.618026	-0.318000	-0.621059
24099		9.439610	-0.434001	0.356320	-0.003743	0.004835	-0.000356	-0.608643	0.510010	0.261719	0.362238	-0.618054	-0.317962	-0.621042
24100		9.474644	-0.395233	0.380737	-0.000161	0.004135	-0.003719	-0.613037	0.510010	0.270264	0.362232	-0.618049	-0.317961	-0.621051
24101		9.466064	-0.407522	0.374905	-0.000492	0.004644	-0.001196	-0.606689	0.516357	0.268066	0.362203	-0.618072	-0.317883	-0.621085
24102		9.450415	-0.389249	0.361511	0.001208	0.000951	-0.001855	-0.608643	0.510010	0.268311	0.362222	-0.618115	-0.317903	-0.621020
24103		9.424735	-0.427399	0.341279	0.003060	0.002047	-0.001859	-0.606689	0.512207	0.263672	0.362222	-0.618140	-0.317889	-0.621003
24104		9.459117	-0.427481	0.397593	0.000202	0.002470	-0.003712	-0.610840	0.507812	0.263916	0.362220	-0.618154	-0.317907	-0.620981
24105		9.471518	-0.357015	0.432414	-0.005387	0.001745	-0.002533	-0.610840	0.510010	0.265869	0.362149	-0.618199	-0.317837	-0.621014
24106		9.472304	-0.405064	0.356200	-0.005401	0.000092	-0.003031	-0.608643	0.508057	0.261719	0.362072	-0.618259	-0.317784	-0.621026
24107		9.443572	-0.407403	0.383553	0.001705	-0.005101	-0.004356	-0.613037	0.514160	0.268066	0.362031	-0.618312	-0.317835	-0.620971
24108		9.423354	-0.379432	0.384867	0.002994	-0.006218	-0.004352	-0.604248	0.508057	0.266113	0.361994	-0.618380	-0.317897	-0.620893
24109		9.446797	-0.423387	0.300104	-0.001325	-0.005252	-0.005197	-0.608643	0.510010	0.263916	0.361914	-0.618466	-0.317919	-0.620843
24110		9.450067	-0.404145	0.359140	0.002234	-0.001733	-0.006893	-0.606689	0.512207	0.265869	0.361875	-0.618485	-0.317982	-0.620815
24111		9.453179	-0.403051	0.314294	-0.004521	0.000140	-0.006059	-0.610840	0.512207	0.270264	0.361806	-0.618532	-0.317987	-0.620805
24112		9.433736	-0.369955	0.349075	0.004696	0.000666	-0.007575	-0.613037	0.510010	0.270264	0.361772	-0.618535	-0.318040	-0.620794
24113		9.441642	-0.376951	0.356177	0.005232	-0.000428	-0.008580	-0.606445	0.510010	0.270508	0.361712	-0.618538	-0.318091	-0.620800
24114		9.458212	-0.406172	0.365697	0.000323	-0.003574	-0.006717	-0.610840	0.507812	0.261719	0.361630	-0.618607	-0.318118	-0.620766
24115		9.468244	-0.366040	0.335505	-0.000750	-0.001388	-0.004706	-0.606445	0.508057	0.266113	0.361583	-0.618631	-0.318140	-0.620758
24116		9.428510	-0.377185	0.296309	-0.001347	-0.001036	-0.003530	-0.608643	0.512207	0.259277	0.361534	-0.618684	-0.318132	-0.620738
24117		9.457572	-0.372199	0.404956	0.003533	0.000213	-0.002693	-0.606445	0.510010	0.268311	0.361587	-0.618676	-0.318216	-0.620672
24118		9.479583	-0.424925	0.394050	-0.002981	-0.001064	-0.001510	-0.604492	0.516357	0.268066	0.361541	-0.618751	-0.318181	-0.620642
24119		9.441104	-0.393569	0.286118	-0.003906	-0.001613	-0.001508	-0.610840	0.510010	0.272705	0.361533	-0.618833	-0.318192	-0.620559
24120		9.430967	-0.361973	0.323117	0.001073	-0.002187	-0.002011	-0.608643	0.507812	0.268311	0.361481	-0.618904	-0.318162	-0.620534
24121		9.472543	-0.393397	0.385306	-0.005346	-0.003878	0.001530	-0.606445	0.510010	0.268311	0.361411	-0.619019	-0.318078	-0.620503
24122		9.431182	-0.344424	0.425471	-0.014807	-0.007376	0.003733	-0.608643	0.510010	0.270508	0.361291	-0.619214	-0.317942	-0.620448
24123		9.441277	-0.359310	0.352992	-0.011569	-0.015337	0.003426	-0.611084	0.518555	0.270020	0.361148	-0.619458	-0.317852	-0.620334
24124		9.482161	-0.449222	0.340092	-0.004206	-0.014497	0.005608	-0.604492	0.514404	0.263672	0.361136	-0.619657	-0.317860	-0.620138
24125		9.470873	-0.476620	0.166049	-0.002764	-0.007523	-0.002159	-0.606689	0.512207	0.265869	0.361123	-0.619753	-0.317932	-0.620013
24126		9.404632	-0.442816	0.186794	0.011385	0.005587	-0.005582	-0.606689	0.516357	0.265869	0.361214	-0.619674	-0.318048	-0.619979
24127		9.421476	-0.436046	0.339426	0.017182	0.010439	-0.009978	-0.604492	0.514404	0.270264	0.361365	-0.619511	-0.318253	-0.619948
24128		9.444996	-0.389859	0.438928	0.015260	0.006940	-0.010298	-0.606445	0.505859	0.270508	0.361456	-0.619406	-0.318424	-0.619913
24129		9.465788	-0.358327	0.372570	-0.001272	-0.000054	-0.006898	-0.604492	0.512207	0.270264	0.361343	-0.619451	-0.318393	-0.619950
24130		9.458833	-0.361159	0.360982	0.007187	-0.004206	-0.004697	-0.608643	0.510010	0.270508	0.361354	-0.619493	-0.318490	-0.619852
24131		9.478571	-0.426629	0.321239	0.001538	-0.005678	-0.003342	-0.612793	0.505859	0.272705	0.361297	-0.619573	-0.318509	-0.619795
24132		9.436515	-0.433004	0.289864	0.005861	-0.001937	-0.007229	-0.608643	0.510010	0.268311	0.361206	-0.619593	-0.318519	-0.619823
24133		9.403697	-0.386352	0.302127	0.002099	0.001239	-0.008082	-0.604492	0.514404	0.270264	0.361156	-0.619588	-0.318565	-0.619833
24134		9.432502	-0.381233	0.274498	0.003401	0.001777	-0.007580	-0.608643	0.512207	0.268066	0.361157	-0.619587	-0.318648	-0.619791
24135		9.473182	-0.380367	0.310137	0.008951	0.005074	-0.007596	-0.604492	0.510010	0.268311	0.361198	-0.619520	-0.318747	-0.619784
24136		9.442130	-0.395042	0.311429	0.010182	0.003215	-0.007420	-0.606445	0.508057	0.263916	0.361235	-0.619473	-0.318851	-0.619754
24137		9.446862	-0.384454	0.331659	0.013263	0.002455	-0.007248	-0.608643	0.512207	0.265869	0.361295	-0.619401	-0.318988	-0.619721
24138		9.440730	-0.382403	0.353080	0.012107	0.000591	-0.006061	-0.610840	0.510010	0.268311	0.361365	-0.619353	-0.319132	-0.619654
24139		9.441650	-0.393961	0.348702	0.011966	-0.004204	-0.006710	-0.606689	0.514404	0.265869	0.361372	-0.619349	-0.319261	-0.619588
24140		9.448567	-0.389090	0.290676	0.007031	-0.003127	-0.003182	-0.608643	0.512207	0.268066	0.361433	-0.619365	-0.319383	-0.619474
24141		9.438613	-0.409437	0.287858	0.013947	0.000031	-0.006563	-0.608643	0.512207	0.265869	0.361498	-0.619320	-0.319532	-0.619404
24142		9.452700	-0.381696	0.346303	0.004679	0.000414	-0.004376	-0.608643	0.510010	0.270508	0.361520	-0.619314	-0.319604	-0.619360
24143		9.434870	-0.357658	0.408418	0.000363	-0.004741	-0.004180	-0.613037	0.512207	0.270264	0.361447	-0.619390	-0.319614	-0.619321
24144		9.452216	-0.401739	0.344132	-0.003807	-0.011217	-0.002294	-0.602295	0.512207	0.268066	0.361341	-0.619529	-0.319619	-0.619242
24145		9.413395	-0.426513	0.298488	0.005778	-0.012355	-0.003805	-0.602295	0.510010	0.268311	0.361334	-0.619637	-0.319757	-0.619067
24146		9.458381	-0.418827	0.213793	-0.000889	-0.006196	-0.005348	-0.604492	0.510010	0.266113	0.361267	-0.619725	-0.319806	-0.618992
24147		9.451449	-0.421456	0.201739	0.009603	-0.002322	-0.008403	-0.608643	0.512207	0.265869	0.361280	-0.619709	-0.319953	-0.618925
24148		9.415193	-0.413100	0.291064	0.000367	0.001607	-0.008419	-0.606445	0.510010	0.268311	0.361246	-0.619692	-0.320023	-0.618925
24149		9.417023	-0.401380	0.355231	0.002042	-0.000941	-0.011601	-0.608887	0.516357	0.270264	0.361166	-0.619692	-0.320111	-0.618927
24150		9.437353	-0.408704	0.319669	-0.012454	-0.004612	-0.008713	-0.606689	0.512207	0.270264	0.361024	-0.619789	-0.320127	-0.618903
24151		9.423795	-0.358399	0.299987	-0.005624	-0.004084	-0.009224	-0.608643	0.512207	0.268066	0.360905	-0.619859	-0.320166	-0.618883
24152		9.444980	-0.361254	0.296151	-0.005624	-0.004085	-0.009224	-0.604492	0.512207	0.270264	0.360792	-0.619916	-0.320216	-0.618866
24153		9.449425	-0.460375	0.203180	0.000261	0.000356	-0.011270	-0.604492	0.510010	0.268311	0.360731	-0.619918	-0.320307	-0.618852
24154		9.429941	-0.407986	0.274694	0.003720	0.005940	-0.014833	-0.610840	0.510010	0.274902	0.360681	-0.619844	-0.320419	-0.618898
24155		9.439989	-0.383071	0.278893	-0.000011	0.007961	-0.013159	-0.608643	0.510010	0.272705	0.360575	-0.619793	-0.320423	-0.619009
24156		9.414895	-0.362047	0.263872	-0.000558	0.007399	-0.012651	-0.612793	0.507812	0.266113	0.360484	-0.619745	-0.320443	-0.619099
24157		9.452687	-0.377149	0.308874	0.001172	0.007016	-0.012313	-0.610840	0.510010	0.265869	0.360409	-0.619664	-0.320486	-0.619202
24158		9.449886	-0.409265	0.282993	0.000419	0.007032	-0.013321	-0.614990	0.507812	0.270508	0.360351	-0.619579	-0.320564	-0.619280
24159		9.402471	-0.335137	0.278681	-0.001850	0.008506	-0.012654	-0.613037	0.510010	0.270264	0.360231	-0.619513	-0.320550	-0.619424
24160		9.434688	-0.346052	0.308491	0.000952	0.007357	-0.010631	-0.602295	0.508057	0.268311	0.360175	-0.619448	-0.320579	-0.619505
24161		9.453803	-0.378994	0.311949	0.000464	0.007537	-0.010295	-0.604492	0.512207	0.274658	0.360142	-0.619403	-0.320623	-0.619547
24162		9.451570	-0.390031	0.286063	-0.002353	0.008451	-0.009122	-0.606445	0.510010	0.270508	0.360104	-0.619382	-0.320627	-0.619588
24163		9.435124	-0.374096	0.310462	0.004047	0.009914	-0.009465	-0.608887	0.514160	0.272461	0.360113	-0.619303	-0.320678	-0.619636
24164		9.438307	-0.371738	0.336216	0.002948	0.007137	-0.008946	-0.606445	0.508057	0.270508	0.360132	-0.619247	-0.320754	-0.619641
24165		9.437033	-0.321518	0.345212	-0.001843	0.002154	-0.008417	-0.610840	0.507812	0.270508	0.360052	-0.619264	-0.320765	-0.619665
24166		9.477555	-0.321348	0.312016	-0.010966	0.001200	-0.004549	-0.610840	0.507812	0.274902	0.359915	-0.619335	-0.320668	-0.619724
24167		9.524250	-0.378456	0.322528	-0.012166	0.001907	-0.002199	-0.606445	0.505859	0.272705	0.359768	-0.619434	-0.320513	-0.619790
24168		9.497882	-0.310908	0.381908	-0.022069	-0.000974	-0.006053	-0.610840	0.507812	0.272705	0.359510	-0.619586	-0.320332	-0.619882
24169		9.499172	-0.358575	0.304745	-0.078605	-0.002545	-0.006555	-0.606689	0.512207	0.272461	0.358815	-0.619986	-0.319739	-0.620190
24170		9.446743	-0.464748	0.267265	-0.052053	0.002677	-0.014796	-0.612793	0.503662	0.272949	0.358352	-0.620187	-0.319463	-0.620400
24171		9.357742	-0.414178	0.399346	-0.074092	0.000214	-0.024520	-0.614990	0.507812	0.277100	0.357535	-0.620468	-0.319005	-0.620825
24172		9.339524	-0.443871	0.251990	-0.123797	0.000146	-0.027997	-0.614990	0.505859	0.272705	0.356333	-0.620957	-0.318214	-0.621433
24173		9.335039	-0.388636	0.100188	-0.147624	0.014324	-0.038344	-0.606445	0.508057	0.279297	0.354950	-0.621373	-0.317293	-0.622280
24174		9.381525	-0.441075	0.081626	-0.159366	0.033594	-0.046794	-0.612793	0.501465	0.277344	0.353521	-0.621689	-0.316283	-0.623290
24175		9.438365	-0.583003	0.128803	-0.114955	0.047596	-0.061169	-0.612793	0.503662	0.277344	0.352333	-0.621623	-0.315630	-0.624359
24176		9.427491	-0.406685	0.223998	-0.097946	0.059430	-0.072656	-0.612549	0.499512	0.283936	0.351283	-0.621332	-0.315196	-0.625458
24177		9.433940	-0.311299	0.290667	-0.098534	0.067366	-0.081277	-0.614502	0.493164	0.279785	0.350135	-0.620983	-0.314723	-0.626686
24178		9.426751	-0.256205	0.501630	-0.142744	0.079823	-0.086976	-0.616699	0.495117	0.281982	0.348622	-0.620693	-0.313872	-0.628242
24179		9.396752	-0.797437	0.350077	-0.199650	0.082510	-0.087860	-0.618896	0.490967	0.284424	0.346704	-0.620618	-0.312601	-0.630008
24180		9.361755	-0.636163	0.590840	-0.244176	0.086618	-0.123060	-0.620605	0.482422	0.282471	0.344152	-0.620567	-0.311205	-0.632145
24181		9.446117	-0.372091	-0.144596	-0.368715	0.104887	-0.125930	-0.618652	0.484619	0.289062	0.340644	-0.620878	-0.308733	-0.634946
24182		9.155234	0.460888	-0.125484	-0.209625	0.151784	-0.138416	-0.622559	0.471924	0.282959	0.338510	-0.620092	-0.307474	-0.637461
24183		9.338731	0.717287	-0.011252	-0.177937	0.179244	-0.100546	-0.620361	0.474121	0.284912	0.336961	-0.619075	-0.306001	-0.639975
24184		9.747043	0.528335	0.062353	-0.034174	0.214593	-0.076307	-0.620361	0.474121	0.282715	0.336905	-0.617267	-0.305391	-0.642038
24185		9.654726	0.237528	0.352435	-0.029271	0.233470	-0.042404	-0.628906	0.471924	0.278320	0.337246	-0.615418	-0.304496	-0.644056
24186		9.620220	0.634166	0.364525	-0.030428	0.242629	-0.004277	-0.628906	0.469727	0.278564	0.337891	-0.613621	-0.303238	-0.646023
24187		9.689969	0.305450	0.744751	0.043478	0.242949	0.025681	-0.631104	0.478027	0.271484	0.339305	-0.611642	-0.302302	-0.647595
24188		9.632963	0.308380	0.833754	0.097151	0.223501	0.053955	-0.631104	0.478027	0.267090	0.341380	-0.609664	-0.301765	-0.648619
24189		9.535628	0.303713	1.175633	0.149564	0.198578	0.074860	-0.633301	0.478027	0.262695	0.343911	-0.607743	-0.301582	-0.649170
24190		9.511973	0.100765	1.377827	0.115506	0.149568	0.100053	-0.626953	0.482422	0.256104	0.346166	-0.606458	-0.301105	-0.649395
24191		9.570307	0.579093	1.199182	0.108922	0.105736	0.132539	-0.635742	0.484375	0.249268	0.348528	-0.605668	-0.300574	-0.649114
24192		9.624353	0.325207	0.777896	0.082024	0.094018	0.176124	-0.629395	0.486572	0.247070	0.350972	-0.605213	-0.299532	-0.648704
24193		9.641826	0.177309	0.436281	0.198275	0.105773	0.195431	-0.627441	0.495117	0.244385	0.354493	-0.604232	-0.299232	-0.647842
24194		9.783969	0.401455	0.686267	0.188980	0.124817	0.249819	-0.625244	0.497314	0.239990	0.358494	-0.603329	-0.298399	-0.646864
24195		9.852987	0.619393	1.135031	0.294501	0.111433	0.306808	-0.623535	0.510010	0.237305	0.363656	-0.602266	-0.298009	-0.645151
24196		10.020537	0.861479	2.093309	0.437671	0.032350	0.401165	-0.617432	0.518555	0.228271	0.370402	-0.601511	-0.298463	-0.641800
24197		9.893876	0.736984	3.370392	0.591961	-0.147875	0.497733	-0.607178	0.533447	0.225342	0.378397	-0.601789	-0.300258	-0.636012
24198		9.727551	1.001991	4.718305	0.621325	-0.445340	0.612374	-0.601318	0.552490	0.224609	0.386409	-0.604650	-0.302833	-0.627200
24199		9.602193	0.416485	3.898634	0.464895	-0.761229	0.681520	-0.588623	0.556641	0.231201	0.392571	-0.610868	-0.305188	-0.616107
24200		10.114128	-0.568405	1.968207	0.266342	-0.976470	0.601770	-0.576172	0.569580	0.243896	0.395561	-0.619317	-0.307482	-0.604510
24201		9.204891	-1.000579	-2.210985	0.519077	-1.036105	0.230415	-0.572510	0.582275	0.247803	0.397403	-0.625395	-0.314809	-0.593167
24202		9.121577	0.000280	-4.198039	1.665275	-1.069864	-0.489215	-0.576904	0.590576	0.238770	0.402638	-0.622866	-0.336389	-0.580313
24203		9.018994	2.494803	-3.068905	1.461327	-1.125750	-0.640444	-0.574707	0.588623	0.232178	0.404766	-0.620688	-0.357833	-0.568214
24204		8.497743	2.043106	-2.061388	0.382958	-1.031972	-0.689555	-0.583008	0.580078	0.252197	0.398439	-0.622794	-0.371403	-0.561634
24205		8.275135	0.581902	-2.162221	-0.625838	-0.885174	-0.665060	-0.593506	0.569336	0.270264	0.384944	-0.628866	-0.376823	-0.560669
24206		8.039204	-1.024540	-2.200129	-1.142412	-0.603394	-0.541908	-0.597412	0.556641	0.290527	0.369501	-0.635805	-0.376249	-0.563611
24207		8.106364	-1.486240	-1.860603	-0.997929	-0.270477	-0.372166	-0.605469	0.543945	0.310791	0.357888	-0.640374	-0.373726	-0.567596
24208		8.278207	-2.577483	-1.461731	-0.956170	0.042988	-0.332964	-0.607422	0.537598	0.322021	0.348159	-0.642690	-0.369569	-0.573719
24209		8.369162	-3.718081	-0.937386	-0.604513	0.323540	-0.461533	-0.613525	0.529053	0.318115	0.341518	-0.640844	-0.367610	-0.580989
24210		8.717037	-2.804494	-0.351424	-0.210516	0.533230	-0.559032	-0.630371	0.522461	0.309326	0.338209	-0.635308	-0.368300	-0.588518
24211		8.992032	-2.796579	-0.257138	-0.079566	0.697598	-0.587286	-0.647217	0.511719	0.298828	0.336443	-0.627813	-0.369424	-0.596810
24212		9.509880	-1.779726	0.047509	0.034704	0.806679	-0.611978	-0.657715	0.507568	0.285645	0.335845	-0.618822	-0.371073	-0.605452
24213		9.593800	-4.452535	-0.397863	0.296989	0.710190	-0.481981	-0.674561	0.500977	0.270264	0.337764	-0.609976	-0.374047	-0.611502
24214		10.782092	-3.191766	0.910454	1.054183	0.432523	-0.311009	-0.672607	0.505371	0.250488	0.345407	-0.600753	-0.382601	-0.611069
24215		11.120669	0.476059	2.787100	-0.213261	0.332888	-0.076535	-0.678955	0.503174	0.246094	0.344805	-0.598816	-0.380086	-0.614869
24216		9.753645	-0.326589	0.478327	-0.375285	0.257460	-0.101665	-0.685303	0.498779	0.250488	0.342425	-0.598020	-0.376817	-0.618972
24217		8.441560	2.324580	0.138316	0.281988	0.209906	-0.216443	-0.676514	0.494629	0.239746	0.343836	-0.594220	-0.379680	-0.620099
24218		8.283977	1.182062	0.225138	-0.217233	0.196029	-0.135400	-0.680908	0.492432	0.241943	0.342094	-0.593045	-0.378126	-0.623129
24219		9.726969	0.447529	0.726407	-0.163206	0.186034	-0.160585	-0.684814	0.486084	0.244385	0.340505	-0.591589	-0.377218	-0.625928
24220		10.158562	0.209073	0.682743	-0.379118	0.171072	-0.140393	-0.684814	0.486084	0.242188	0.337397	-0.591251	-0.374524	-0.629537
24221		9.645973	1.683406	1.237825	-0.181554	0.077521	-0.103859	-0.688965	0.481934	0.242432	0.335593	-0.590976	-0.373500	-0.631365
24222		9.798662	1.334824	0.117015	-0.146595	-0.000074	-0.032964	-0.680420	0.481934	0.244629	0.334242	-0.591494	-0.372550	-0.632158
24223		9.842350	0.970837	-0.293451	0.025090	0.014481	0.010279	-0.684814	0.479736	0.247070	0.334569	-0.591380	-0.372576	-0.632076
24224		9.834011	0.548806	-0.399156	-0.015722	0.059656	0.045466	-0.684814	0.481934	0.244629	0.335082	-0.591243	-0.371834	-0.632369
24225		9.440146	0.997057	-0.400033	-0.005228	0.118788	0.048869	-0.686768	0.481934	0.238037	0.335976	-0.590610	-0.370903	-0.633034
24226		9.201800	0.766546	-0.134651	-0.007922	0.171306	0.043245	-0.691406	0.486084	0.237793	0.337048	-0.589543	-0.369773	-0.634118
24227		9.201976	1.244530	0.265589	-0.232210	0.205667	0.028260	-0.693359	0.481934	0.238037	0.336504	-0.589074	-0.366828	-0.636548
24228		9.365309	0.992380	0.281381	-0.282680	0.228461	0.057819	-0.688965	0.479736	0.240234	0.335923	-0.588761	-0.363164	-0.639241
24229		9.372524	0.954594	1.051129	-0.217474	0.192939	0.082147	-0.691162	0.479736	0.233643	0.335848	-0.588557	-0.359985	-0.641262
24230		9.565818	1.140262	1.314314	-0.357976	0.141668	0.119145	-0.693359	0.483887	0.242432	0.334799	-0.589508	-0.355614	-0.643372
24231		9.430778	0.726272	0.933128	-0.319072	0.083954	0.149618	-0.693359	0.481934	0.240234	0.334017	-0.590883	-0.351563	-0.644743
24232		9.533091	0.462982	0.804105	-0.284749	0.046309	0.149617	-0.691162	0.483887	0.242432	0.333316	-0.592406	-0.347938	-0.645674
24233		9.582751	0.374386	0.591438	-0.282943	0.025609	0.167326	-0.691162	0.481934	0.246826	0.332675	-0.594156	-0.344276	-0.646359
24234		9.524601	0.393031	1.063883	-0.192438	0.012140	0.149293	-0.691162	0.483887	0.251221	0.332498	-0.595553	-0.341530	-0.646621
24235		9.527259	-0.034311	0.112720	-0.249349	0.023532	0.142239	-0.687256	0.490479	0.253174	0.331885	-0.597057	-0.338323	-0.647235
24236		9.382142	0.071873	0.366265	-0.069062	0.037874	0.102022	-0.682861	0.490479	0.253174	0.332351	-0.597523	-0.336813	-0.647353
24237		9.650361	0.368183	0.710412	-0.136576	0.046987	0.093683	-0.687256	0.490479	0.248779	0.332282	-0.598158	-0.334780	-0.647856
24238		9.389853	0.214479	0.540689	0.005578	0.047750	0.070630	-0.685303	0.496826	0.250732	0.333092	-0.598098	-0.334066	-0.647864
24239		9.597775	0.805219	1.042866	-0.076262	0.036422	0.084487	-0.685059	0.494629	0.248535	0.333354	-0.598528	-0.332632	-0.648070
24240		9.393471	0.512609	0.522162	-0.035729	0.026755	0.088299	-0.680908	0.494629	0.250732	0.333909	-0.598882	-0.331537	-0.648019
24241		9.568101	0.254773	0.422923	0.005326	0.032921	0.087357	-0.683105	0.496826	0.255127	0.334789	-0.599010	-0.330756	-0.647846
24242		9.522660	0.516955	0.697723	0.048373	0.028085	0.112970	-0.683350	0.505127	0.250244	0.336178	-0.599101	-0.330152	-0.647350
24243		9.454483	1.057169	1.326206	0.012450	0.003900	0.121953	-0.685303	0.498779	0.248291	0.337271	-0.599574	-0.329291	-0.646782
24244		9.602489	0.506755	0.827532	-0.025021	-0.034678	0.151387	-0.681152	0.500977	0.248291	0.338159	-0.600636	-0.328068	-0.645954
24245		9.455040	0.165343	1.197703	0.080546	-0.060471	0.145818	-0.677002	0.507324	0.254639	0.339689	-0.601433	-0.327847	-0.644520
24246		9.626655	0.030802	0.102100	0.000085	-0.060103	0.168232	-0.677246	0.513672	0.245605	0.340793	-0.602659	-0.326804	-0.643321
24247		9.623103	0.617231	-0.140982	0.150808	-0.017254	0.178988	-0.679443	0.515869	0.247803	0.343292	-0.602937	-0.326709	-0.641778
24248		9.719569	0.496329	0.525357	0.039092	0.019568	0.208173	-0.670898	0.518066	0.250000	0.345332	-0.603514	-0.325340	-0.640836
24249		9.491324	0.152156	0.324415	0.024329	0.055213	0.216410	-0.671143	0.522217	0.249756	0.347468	-0.603898	-0.323636	-0.640182
24250		9.434460	0.293336	0.761952	0.041507	0.071141	0.208524	-0.669189	0.528564	0.247314	0.349734	-0.604042	-0.322058	-0.639607
24251		9.489391	-0.230544	0.375642	0.075921	0.080720	0.204125	-0.662842	0.534912	0.244873	0.352259	-0.603937	-0.320745	-0.638981
24252		9.453160	-0.581061	0.828160	0.112540	0.072632	0.194303	-0.665283	0.541260	0.240234	0.354948	-0.603691	-0.319831	-0.638183
24253		9.773639	-0.971415	0.258071	0.397748	0.065420	0.180642	-0.656738	0.545654	0.233398	0.359644	-0.602170	-0.321320	-0.636240
24254		9.689680	0.475180	1.203815	0.490480	0.056884	0.211804	-0.665283	0.547607	0.222412	0.365237	-0.600404	-0.323338	-0.633695
24255		9.705466	1.689639	1.821516	0.220619	0.019352	0.271012	-0.659180	0.553955	0.217773	0.369111	-0.600386	-0.322935	-0.631669
24256		9.670783	0.318533	1.185348	0.077111	-0.027473	0.337888	-0.657227	0.562500	0.226074	0.372239	-0.601658	-0.321107	-0.629552
24257		10.066493	-2.500805	0.253432	0.542723	-0.030057	0.304109	-0.653320	0.568848	0.214844	0.378577	-0.600624	-0.323196	-0.625680
24258		10.291299	0.154150	0.979352	0.662614	-0.008649	0.289411	-0.651367	0.579590	0.210205	0.385760	-0.598753	-0.326207	-0.621509
24259		10.057703	0.775158	-0.670069	0.240106	0.088990	0.324846	-0.647217	0.583740	0.201172	0.390433	-0.598274	-0.325182	-0.619586
24260		10.418548	-0.136833	-1.107511	0.369889	0.229493	0.288883	-0.645264	0.590088	0.192139	0.396357	-0.595905	-0.324742	-0.618337
24261		10.791104	-1.519880	-2.099586	0.627887	0.435979	0.150441	-0.647705	0.600586	0.169678	0.403946	-0.590060	-0.326289	-0.618217
24262		9.970508	-1.903005	-1.382815	0.949132	0.659011	-0.170619	-0.651855	0.598633	0.149902	0.412273	-0.579471	-0.331519	-0.619951
24263		9.108290	-1.453412	1.058590	1.393886	0.704652	-0.472317	-0.666748	0.596191	0.110352	0.421547	-0.564806	-0.342046	-0.621527
24264		8.355298	0.372874	2.886206	1.681490	0.479752	-0.652483	-0.677246	0.589844	0.077393	0.430289	-0.549334	-0.357098	-0.620938
24265		8.102575	1.571777	2.841689	1.512867	0.129172	-0.585832	-0.683350	0.583496	0.051270	0.436619	-0.537524	-0.372094	-0.618043
24266		7.257353	2.496684	1.049886	0.811470	-0.271916	-0.361459	-0.696045	0.577148	0.049316	0.437983	-0.533536	-0.382248	-0.614326
24267		8.251208	1.088279	1.051459	-0.535022	-0.483103	-0.020335	-0.694092	0.579102	0.069092	0.431930	-0.540111	-0.380907	-0.613699
24268		8.267926	-0.353942	1.804374	-1.191482	-0.259771	0.066232	-0.691895	0.581299	0.093018	0.423104	-0.548843	-0.372680	-0.617142
24269		8.297292	-0.890830	2.007920	-1.193542	-0.039670	0.031996	-0.698486	0.581299	0.106201	0.414928	-0.555603	-0.363420	-0.622146
24270		8.328411	0.279748	2.326606	-0.975494	0.042181	-0.140834	-0.700195	0.572754	0.117676	0.407214	-0.559707	-0.356559	-0.627511
24271		9.281131	-3.165817	2.083573	-0.269850	0.104626	-0.300107	-0.704590	0.572754	0.119873	0.403429	-0.558969	-0.355992	-0.630927
24272		11.500146	-3.856137	4.532471	1.074638	0.238365	-0.233733	-0.708740	0.574707	0.099854	0.410110	-0.550631	-0.364842	-0.628892
24273		12.743300	-5.789086	3.190708	-0.594517	-0.215649	0.225438	-0.702637	0.576904	0.113037	0.406783	-0.556441	-0.359673	-0.628916
24274		11.128063	-0.735726	1.455870	-0.189011	-0.237738	-0.004410	-0.700195	0.572754	0.119873	0.404352	-0.559309	-0.359372	-0.628112
24275		10.086101	2.188584	-0.549533	-0.259157	-0.138737	-0.053392	-0.702393	0.574951	0.126221	0.401485	-0.561527	-0.358356	-0.628553
24276		9.343774	-0.315760	-0.648419	-0.016444	-0.018180	-0.034533	-0.700195	0.570557	0.122070	0.401009	-0.561659	-0.358516	-0.628648
24277		8.940152	-2.261329	0.159381	0.013100	0.072677	-0.087890	-0.697998	0.570557	0.122070	0.400729	-0.560689	-0.358832	-0.629511
24278		8.944606	-1.851596	1.320173	0.143480	0.089931	-0.155919	-0.702148	0.568604	0.119873	0.400904	-0.558624	-0.360561	-0.630247
24279		9.299952	-0.426720	2.041358	0.142175	0.025079	-0.177504	-0.706543	0.568359	0.119873	0.400604	-0.556976	-0.362750	-0.630640
24280		9.385723	1.060767	1.694106	0.034009	-0.039047	-0.156380	-0.708496	0.566406	0.117920	0.399423	-0.556468	-0.364254	-0.630971
24281		9.668333	0.577718	1.278708	0.136108	-0.057851	-0.156096	-0.706299	0.560059	0.113770	0.398867	-0.555596	-0.366652	-0.630701
24282		10.224448	-0.236096	1.824179	0.102689	-0.092685	-0.125357	-0.704102	0.560059	0.118164	0.398158	-0.555303	-0.368746	-0.630186
24283		10.064699	0.043514	1.456327	-0.042800	-0.127086	-0.092010	-0.708252	0.555664	0.124756	0.396541	-0.556156	-0.369629	-0.629936
24284		9.860659	1.219682	0.736926	-0.064785	-0.128670	-0.054080	-0.708252	0.551514	0.127197	0.395061	-0.557305	-0.370081	-0.629586
24285		9.598095	0.644416	0.679445	-0.023208	-0.076116	-0.013660	-0.710449	0.555664	0.126953	0.394431	-0.558019	-0.370320	-0.629208
24286		9.698501	-0.412548	0.746294	-0.017849	-0.038484	0.004701	-0.708252	0.555664	0.133789	0.394157	-0.558495	-0.370290	-0.628975
24287		9.660041	-0.239800	0.956871	0.072081	-0.020494	-0.002067	-0.710449	0.557861	0.126953	0.394542	-0.558355	-0.370925	-0.628483
24288		9.651689	0.191046	0.994527	0.082227	-0.024792	0.016063	-0.708496	0.560059	0.126953	0.395119	-0.558283	-0.371533	-0.627825
24289		9.571102	0.142096	0.830813	0.099973	-0.011505	0.026988	-0.710449	0.553711	0.122803	0.395967	-0.558069	-0.372138	-0.627122
24290		9.434577	0.087638	1.060776	0.058740	-0.003327	0.030852	-0.704102	0.555908	0.122803	0.396596	-0.558012	-0.372354	-0.626648
24291		9.657197	0.344921	0.874854	-0.032287	0.003124	0.062109	-0.706299	0.560059	0.124756	0.396864	-0.558501	-0.371604	-0.626487
24292		9.540832	0.101291	0.423148	0.010335	0.029827	0.073770	-0.702148	0.564209	0.124512	0.397645	-0.558623	-0.370976	-0.626255
24293		9.674888	-0.077190	0.564437	0.007296	0.074328	0.079834	-0.704102	0.562256	0.122559	0.398658	-0.558439	-0.370061	-0.626316
24294		9.624818	0.263646	0.889626	-0.069668	0.103173	0.111417	-0.706299	0.564209	0.122314	0.399515	-0.558557	-0.368179	-0.626774
24295		9.421692	0.113217	1.055500	-0.052848	0.108831	0.113504	-0.697998	0.566406	0.126709	0.400529	-0.558554	-0.366386	-0.627180
24296		9.517516	-0.130333	0.961425	-0.029522	0.107078	0.123884	-0.702148	0.564209	0.120117	0.401778	-0.558493	-0.364709	-0.627413
24297		9.397485	-0.574005	1.345039	0.070289	0.094263	0.113297	-0.704590	0.574951	0.119629	0.403581	-0.557980	-0.363954	-0.627151
24298		9.796758	-0.049306	1.609889	0.101562	0.081990	0.140224	-0.696045	0.572754	0.111084	0.405754	-0.557526	-0.363313	-0.626523
24299		9.837880	0.289961	1.491771	0.028184	0.049655	0.193595	-0.696045	0.574951	0.117676	0.407685	-0.557936	-0.361886	-0.625730
24300		9.674567	0.110452	1.119660	0.073343	0.033861	0.226889	-0.694336	0.585449	0.114990	0.410116	-0.558386	-0.360657	-0.624449
24301		9.675437	-0.451632	1.136317	0.084462	0.025340	0.244868	-0.690186	0.589844	0.110352	0.412723	-0.558921	-0.359429	-0.622959
24302		10.319445	-0.521737	1.347415	0.083131	0.061641	0.262481	-0.690186	0.593994	0.105713	0.415616	-0.559252	-0.357877	-0.621631
24303		10.625819	-1.296758	0.454603	0.081968	0.159726	0.269730	-0.686035	0.598145	0.105713	0.418990	-0.558851	-0.355750	-0.620947
24304		10.829954	-0.926974	0.628991	0.279186	0.279604	0.251339	-0.684082	0.606689	0.098633	0.424122	-0.556391	-0.354646	-0.620303
24305		10.954194	-0.485979	1.889819	0.183779	0.311576	0.263120	-0.679932	0.611084	0.081055	0.428810	-0.554224	-0.352541	-0.620220
24306		11.666914	-1.343530	1.584344	0.415357	0.294796	0.228814	-0.684326	0.611084	0.074463	0.434746	-0.550772	-0.352544	-0.619160
24307		12.711523	-0.996538	2.771666	0.500669	0.312160	0.180928	-0.680176	0.615234	0.065430	0.440951	-0.546482	-0.353423	-0.618071
24308		12.562443	-1.753231	3.500190	0.410954	0.302405	0.204547	-0.682373	0.615234	0.054443	0.446659	-0.542838	-0.353479	-0.617151
24309		11.458514	-1.711699	3.566541	0.510368	0.195667	0.196044	-0.682373	0.617432	0.038818	0.452481	-0.539397	-0.354932	-0.615089
24310		11.596168	0.311927	4.254016	0.444353	0.210406	0.190067	-0.680176	0.619385	0.034424	0.457854	-0.536165	-0.355812	-0.613428
24311		11.124504	0.665880	2.925189	-0.068789	0.229192	0.235013	-0.682373	0.621582	0.021240	0.460200	-0.535908	-0.352333	-0.613906
24312		10.123083	0.812514	2.226503	-0.310238	0.210456	0.255687	-0.686768	0.623535	0.029785	0.460992	-0.537260	-0.346960	-0.615188
24313		9.865906	-0.225980	1.989201	-0.438218	0.248311	0.209523	-0.684570	0.619385	0.034424	0.460891	-0.538739	-0.340840	-0.617388
24314		9.676782	-0.782221	1.523311	-0.283202	0.323151	0.085169	-0.684570	0.621582	0.036621	0.461000	-0.538294	-0.336152	-0.620258
24315		8.730102	-1.269171	0.943731	-0.134547	0.288945	0.017869	-0.686523	0.615234	0.032471	0.461434	-0.536963	-0.333261	-0.622644
24316		8.248837	-1.305343	-0.100699	0.196288	0.131952	-0.053449	-0.692871	0.613037	0.025879	0.462874	-0.534642	-0.334327	-0.623001
24317		8.890435	-0.575698	-0.617655	0.441138	-0.008448	-0.103438	-0.697266	0.614990	0.021240	0.464967	-0.531779	-0.338445	-0.621668
24318		9.111074	-1.214439	0.237196	0.373353	0.059031	-0.134923	-0.701416	0.610840	0.010498	0.466755	-0.528575	-0.341951	-0.621142
24319		8.905485	-1.235501	0.871987	0.392165	0.051222	-0.156597	-0.705566	0.606689	0.003906	0.468464	-0.525209	-0.345795	-0.620582
24320		8.978228	-0.963109	1.179123	0.288781	-0.036386	-0.126116	-0.714111	0.606445	0.003906	0.469337	-0.523251	-0.349139	-0.619704
24321		9.071028	-1.502610	0.970468	0.164596	-0.117993	-0.121832	-0.711670	0.600098	0.006348	0.469050	-0.522677	-0.351951	-0.618814
24322		9.088130	-2.810352	0.588003	0.398877	-0.084121	-0.205601	-0.718018	0.595947	-0.002197	0.469773	-0.520095	-0.356907	-0.617602
24323		9.108865	-2.048227	1.175837	0.711785	-0.053536	-0.252438	-0.719971	0.591797	-0.017578	0.472293	-0.515189	-0.364395	-0.615415
24324		8.926793	-0.695710	1.683903	0.611584	-0.113046	-0.188418	-0.728516	0.589600	-0.017578	0.474383	-0.511566	-0.371048	-0.612849
24325		9.274697	-0.559569	1.992482	0.337048	-0.215538	-0.049546	-0.732666	0.589355	-0.019775	0.475250	-0.510995	-0.375271	-0.610077
24326		9.461845	-1.426513	2.642854	-0.015822	-0.194198	0.016682	-0.732666	0.587402	-0.015137	0.474461	-0.512658	-0.376248	-0.608692
24327		9.346895	-1.617343	2.653996	-0.119450	-0.101040	-0.005082	-0.737061	0.589355	-0.008789	0.473272	-0.514127	-0.376012	-0.608524
24328		9.174518	-1.142115	1.897292	-0.261991	-0.079658	0.006351	-0.734863	0.589355	-0.010986	0.471336	-0.516335	-0.374475	-0.609105
24329		9.046924	-0.476688	2.583636	-0.381678	-0.083717	0.019483	-0.739258	0.591553	0.000000	0.468738	-0.519309	-0.371991	-0.610102
24330		8.288374	-1.994954	1.356405	-0.496142	-0.061215	0.001169	-0.732666	0.587402	0.009033	0.465326	-0.522695	-0.368590	-0.611885
24331		8.342644	-2.173063	2.246187	-0.062968	0.042337	-0.079472	-0.736816	0.583008	0.015869	0.464597	-0.522387	-0.368419	-0.612804
24332		8.044643	-0.751573	2.813985	-0.044424	0.151872	-0.085582	-0.738770	0.578857	0.009277	0.464408	-0.521126	-0.367756	-0.614417
24333		8.130497	-0.741133	2.683878	-0.231042	0.105265	0.021970	-0.738770	0.576660	0.009277	0.463629	-0.521786	-0.365239	-0.615944
24334		7.939244	-1.140503	2.552886	-0.410402	0.061100	0.083964	-0.737061	0.587402	0.015625	0.461952	-0.524097	-0.361186	-0.617631
24335		8.605477	-1.007490	1.411944	-0.328377	0.015991	0.073209	-0.743408	0.585205	0.017822	0.460526	-0.526216	-0.358097	-0.618692
24336		9.554733	-0.606170	2.057610	-0.376403	0.111511	0.079932	-0.732666	0.587402	0.015625	0.459254	-0.527893	-0.354034	-0.620544
24337		9.404503	-0.790405	1.591692	-0.384630	0.115342	0.049713	-0.732666	0.589355	0.026611	0.457740	-0.529418	-0.350112	-0.622585
24338		9.949143	-1.083015	1.830366	-0.339608	0.091355	0.009119	-0.736816	0.585205	0.022217	0.456053	-0.530707	-0.346904	-0.624519
24339		9.608348	-1.171960	2.047712	-0.187141	0.081577	-0.052762	-0.739014	0.585205	0.028809	0.454873	-0.530914	-0.345370	-0.626051
24340		9.641825	-1.220465	2.063301	-0.014774	0.056523	-0.081598	-0.736816	0.583008	0.026855	0.454472	-0.530227	-0.345491	-0.626857
24341		9.707217	-1.377865	2.296051	0.200964	0.040918	-0.106226	-0.745605	0.587158	0.026611	0.455247	-0.528324	-0.347559	-0.626759
24342		9.899599	-1.327878	2.264473	0.440057	0.041685	-0.136719	-0.745361	0.580811	0.011475	0.457340	-0.524919	-0.351674	-0.625800
24343		9.908480	-0.940151	2.338428	0.542020	0.048109	-0.145529	-0.745361	0.580811	0.009277	0.460079	-0.520800	-0.356623	-0.624432
24344		9.877706	-0.892043	2.619768	0.365888	0.077920	-0.093799	-0.747559	0.585205	0.004639	0.462161	-0.517688	-0.359648	-0.623746
24345		9.662178	-1.194389	2.298844	0.174572	0.082427	-0.034469	-0.751465	0.576660	-0.008301	0.463479	-0.515907	-0.360762	-0.623601
24346		9.383116	-1.268471	2.232070	0.129476	0.088476	-0.019773	-0.745361	0.580811	-0.001709	0.464674	-0.514387	-0.361415	-0.623589
24347		9.288380	-1.018117	2.216082	0.095097	0.083752	-0.001146	-0.745361	0.580811	-0.001709	0.465733	-0.513209	-0.361673	-0.623620
24348		9.046819	-1.112826	2.115889	0.094454	0.074195	0.010896	-0.742920	0.576660	-0.008301	0.466821	-0.512172	-0.361889	-0.623534
24349		8.508051	-1.422123	2.249126	0.232393	0.063301	-0.019554	-0.745117	0.578857	-0.017090	0.468521	-0.510264	-0.363450	-0.622915
24350		8.543333	-0.985044	2.521347	0.325832	0.031455	-0.027644	-0.738770	0.578857	-0.021484	0.470633	-0.507996	-0.365995	-0.621685
24351		9.127665	-0.741807	2.358322	0.193742	0.017435	0.027263	-0.745117	0.576660	-0.021484	0.472271	-0.506854	-0.367247	-0.620636
24352		9.217448	-1.356596	2.105652	0.091624	0.066580	0.003137	-0.740967	0.580811	-0.023926	0.473264	-0.505842	-0.367538	-0.620534
24353		8.766060	-1.459654	2.629483	0.099889	0.102254	-0.065160	-0.747314	0.576660	-0.030273	0.473957	-0.504180	-0.368124	-0.621009
24354		8.608997	-1.148015	2.962548	-0.026509	0.063976	-0.009862	-0.743164	0.583008	-0.026123	0.474114	-0.503813	-0.367610	-0.621491
24355		8.511847	-1.449541	2.825573	-0.151786	0.029872	0.081294	-0.743408	0.587158	-0.024170	0.474022	-0.504878	-0.365739	-0.621801
24356		8.654746	-1.510546	2.587581	-0.247471	0.020675	0.145580	-0.734863	0.587402	-0.023926	0.473785	-0.506868	-0.362772	-0.622101
24357		9.179740	-1.264561	2.420610	-0.315569	0.020983	0.199137	-0.730469	0.589355	-0.019775	0.473557	-0.509475	-0.358952	-0.622360
24358		9.502630	-1.291223	2.282519	-0.310405	-0.013607	0.242120	-0.728760	0.600098	-0.015625	0.473531	-0.512504	-0.355095	-0.622106
24359		9.372284	-1.209733	2.289600	-0.238449	-0.066371	0.238393	-0.724609	0.606445	-0.011475	0.473709	-0.515481	-0.352140	-0.621190
24360		9.095773	-1.214574	2.253315	-0.210744	-0.078286	0.205938	-0.718506	0.610596	-0.005127	0.473762	-0.518231	-0.349682	-0.620249
24361		9.607028	-1.035332	1.982857	-0.240762	-0.036122	0.220389	-0.718506	0.614990	0.001465	0.473902	-0.520893	-0.346636	-0.619622
24362		10.183988	-0.986263	1.841906	-0.187000	0.012758	0.225330	-0.709961	0.617188	-0.000977	0.474606	-0.522887	-0.343657	-0.619062
24363		9.523157	-0.994574	1.907431	-0.141934	-0.009632	0.147435	-0.710205	0.621338	0.001221	0.474935	-0.524429	-0.341697	-0.618590
24364		9.081066	-1.190458	2.122295	-0.200167	0.025118	0.080937	-0.705811	0.621338	0.007812	0.474508	-0.525765	-0.339510	-0.618988
24365		10.651585	-1.339379	1.268117	0.041950	0.123859	0.075254	-0.695557	0.629883	0.003174	0.476017	-0.524890	-0.338621	-0.619060
24366		11.839401	-0.380095	1.391528	0.338673	0.138134	0.031048	-0.693115	0.625732	-0.010010	0.479225	-0.521924	-0.340263	-0.618190
24367		11.136987	-0.366982	1.837886	0.359864	0.014472	-0.058114	-0.695312	0.627930	-0.010010	0.481351	-0.519392	-0.343394	-0.616938
24368		9.938694	-1.175554	1.939279	0.400482	-0.098911	-0.147667	-0.697510	0.625732	-0.016602	0.482509	-0.517116	-0.348058	-0.615330
24369		9.516275	-1.568798	1.775686	0.419468	-0.010954	-0.198903	-0.697266	0.621582	-0.016357	0.483772	-0.513803	-0.352665	-0.614490
24370		10.436744	-0.774720	2.045425	0.297139	0.108825	-0.087218	-0.695312	0.623535	-0.027344	0.485591	-0.510809	-0.354851	-0.614293
24371		10.403473	-0.713125	2.304448	-0.009889	0.037838	0.052799	-0.695557	0.629883	-0.030029	0.486238	-0.510821	-0.354241	-0.614124
24372		9.507502	-0.983790	2.118448	0.050071	-0.131551	0.045933	-0.695312	0.623535	-0.022949	0.486483	-0.511727	-0.355179	-0.612632
24373		9.052321	-1.167292	2.151763	0.268900	-0.193059	-0.072235	-0.699707	0.625732	-0.031982	0.486889	-0.511272	-0.358877	-0.610530
24374		9.710200	-0.509841	1.957237	0.308035	-0.114626	-0.131633	-0.695312	0.625732	-0.036377	0.487482	-0.509676	-0.362809	-0.609066
24375		10.098599	-0.378847	2.336539	0.079436	-0.033480	-0.096329	-0.697510	0.627930	-0.027588	0.487263	-0.509001	-0.364287	-0.608924
24376		9.289040	-0.764357	2.494780	-0.050326	-0.075947	-0.124672	-0.699707	0.629883	-0.030029	0.485762	-0.509336	-0.365177	-0.609309
24377		8.805163	-1.547492	2.413099	0.058901	-0.164861	-0.188084	-0.697266	0.621582	-0.027344	0.484086	-0.509378	-0.367860	-0.608994
24378		9.349833	-0.978985	2.285407	0.244062	-0.143714	-0.171996	-0.701660	0.621338	-0.022949	0.483798	-0.508207	-0.371712	-0.607861
24379		9.261784	-0.827603	2.347410	0.133013	-0.103768	-0.095845	-0.699463	0.617188	-0.020508	0.483539	-0.507766	-0.373969	-0.607051
24380		8.855212	-1.189502	2.376267	0.111279	-0.167709	-0.057599	-0.701660	0.621338	-0.027344	0.483117	-0.508125	-0.376191	-0.605713
24381		9.765236	-1.120311	2.505297	0.175575	-0.184069	-0.042718	-0.699463	0.623535	-0.023193	0.483180	-0.508255	-0.378938	-0.603837
24382		11.662957	-1.440218	5.650534	0.258339	0.104513	-0.085259	-0.703613	0.621338	-0.033936	0.484799	-0.505506	-0.380823	-0.603662
24383		11.899047	-1.382765	4.692701	-0.030776	0.154803	-0.088771	-0.697510	0.625732	-0.034180	0.484822	-0.504093	-0.380250	-0.605184
24384		12.792083	-0.979499	2.472541	-0.087647	-0.090773	-0.042086	-0.697266	0.623535	-0.034180	0.483681	-0.505096	-0.380444	-0.605139
24385		11.572733	-0.876745	0.190973	-0.058275	-0.303775	-0.021619	-0.701660	0.623535	-0.023193	0.481874	-0.507618	-0.382026	-0.603471
24386		9.841972	-0.950117	-0.864833	-0.131497	-0.232556	-0.041456	-0.697266	0.621582	-0.018555	0.479753	-0.509965	-0.382723	-0.602741
24387		9.900009	-1.096524	-0.452934	-0.297949	-0.100673	-0.046662	-0.695312	0.621582	-0.016357	0.477162	-0.512282	-0.381414	-0.603661
24388		9.979611	-1.494212	0.784504	-0.190877	0.008506	-0.078696	-0.703613	0.619385	-0.005371	0.475553	-0.512966	-0.380489	-0.604933
24389		9.504592	-1.712269	2.069871	-0.062185	0.044190	-0.104679	-0.708008	0.621338	-0.009766	0.474697	-0.512519	-0.380451	-0.606007
24390		8.996290	-1.543730	2.707259	0.148873	0.070079	-0.131449	-0.703613	0.613037	-0.013916	0.475142	-0.510474	-0.382053	-0.606375
24391		9.272141	-0.340934	2.973823	0.194338	0.038768	-0.140933	-0.707764	0.613037	-0.016113	0.475659	-0.508344	-0.384244	-0.606376
24392		9.436532	0.285966	3.117156	-0.006420	0.006862	-0.102890	-0.703613	0.613037	-0.013916	0.475021	-0.507835	-0.384847	-0.606919
24393		9.583636	0.075928	2.662595	-0.165413	-0.073165	-0.056559	-0.709961	0.610840	-0.011719	0.473328	-0.509105	-0.384412	-0.607454
24394		10.019601	-0.346646	2.240375	-0.158604	-0.104580	-0.022173	-0.705566	0.610840	-0.002686	0.471779	-0.510738	-0.383989	-0.607555
24395		10.063243	-0.343718	1.672097	-0.181074	-0.115630	0.021495	-0.709961	0.610840	0.001465	0.470342	-0.512808	-0.383160	-0.607449
24396		9.969450	-0.458491	1.092652	-0.163077	-0.122894	0.045041	-0.712158	0.614990	0.003662	0.469155	-0.514940	-0.382354	-0.607071
24397		9.844362	-0.943194	1.012486	-0.189212	-0.086775	0.058223	-0.707764	0.612793	0.005859	0.468080	-0.517004	-0.381062	-0.606959
24398		9.809034	-1.231526	1.064467	-0.115960	-0.041858	0.062780	-0.705811	0.614990	0.003662	0.467733	-0.518313	-0.380040	-0.606751
24399		9.692929	-0.837259	1.459736	0.026161	-0.006956	0.065587	-0.703613	0.617188	0.010254	0.468518	-0.518524	-0.379896	-0.606054
24400		9.708058	-1.398938	1.533647	0.200911	0.017539	0.079810	-0.699463	0.619385	0.005615	0.470628	-0.517610	-0.380813	-0.604624
24401		9.880834	-0.690191	1.739248	0.296955	0.017004	0.099036	-0.701660	0.619385	0.001221	0.473509	-0.516214	-0.382340	-0.602602
24402		9.884978	-1.007870	1.254127	0.375502	0.048113	0.116237	-0.701660	0.623535	-0.005371	0.477154	-0.514196	-0.384146	-0.600299
24403		9.937242	-0.530731	0.964640	0.398240	0.056969	0.133541	-0.695312	0.625732	-0.018799	0.481106	-0.512044	-0.385949	-0.597822
24404		10.258130	-0.910310	1.005659	0.396656	0.073865	0.146404	-0.697510	0.627686	-0.020996	0.485239	-0.509805	-0.387571	-0.595341
24405		10.363186	-1.064188	1.175445	0.340965	0.082465	0.165235	-0.693359	0.632080	-0.025635	0.489156	-0.507936	-0.388571	-0.593077
24406		10.480545	-0.998587	1.470875	0.330715	0.082456	0.169041	-0.691162	0.632080	-0.038818	0.493018	-0.506141	-0.389457	-0.590828
24407		10.601169	-0.733692	2.187022	0.186547	0.044152	0.177386	-0.691406	0.634277	-0.038818	0.495860	-0.505532	-0.389478	-0.588955
24408		10.896261	-0.709398	2.439697	0.009723	-0.020212	0.178441	-0.687256	0.640625	-0.036865	0.497252	-0.506509	-0.388566	-0.587542
24409		11.028550	-0.635740	2.599406	-0.119368	-0.089250	0.162131	-0.689209	0.636230	-0.036621	0.497364	-0.508716	-0.387231	-0.586421
24410		11.203860	-0.517594	1.888616	-0.094652	-0.147660	0.069948	-0.687256	0.638428	-0.028076	0.496669	-0.510747	-0.387026	-0.585379
24411		11.380084	-1.107541	2.136566	-0.058393	-0.128726	0.091747	-0.691406	0.636230	-0.023438	0.496435	-0.512530	-0.386810	-0.584160
24412		11.290700	-1.470743	2.469583	-0.213835	-0.092616	0.023386	-0.691406	0.636230	-0.019043	0.494864	-0.514689	-0.385660	-0.584355
24413		11.469497	-1.564850	2.543470	-0.196039	-0.058037	0.035498	-0.693604	0.638428	-0.021484	0.493663	-0.516536	-0.384349	-0.584604
24414		11.409730	-1.863766	2.431332	-0.236180	0.016291	0.018676	-0.697754	0.636230	-0.005859	0.492466	-0.517983	-0.382420	-0.585599
24415		11.033220	-1.825842	2.603907	-0.192419	0.063347	-0.013740	-0.688965	0.629883	-0.007812	0.491484	-0.518692	-0.380681	-0.586928
24416		10.731460	-1.646550	2.684226	-0.253410	0.071358	0.010263	-0.701904	0.632080	-0.005859	0.490334	-0.519814	-0.378302	-0.588433
24417		10.559075	-1.915991	2.511047	-0.313099	0.079531	0.045968	-0.701904	0.629883	-0.003662	0.489092	-0.521404	-0.375197	-0.590046
24418		10.308223	-1.834947	2.375237	-0.324628	0.123291	0.046478	-0.708252	0.625488	-0.001221	0.487979	-0.522732	-0.371734	-0.591981
24419		9.920173	-1.550760	2.459253	-0.360055	0.150875	0.060445	-0.701660	0.625732	0.003174	0.486844	-0.524135	-0.367726	-0.594174
24420		9.417306	-1.370877	2.389308	-0.443215	0.152455	0.085915	-0.705811	0.619385	0.010010	0.485344	-0.526138	-0.362903	-0.596592
24421		9.129083	-1.289283	2.200236	-0.511875	0.155766	0.100776	-0.703857	0.621338	0.012207	0.483460	-0.528603	-0.357399	-0.599259
24422		8.772315	-1.728754	1.896375	-0.497156	0.185156	0.080853	-0.705811	0.617188	0.019043	0.481652	-0.530636	-0.351958	-0.602132
24423		8.553812	-1.793775	2.033038	-0.317865	0.205244	0.034995	-0.710205	0.621338	0.020996	0.480731	-0.531236	-0.348011	-0.604628
24424		8.504278	-1.829826	1.946637	-0.159916	0.216079	0.033308	-0.709961	0.614990	0.019043	0.480881	-0.530790	-0.345193	-0.606512
24425		8.383055	-1.875107	1.945577	-0.035404	0.215607	0.044114	-0.703613	0.617188	0.014648	0.481924	-0.529647	-0.343237	-0.607792
24426		8.331811	-1.425252	2.159780	-0.059640	0.219659	0.086884	-0.708008	0.621338	0.014404	0.483161	-0.528789	-0.340801	-0.608927
24427		8.291148	-1.216763	2.169442	-0.242668	0.206575	0.164644	-0.703857	0.621338	0.014404	0.483698	-0.529470	-0.336514	-0.610292
24428		8.339372	-1.067463	1.924867	-0.352186	0.178906	0.194890	-0.701660	0.623535	0.016602	0.483610	-0.531139	-0.331348	-0.611737
24429		8.227239	-1.244006	1.579193	-0.344031	0.166143	0.167228	-0.706055	0.623535	0.018799	0.483295	-0.532726	-0.326493	-0.613214
24430		8.226189	-1.306360	1.545768	-0.241062	0.182383	0.110438	-0.695068	0.619385	0.019043	0.483274	-0.533330	-0.322691	-0.614716
24431		8.242195	-1.445514	1.610324	-0.128837	0.183442	0.076246	-0.701660	0.619385	0.020996	0.483741	-0.533100	-0.319974	-0.615967
24432		8.332897	-1.315953	1.603913	-0.002445	0.153842	0.065730	-0.701660	0.619385	0.016602	0.484824	-0.532300	-0.318457	-0.616593
24433		8.255479	-1.289335	1.557393	0.092033	0.099774	0.063451	-0.695068	0.619385	0.007812	0.486308	-0.531331	-0.318016	-0.616489
24434		8.454409	-1.141255	1.614050	0.098607	0.067070	0.070239	-0.693115	0.625732	0.012207	0.487784	-0.530583	-0.317805	-0.616075
24435		8.732608	-1.281999	1.502984	0.053334	0.052746	0.057003	-0.697510	0.625732	0.007568	0.488780	-0.530179	-0.317403	-0.615840
24436		9.114198	-1.182778	1.447803	-0.011650	0.038756	0.057455	-0.693359	0.629883	0.007568	0.489299	-0.530278	-0.316590	-0.615762
24437		9.336754	-1.511380	1.388533	0.037877	0.016554	0.033788	-0.699463	0.623535	0.005615	0.489881	-0.530147	-0.316457	-0.615479
24438		9.573819	-1.587041	1.371991	0.204963	0.017577	-0.025906	-0.697510	0.627686	0.005371	0.491119	-0.528746	-0.318004	-0.614901
24439		9.368488	-1.534208	1.691728	0.349292	-0.009554	-0.072657	-0.695312	0.625732	-0.001221	0.492819	-0.526485	-0.321118	-0.613861
24440		9.278494	-1.397908	2.162765	0.351930	-0.051274	-0.072137	-0.695557	0.629883	-0.001221	0.494372	-0.524515	-0.324508	-0.612515
24441		9.465944	-1.503699	2.333456	0.253366	-0.101337	-0.030236	-0.699707	0.627686	-0.007812	0.495381	-0.523704	-0.327166	-0.610978
24442		9.686015	-1.716606	2.061392	0.244116	-0.115963	-0.024213	-0.690918	0.621582	-0.003174	0.496320	-0.523076	-0.329809	-0.609331
24443		9.680379	-1.698030	2.152325	0.309621	-0.084429	-0.054240	-0.697510	0.627686	-0.007812	0.497565	-0.521680	-0.332933	-0.607812
24444		9.761300	-1.242655	2.456253	0.230807	-0.076648	-0.057216	-0.695312	0.627930	-0.003418	0.498305	-0.520693	-0.335431	-0.606677
24445		9.732469	-1.172495	2.501110	0.065212	-0.104535	-0.020840	-0.697266	0.621338	-0.005371	0.498108	-0.521107	-0.336593	-0.605839
24446		9.676029	-1.371122	2.353948	-0.106062	-0.134531	0.003601	-0.699463	0.623535	-0.007568	0.496855	-0.522914	-0.336488	-0.605369
24447		9.546531	-1.552707	2.211262	-0.130197	-0.116965	-0.007475	-0.699707	0.625732	0.000977	0.495452	-0.524678	-0.336178	-0.605165
24448		9.531971	-1.596309	2.346309	-0.077489	-0.109512	-0.029711	-0.699463	0.621338	-0.003174	0.494245	-0.525969	-0.336356	-0.604932
24449		9.592821	-1.556668	2.340793	-0.047594	-0.108006	-0.030278	-0.706055	0.623535	0.000977	0.493255	-0.527050	-0.336770	-0.604569
24450		9.547106	-1.581251	2.269229	-0.037587	-0.096613	-0.020658	-0.701904	0.627686	0.007568	0.492443	-0.528027	-0.337119	-0.604184
24451		9.505275	-1.473033	2.353762	-0.006239	-0.084912	-0.027686	-0.699463	0.619385	0.007812	0.491829	-0.528695	-0.337673	-0.603791
24452		9.590205	-1.461835	2.266006	-0.029795	-0.080669	-0.017606	-0.701660	0.623535	0.005615	0.491153	-0.529517	-0.337956	-0.603462
24453		9.577505	-1.582269	2.098728	-0.006458	-0.053592	-0.033502	-0.706055	0.623535	0.010010	0.490639	-0.529916	-0.338366	-0.603300
24454		9.412337	-1.520792	2.053347	0.065011	-0.022179	-0.061874	-0.701660	0.623535	0.012207	0.490506	-0.529526	-0.339299	-0.603226
24455		9.417906	-1.444784	2.087989	0.118041	-0.017193	-0.085721	-0.703857	0.621338	0.010010	0.490561	-0.528673	-0.340756	-0.603108
24456		9.305682	-1.260896	2.131521	0.090395	-0.019012	-0.087635	-0.703613	0.619385	0.003418	0.490412	-0.527993	-0.342029	-0.603105
24457		9.062033	-1.155302	2.216074	-0.030305	-0.023316	-0.062880	-0.705566	0.613037	0.005859	0.489649	-0.528181	-0.342269	-0.603424
24458		8.832068	-1.168969	2.234309	-0.178167	-0.021642	-0.056728	-0.703613	0.617188	0.014648	0.487954	-0.529291	-0.341333	-0.604354
24459		8.624926	-1.433643	2.179498	-0.251109	-0.025882	-0.069484	-0.711914	0.610840	0.017090	0.485648	-0.530825	-0.339945	-0.605647
24460		8.655282	-1.643177	2.022875	-0.182452	-0.017111	-0.067019	-0.708008	0.621338	0.016602	0.483846	-0.531883	-0.339002	-0.606689
24461		8.941272	-1.503000	2.054511	-0.086862	-0.010478	-0.059907	-0.701416	0.617188	0.023438	0.482782	-0.532329	-0.338711	-0.607307
24462		9.289348	-1.533244	2.043114	-0.047642	-0.018801	-0.057940	-0.709961	0.614990	0.016846	0.481946	-0.532616	-0.338745	-0.607701
24463		8.968871	-1.729837	2.061175	-0.056120	-0.021000	-0.079600	-0.709961	0.617188	0.023438	0.480894	-0.532869	-0.338885	-0.608234
24464		8.525109	-1.663399	2.319893	-0.136075	-0.016092	-0.043980	-0.712158	0.617188	0.023438	0.479590	-0.533722	-0.338139	-0.608930
24465		8.807459	-1.865025	2.054270	-0.202591	-0.000443	0.032681	-0.708008	0.619141	0.029785	0.478495	-0.535173	-0.336283	-0.609546
24466		9.403226	-1.780362	1.880897	-0.173697	0.007621	0.079491	-0.708008	0.619141	0.029785	0.477976	-0.536586	-0.334278	-0.609814
24467		9.019740	-1.660228	1.880265	-0.090836	-0.021866	0.049289	-0.710205	0.619141	0.031982	0.477662	-0.537597	-0.333287	-0.609711
24468		8.538765	-1.761730	2.082977	-0.088748	-0.028313	0.031366	-0.705811	0.617188	0.038818	0.477195	-0.538571	-0.332467	-0.609665
24469		9.565034	-1.588960	1.821863	-0.085063	0.015180	0.068507	-0.701904	0.629883	0.029541	0.477202	-0.539353	-0.331153	-0.609684
24470		10.153975	-2.000430	1.272261	0.107669	0.053305	0.037931	-0.699707	0.627686	0.025146	0.478473	-0.538546	-0.331316	-0.609312
24471		9.878783	-1.360873	1.563196	0.442475	0.029800	-0.041951	-0.702148	0.634033	0.022705	0.481289	-0.535572	-0.334708	-0.607860
24472		9.683236	-1.081952	1.902740	0.535427	-0.050531	-0.070518	-0.699707	0.629883	0.020752	0.484148	-0.532517	-0.339459	-0.605636
24473		9.712322	-1.095403	1.919618	0.471590	-0.111144	-0.074774	-0.695312	0.627930	0.011963	0.486256	-0.530276	-0.344094	-0.603293
24474		9.457437	-1.515771	1.882018	0.309342	-0.078937	-0.093968	-0.693359	0.629883	0.007568	0.487281	-0.528674	-0.347437	-0.601953
24475		9.343027	-1.603206	1.975422	0.111099	-0.001879	-0.054924	-0.704102	0.632080	0.005127	0.487628	-0.527862	-0.348562	-0.601735
24476		9.566232	-1.743482	2.073210	-0.006876	0.006840	0.019917	-0.693604	0.636230	0.005127	0.487796	-0.528028	-0.348253	-0.601632
24477		10.049263	-1.659498	1.770062	-0.010772	-0.091117	0.081651	-0.691406	0.636230	0.005127	0.487984	-0.529220	-0.348104	-0.600517
24478		10.189380	-1.495146	1.642229	0.075388	-0.162629	0.093097	-0.693604	0.640625	0.009277	0.488520	-0.530467	-0.348968	-0.598477
24479		9.980348	-1.322120	1.770588	0.057529	-0.170010	0.057837	-0.691650	0.640625	0.007080	0.488632	-0.531725	-0.349972	-0.596680
24480		10.086453	-1.233136	1.850820	-0.023848	-0.128552	0.034812	-0.678955	0.644775	0.011475	0.488221	-0.533059	-0.350280	-0.595644
24481		10.278881	-1.251414	1.729570	0.004369	-0.086240	-0.001024	-0.685303	0.642578	0.011475	0.487921	-0.533746	-0.350782	-0.594979
24482		10.069568	-1.275059	2.019338	0.108517	-0.078802	-0.072157	-0.683105	0.642822	0.018066	0.487815	-0.533427	-0.352494	-0.594340
24483		9.858315	-0.941542	2.418319	0.062295	-0.098008	-0.098506	-0.680908	0.638428	0.011719	0.487104	-0.533425	-0.354139	-0.593947
24484		10.490319	-1.112919	2.132594	-0.017514	-0.086357	-0.025536	-0.680908	0.644775	0.018066	0.486469	-0.534132	-0.354649	-0.593527
24485		10.527366	-1.448374	2.043786	0.081039	-0.041126	-0.065943	-0.680908	0.640625	0.011475	0.486385	-0.533730	-0.355877	-0.593223
24486		10.170337	-1.076998	2.347346	0.112148	-0.004809	-0.117003	-0.685059	0.638428	0.009521	0.486302	-0.532632	-0.357467	-0.593322
24487		10.268820	-1.209241	2.128992	0.046902	0.030720	-0.133154	-0.689453	0.638428	0.018311	0.485821	-0.531594	-0.358460	-0.594048
24488		10.357857	-1.349110	2.032048	0.082914	0.080931	-0.139524	-0.689453	0.640625	0.007080	0.485731	-0.529949	-0.359435	-0.595001
24489		9.761368	-1.326886	2.218989	0.107016	0.122048	-0.163701	-0.691650	0.640625	0.011475	0.485826	-0.527724	-0.360519	-0.596243
24490		9.295969	-1.262679	2.327057	0.075264	0.111028	-0.132742	-0.693359	0.632080	0.000732	0.485873	-0.525922	-0.361210	-0.597379
24491		9.301861	-1.448623	2.038688	0.097254	0.093387	-0.097449	-0.695557	0.634277	-0.001465	0.486260	-0.524266	-0.361950	-0.598071
24492		9.145006	-1.254774	2.081987	0.096525	0.040642	-0.097660	-0.689209	0.634277	-0.001465	0.486400	-0.523006	-0.363004	-0.598421
24493		9.125298	-1.159147	2.073463	0.011606	-0.004838	-0.062963	-0.687012	0.634277	-0.001465	0.486037	-0.522759	-0.363472	-0.598647
24494		9.665510	-1.041596	1.844857	0.019666	-0.034654	-0.030468	-0.685059	0.640625	0.000488	0.485837	-0.522833	-0.363969	-0.598443
24495		9.847095	-0.924577	1.673511	0.061643	-0.056540	-0.032782	-0.687012	0.636230	-0.003662	0.485795	-0.522804	-0.364930	-0.597918
24496		9.669459	-1.087268	1.617459	0.072901	-0.065259	-0.054665	-0.695801	0.640381	-0.001709	0.485628	-0.522667	-0.366176	-0.597411
24497		10.355763	-0.833448	2.061326	0.040416	-0.045353	-0.065896	-0.695557	0.636230	-0.001465	0.485249	-0.522530	-0.367127	-0.597254
24498		10.650618	-0.865050	3.150000	-0.061702	0.085406	-0.087172	-0.691406	0.636230	-0.003662	0.484642	-0.521940	-0.366658	-0.598551
24499		10.509487	-1.501273	2.338378	-0.217917	-0.027233	-0.024780	-0.695557	0.632080	0.007324	0.482970	-0.523417	-0.365299	-0.599443
24500		10.884901	-2.106221	1.673398	-0.064968	-0.075866	-0.017578	-0.691162	0.632080	0.002930	0.482109	-0.524377	-0.365312	-0.599288
24501		10.470540	-1.938668	0.581551	0.075761	-0.054662	-0.064037	-0.695557	0.632080	0.005127	0.481940	-0.524106	-0.366574	-0.598891
24502		9.948945	-1.500122	0.698052	0.082519	-0.036301	-0.087735	-0.691406	0.634277	0.000732	0.481716	-0.523551	-0.367928	-0.598726
24503		9.662210	-1.306842	1.171918	0.061601	-0.001724	-0.104701	-0.697754	0.632080	0.002930	0.481403	-0.522773	-0.369043	-0.598971
24504		9.578162	-1.096269	1.881067	0.079235	0.024881	-0.115177	-0.697754	0.632080	-0.003662	0.481238	-0.521648	-0.370189	-0.599377
24505		9.361792	-0.773340	2.565212	0.058606	0.009939	-0.101476	-0.695312	0.627930	0.003174	0.480986	-0.520812	-0.371193	-0.599686
24506		9.195820	-0.685574	2.671687	-0.040594	-0.017507	-0.094297	-0.695312	0.627930	-0.003418	0.479992	-0.520824	-0.371551	-0.600250
24507		9.592829	-1.035485	2.006281	-0.006711	-0.019735	-0.092579	-0.697510	0.627686	0.005371	0.479239	-0.520644	-0.372180	-0.600618
24508		9.934375	-0.748784	1.782723	0.059123	-0.002092	-0.097436	-0.697266	0.621338	0.003418	0.478940	-0.519926	-0.373210	-0.600839
