// Start Time: Unknown
// Update Rate: 40.0Hz
// Filter Profile: human (46.1)
// Firmware Version: 4.6.0
PacketCounter	SampleTimeFine	Acc_X	Acc_Y	Acc_Z	Gyr_X	Gyr_Y	Gyr_Z	Mag_X	Mag_Y	Mag_Z	Quat_q0	Quat_q1	Quat_q2	Quat_q3
23593		9.473106	-1.742208	-1.880188	0.007790	-0.000003	-0.007713	-0.791504	0.247559	-0.282959	0.635440	-0.163901	-0.754280	-0.020348
23594		9.456501	-1.722158	-1.832420	0.004396	0.002299	-0.008032	-0.792969	0.248535	-0.288086	0.635469	-0.163789	-0.754279	-0.020375
23595		9.463550	-1.683397	-1.817436	0.016292	0.001502	-0.009683	-0.785645	0.255127	-0.298584	0.635518	-0.163568	-0.754288	-0.020301
23596		9.485470	-1.712578	-1.853356	0.018123	-0.001100	-0.012054	-0.789551	0.243164	-0.282959	0.635544	-0.163309	-0.754324	-0.020226
23597		9.439605	-1.680359	-1.843213	0.001787	-0.000401	-0.009722	-0.790283	0.247559	-0.281250	0.635545	-0.163199	-0.754346	-0.020289
23598		9.490346	-1.743683	-1.823908	-0.000117	-0.000997	-0.005024	-0.790283	0.244141	-0.281006	0.635539	-0.163146	-0.754360	-0.020336
23599		9.471977	-1.760168	-1.809251	0.003465	0.003489	-0.004371	-0.791504	0.247803	-0.286377	0.635589	-0.163069	-0.754334	-0.020352
23600		9.462434	-1.730211	-1.779117	0.005592	0.000144	-0.004878	-0.780029	0.242676	-0.284180	0.635621	-0.162972	-0.754329	-0.020342
23601		9.467887	-1.736894	-1.808057	0.015310	0.000313	-0.007997	-0.796143	0.245605	-0.282471	0.635685	-0.162767	-0.754321	-0.020266
23602		9.475207	-1.716207	-1.814588	0.015847	-0.000967	-0.008608	-0.796143	0.246582	-0.285889	0.635748	-0.162551	-0.754317	-0.020186
23603		9.472899	-1.747095	-1.796762	0.007104	-0.001938	-0.004162	-0.790527	0.245605	-0.285400	0.635794	-0.162444	-0.754302	-0.020154
23604		9.503254	-1.762038	-1.810036	0.010419	-0.001666	-0.005596	-0.788330	0.246826	-0.287842	0.635857	-0.162299	-0.754282	-0.020098
23605		9.467999	-1.737867	-1.767336	0.017045	-0.003118	-0.005452	-0.798828	0.241943	-0.279785	0.635928	-0.162107	-0.754266	-0.019969
23606		9.464112	-1.711480	-1.807196	0.022609	-0.003193	-0.005379	-0.789795	0.249756	-0.291016	0.636024	-0.161865	-0.754242	-0.019794
23607		9.480149	-1.653865	-1.809741	0.015239	-0.002883	-0.005666	-0.791504	0.236572	-0.284424	0.636120	-0.161683	-0.754203	-0.019678
23608		9.461358	-1.693051	-1.776899	0.001317	-0.003102	-0.003695	-0.789062	0.247070	-0.286133	0.636174	-0.161608	-0.754173	-0.019721
23609		9.466954	-1.749133	-1.819912	0.009311	-0.005265	-0.005272	-0.783203	0.243652	-0.292236	0.636235	-0.161462	-0.754154	-0.019674
23610		9.492479	-1.774000	-1.825586	0.009382	-0.004655	-0.005236	-0.786621	0.251465	-0.290283	0.636304	-0.161321	-0.754127	-0.019623
23611		9.455560	-1.785444	-1.816713	-0.007922	-0.003765	-0.004877	-0.782959	0.246582	-0.289307	0.636353	-0.161336	-0.754081	-0.019700
23612		9.443039	-1.778157	-1.759928	0.003123	-0.003335	-0.003479	-0.792725	0.247314	-0.279053	0.636412	-0.161286	-0.754042	-0.019666
23613		9.459926	-1.755559	-1.805382	0.024082	-0.006252	-0.010295	-0.789307	0.253906	-0.289307	0.636478	-0.161008	-0.754051	-0.019481
23614		9.460558	-1.740325	-1.835506	0.017406	-0.007193	-0.012409	-0.781006	0.250732	-0.289795	0.636559	-0.160780	-0.754035	-0.019333
23615		9.465216	-1.750924	-1.825776	0.004122	-0.003921	-0.007100	-0.790283	0.240234	-0.280273	0.636617	-0.160712	-0.754002	-0.019282
23616		9.467339	-1.762739	-1.806380	0.003874	-0.002786	-0.003980	-0.787842	0.256104	-0.286865	0.636646	-0.160647	-0.753991	-0.019271
23617		9.456014	-1.705927	-1.826840	0.005093	-0.002135	-0.008141	-0.786377	0.237549	-0.282715	0.636728	-0.160586	-0.753938	-0.019187
23618		9.472608	-1.727083	-1.834756	0.007472	-0.006613	-0.011761	-0.790039	0.240234	-0.287842	0.636718	-0.160407	-0.753983	-0.019215
23619		9.486750	-1.748597	-1.833413	0.008803	-0.004361	-0.010257	-0.788330	0.247803	-0.282471	0.636773	-0.160234	-0.753974	-0.019208
23620		9.468440	-1.763930	-1.819880	-0.001201	-0.004397	-0.009642	-0.794189	0.248291	-0.289062	0.636769	-0.160191	-0.753986	-0.019236
23621		9.452763	-1.756363	-1.834670	0.002621	-0.003029	-0.009108	-0.787354	0.244385	-0.289795	0.636839	-0.160119	-0.753942	-0.019228
23622		9.457026	-1.717427	-1.811994	0.007755	-0.004170	-0.011619	-0.779053	0.247803	-0.294678	0.636895	-0.159973	-0.753926	-0.019206
23623		9.496537	-1.755717	-1.804958	0.004747	-0.005777	-0.008961	-0.782227	0.242432	-0.284180	0.636963	-0.159904	-0.753885	-0.019162
23624		9.455623	-1.740919	-1.835977	0.003513	-0.003250	-0.006525	-0.790771	0.244629	-0.285889	0.636967	-0.159838	-0.753895	-0.019143
23625		9.443764	-1.697369	-1.827419	-0.000316	-0.004026	-0.006414	-0.785156	0.243164	-0.292725	0.636977	-0.159811	-0.753893	-0.019152
23626		9.531324	-1.738484	-1.808562	-0.004718	-0.007099	-0.008953	-0.788818	0.236084	-0.290527	0.637005	-0.159785	-0.753872	-0.019231
23627		9.462112	-1.742557	-1.788082	-0.004282	-0.004625	-0.010032	-0.782959	0.248779	-0.281982	0.637036	-0.159681	-0.753865	-0.019372
23628		9.439451	-1.754285	-1.796310	0.002058	-0.007907	-0.009387	-0.794189	0.241211	-0.291504	0.636973	-0.159666	-0.753922	-0.019327
23629		9.444076	-1.711353	-1.814100	0.009757	-0.003368	-0.006998	-0.789307	0.256104	-0.290771	0.637060	-0.159517	-0.753881	-0.019281
23630		9.470171	-1.721897	-1.849243	-0.004523	-0.004084	-0.007556	-0.789062	0.253174	-0.289307	0.637110	-0.159633	-0.753815	-0.019251
23631		9.445468	-1.774537	-1.849907	-0.007525	-0.004295	-0.008557	-0.791748	0.241455	-0.287354	0.637130	-0.159738	-0.753776	-0.019281
23632		9.470855	-1.779800	-1.834901	0.005204	-0.005076	-0.011976	-0.790039	0.249023	-0.281982	0.637134	-0.159590	-0.753803	-0.019310
23633		9.457047	-1.775582	-1.819683	-0.006136	-0.006787	-0.012212	-0.785156	0.246338	-0.296631	0.637041	-0.159621	-0.753874	-0.019363
23634		9.446476	-1.797122	-1.845610	0.002511	-0.005218	-0.015415	-0.792236	0.248047	-0.294434	0.637159	-0.159539	-0.753790	-0.019411
23635		9.437584	-1.781683	-1.838495	0.016103	-0.008389	-0.023173	-0.788574	0.239258	-0.277832	0.637231	-0.159295	-0.753782	-0.019373
23636		9.484411	-1.798184	-1.839129	0.016318	-0.008548	-0.020053	-0.786377	0.245850	-0.292725	0.637101	-0.158969	-0.753962	-0.019318
23637		9.443320	-1.763683	-1.848825	0.010381	-0.002418	-0.016181	-0.793213	0.253174	-0.279541	0.637213	-0.158840	-0.753895	-0.019280
23638		9.462087	-1.733596	-1.853106	0.008522	-0.003988	-0.017717	-0.793213	0.233398	-0.291504	0.637118	-0.158790	-0.753988	-0.019176
23639		9.471895	-1.709772	-1.870341	0.014851	-0.004674	-0.019445	-0.791504	0.245117	-0.288330	0.637181	-0.158419	-0.754012	-0.019230
23640		9.462736	-1.663416	-1.871008	0.008444	-0.004004	-0.017106	-0.790771	0.245605	-0.289795	0.637198	-0.158294	-0.754024	-0.019213
23641		9.465943	-1.690496	-1.872766	-0.001644	-0.003496	-0.015226	-0.791016	0.244385	-0.279541	0.637219	-0.158280	-0.754008	-0.019279
23642		9.466497	-1.709016	-1.854623	-0.001421	-0.002852	-0.016410	-0.787598	0.238770	-0.280518	0.637102	-0.158218	-0.754118	-0.019326
23643		9.476195	-1.707997	-1.853008	-0.001900	-0.001765	-0.011465	-0.792480	0.239990	-0.288818	0.637022	-0.158128	-0.754203	-0.019381
23644		9.467516	-1.724932	-1.836632	-0.002737	-0.000345	-0.013366	-0.787598	0.255615	-0.281494	0.637056	-0.158055	-0.754187	-0.019496
23645		9.458531	-1.687985	-1.847537	0.000360	-0.001295	-0.014265	-0.789795	0.242676	-0.285889	0.636995	-0.158234	-0.754202	-0.019444
23646		9.475289	-1.698980	-1.844575	0.003759	-0.002979	-0.013299	-0.795898	0.245605	-0.278320	0.636985	-0.158162	-0.754226	-0.019461
23647		9.436475	-1.687158	-1.844415	-0.000405	-0.000661	-0.012472	-0.784912	0.241455	-0.283936	0.636851	-0.158155	-0.754339	-0.019476
23648		9.534429	-1.724640	-1.862467	-0.002122	-0.002410	-0.010279	-0.788330	0.249756	-0.273926	0.636831	-0.158149	-0.754357	-0.019518
23649		9.453975	-1.727142	-1.833267	0.002818	0.000206	-0.012659	-0.791016	0.239990	-0.290039	0.636676	-0.158229	-0.754472	-0.019458
23650		9.454406	-1.724461	-1.833569	0.008365	-0.004807	-0.012191	-0.783691	0.242920	-0.288574	0.636727	-0.158093	-0.754458	-0.019465
23651		9.455919	-1.664096	-1.819809	0.017761	0.000711	-0.007705	-0.787598	0.244385	-0.285645	0.636858	-0.158017	-0.754366	-0.019323
23652		9.472457	-1.654577	-1.834807	0.003475	0.000532	-0.007607	-0.793213	0.251465	-0.290771	0.636892	-0.158068	-0.754328	-0.019300
23653		9.462551	-1.695854	-1.880158	0.001991	-0.001168	-0.007241	-0.791260	0.247559	-0.285645	0.636956	-0.158296	-0.754226	-0.019299
23654		9.481739	-1.729872	-1.867219	0.008084	-0.000495	-0.010802	-0.786865	0.247559	-0.286133	0.636965	-0.158331	-0.754213	-0.019251
23655		9.472415	-1.729727	-1.829718	-0.001061	-0.003190	-0.009559	-0.792480	0.237549	-0.294922	0.636957	-0.158473	-0.754189	-0.019270
23656		9.466342	-1.756056	-1.833328	0.012766	-0.002303	-0.010304	-0.784424	0.241455	-0.281982	0.637103	-0.158298	-0.754101	-0.019290
23657		9.459589	-1.719819	-1.853040	0.018459	0.000277	-0.013834	-0.788818	0.248047	-0.283203	0.637112	-0.158083	-0.754143	-0.019144
23658		9.464456	-1.720728	-1.831725	0.008502	-0.003586	-0.012118	-0.792480	0.242432	-0.291260	0.637058	-0.158126	-0.754182	-0.019065
23659		9.469393	-1.708476	-1.840150	0.009956	-0.000103	-0.010555	-0.793701	0.244629	-0.281982	0.637155	-0.158076	-0.754110	-0.019062
23660		9.478772	-1.699620	-1.827097	0.007557	-0.000404	-0.011481	-0.786133	0.243896	-0.284668	0.637085	-0.158021	-0.754183	-0.018999
23661		9.482275	-1.714718	-1.857227	0.011314	-0.000216	-0.011632	-0.798828	0.249268	-0.283936	0.637108	-0.157970	-0.754176	-0.018919
23662		9.461339	-1.689979	-1.830979	0.006066	-0.000714	-0.014774	-0.790283	0.251465	-0.283447	0.637034	-0.158009	-0.754231	-0.018908
23663		9.453015	-1.693258	-1.843787	0.003599	-0.001626	-0.015733	-0.795166	0.246826	-0.288574	0.636982	-0.158145	-0.754246	-0.018904
23664		9.470433	-1.735196	-1.832063	0.006534	-0.002006	-0.014769	-0.791504	0.245850	-0.283447	0.636994	-0.158175	-0.754229	-0.018940
23665		9.461607	-1.743314	-1.804844	0.004477	-0.000648	-0.011867	-0.788086	0.245117	-0.281250	0.636953	-0.158192	-0.754260	-0.018915
23666		9.473188	-1.711567	-1.820358	0.011160	-0.000242	-0.010412	-0.788086	0.248535	-0.289062	0.636915	-0.158146	-0.754305	-0.018790
23667		9.487102	-1.679812	-1.845202	0.014029	-0.001230	-0.009481	-0.784180	0.238525	-0.290283	0.636996	-0.158255	-0.754216	-0.018711
23668		9.480298	-1.666436	-1.846147	0.007775	-0.000554	-0.008361	-0.793945	0.244629	-0.294678	0.637116	-0.158193	-0.754127	-0.018713
23669		9.461547	-1.642402	-1.829183	0.004196	0.002273	-0.006826	-0.788818	0.241699	-0.291260	0.637264	-0.158335	-0.753970	-0.018793
23670		9.487783	-1.666158	-1.833785	-0.002379	-0.000699	-0.006514	-0.782227	0.244385	-0.282471	0.637342	-0.158440	-0.753880	-0.018884
23671		9.477857	-1.734215	-1.819989	-0.001578	0.001060	-0.006344	-0.792236	0.240234	-0.285645	0.637329	-0.158525	-0.753874	-0.018839
23672		9.466252	-1.708706	-1.831823	0.003120	-0.001332	-0.006486	-0.791016	0.244629	-0.284424	0.637306	-0.158462	-0.753908	-0.018816
23673		9.457760	-1.637610	-1.810111	-0.001282	0.000923	-0.003836	-0.790771	0.243408	-0.292480	0.637280	-0.158565	-0.753909	-0.018791
23674		9.483803	-1.675078	-1.785361	-0.008730	0.001146	-0.003501	-0.787354	0.248535	-0.285156	0.637370	-0.158784	-0.753783	-0.018936
23675		9.467549	-1.735892	-1.823305	0.002440	-0.000479	-0.010250	-0.793457	0.250488	-0.289795	0.637363	-0.158903	-0.753764	-0.018918
23676		9.482757	-1.752534	-1.860899	0.015791	-0.002439	-0.014888	-0.790771	0.246582	-0.282227	0.637401	-0.158947	-0.753724	-0.018871
23677		9.466397	-1.740104	-1.824567	-0.001438	-0.002491	-0.010807	-0.787598	0.248291	-0.289062	0.637305	-0.158984	-0.753797	-0.018856
23678		9.459553	-1.738971	-1.796716	-0.000628	-0.001326	-0.011280	-0.792969	0.246582	-0.283936	0.637344	-0.159157	-0.753726	-0.018927
23679		9.451515	-1.751945	-1.819872	0.018408	-0.001483	-0.015147	-0.791748	0.242920	-0.287598	0.637314	-0.159005	-0.753787	-0.018789
23680		9.446386	-1.696232	-1.828620	0.014782	-0.004636	-0.018815	-0.786865	0.249023	-0.287842	0.637312	-0.158817	-0.753829	-0.018765
23681		9.469919	-1.673807	-1.862768	0.003336	-0.004072	-0.015858	-0.796143	0.242676	-0.292725	0.637316	-0.158930	-0.753801	-0.018809
23682		9.526068	-1.706257	-1.831077	0.000533	-0.003272	-0.012453	-0.784912	0.246826	-0.292236	0.637353	-0.158971	-0.753758	-0.018953
23683		9.489784	-1.717077	-1.821354	-0.000278	-0.000260	-0.008095	-0.790771	0.236572	-0.291260	0.637462	-0.159196	-0.753615	-0.019038
23684		9.453873	-1.724617	-1.850884	-0.005932	0.004510	-0.003020	-0.787109	0.249023	-0.290283	0.637569	-0.159230	-0.753515	-0.019168
23685		9.442189	-1.699569	-1.862327	-0.001876	0.000397	-0.004548	-0.788086	0.249023	-0.285645	0.637633	-0.159501	-0.753402	-0.019201
23686		9.465362	-1.692565	-1.866439	0.001400	-0.001694	-0.007948	-0.799316	0.235352	-0.291016	0.637608	-0.159631	-0.753397	-0.019157
23687		9.482291	-1.727092	-1.844555	-0.004600	-0.002967	-0.005637	-0.786133	0.241699	-0.286133	0.637594	-0.159565	-0.753419	-0.019301
23688		9.470866	-1.723624	-1.837825	-0.000278	-0.000259	-0.008095	-0.795654	0.245850	-0.289551	0.637604	-0.159554	-0.753413	-0.019302
23689		9.468478	-1.712988	-1.817959	0.015496	-0.003075	-0.013092	-0.793457	0.241211	-0.287598	0.637615	-0.159481	-0.753421	-0.019248
23690		9.466521	-1.710900	-1.808614	0.018147	-0.003903	-0.015277	-0.789062	0.243652	-0.292725	0.637609	-0.159247	-0.753477	-0.019164
23691		9.480331	-1.678266	-1.833908	0.018123	-0.002713	-0.013993	-0.781738	0.248291	-0.293213	0.637707	-0.159170	-0.753412	-0.019125
23692		9.487882	-1.687771	-1.832934	0.011908	-0.004632	-0.010495	-0.780273	0.245605	-0.291748	0.637810	-0.159305	-0.753297	-0.019084
23693		9.489455	-1.658056	-1.811595	0.008444	-0.004177	-0.012138	-0.791992	0.244629	-0.285400	0.637895	-0.159374	-0.753211	-0.019074
23694		9.490543	-1.686530	-1.803679	0.006121	-0.004475	-0.013671	-0.789307	0.243408	-0.284424	0.637826	-0.159291	-0.753288	-0.019029
23695		9.481260	-1.659647	-1.825486	0.005308	-0.001461	-0.009316	-0.794678	0.245850	-0.290039	0.637787	-0.159226	-0.753336	-0.018949
23696		9.474724	-1.668334	-1.807716	-0.002317	-0.000103	-0.006478	-0.796631	0.240723	-0.286621	0.637798	-0.159371	-0.753295	-0.019014
23697		9.439968	-1.728747	-1.810177	-0.006348	-0.001366	-0.010115	-0.791016	0.245850	-0.289551	0.637736	-0.159347	-0.753350	-0.019114
23698		9.470863	-1.727612	-1.853798	0.007503	-0.005769	-0.016030	-0.789551	0.248047	-0.295166	0.637722	-0.159326	-0.753365	-0.019136
23699		9.500302	-1.716714	-1.796540	0.002354	-0.004083	-0.012876	-0.783691	0.246582	-0.286133	0.637796	-0.159505	-0.753262	-0.019252
23700		9.468216	-1.707749	-1.785112	-0.007086	-0.001730	-0.014552	-0.796875	0.248291	-0.292236	0.637779	-0.159591	-0.753257	-0.019331
23701		9.457836	-1.706957	-1.829209	0.005385	-0.004828	-0.018108	-0.798584	0.246826	-0.289307	0.637775	-0.159639	-0.753246	-0.019437
23702		9.474069	-1.685511	-1.835312	0.014817	-0.006385	-0.020735	-0.790283	0.243164	-0.287598	0.637730	-0.159512	-0.753311	-0.019437
23703		9.520726	-1.679562	-1.854769	-0.004492	-0.003962	-0.012465	-0.791748	0.241211	-0.285400	0.637691	-0.159542	-0.753336	-0.019521
23704		9.464179	-1.721764	-1.791524	-0.016271	0.002066	-0.006848	-0.789551	0.247559	-0.291504	0.637655	-0.159643	-0.753342	-0.019661
23705		9.448808	-1.723502	-1.816328	-0.000912	-0.002590	-0.010118	-0.789062	0.242188	-0.284912	0.637689	-0.159810	-0.753275	-0.019739
23706		9.471513	-1.693315	-1.840171	0.013820	-0.005986	-0.012176	-0.787109	0.248535	-0.288818	0.637642	-0.159635	-0.753356	-0.019605
23707		9.497136	-1.684622	-1.854226	0.005633	-0.002576	-0.013035	-0.782715	0.244385	-0.287109	0.637665	-0.159706	-0.753321	-0.019595
23708		9.460935	-1.695608	-1.844580	-0.007319	-0.001983	-0.007776	-0.791748	0.240967	-0.283691	0.637670	-0.159833	-0.753290	-0.019643
23709		9.454844	-1.712857	-1.837814	0.004062	-0.003111	-0.010772	-0.791260	0.241211	-0.283691	0.637605	-0.159703	-0.753373	-0.019592
23710		9.474870	-1.673541	-1.841522	0.015909	-0.004736	-0.018063	-0.788574	0.244629	-0.286865	0.637550	-0.159424	-0.753482	-0.019486
23711		9.486431	-1.649921	-1.868451	0.014111	-0.005320	-0.013971	-0.800049	0.245361	-0.288086	0.637537	-0.159323	-0.753516	-0.019393
23712		9.493320	-1.640891	-1.846541	0.007089	-0.000269	-0.012766	-0.789551	0.243652	-0.288330	0.637522	-0.159293	-0.753534	-0.019410
23713		9.451952	-1.630560	-1.836608	-0.004405	-0.000965	-0.010474	-0.788574	0.242188	-0.297119	0.637529	-0.159373	-0.753510	-0.019497
23714		9.454486	-1.686146	-1.859864	-0.005208	-0.002133	-0.009999	-0.793457	0.239990	-0.281494	0.637635	-0.159550	-0.753378	-0.019702
23715		9.535786	-1.703541	-1.831045	0.005946	-0.003299	-0.011168	-0.789307	0.248535	-0.289795	0.637540	-0.159367	-0.753498	-0.019618
23716		9.479834	-1.683850	-1.794026	0.008292	-0.000596	-0.007682	-0.789307	0.238037	-0.283447	0.637591	-0.159478	-0.753433	-0.019567
23717		9.451752	-1.654019	-1.819539	0.002538	0.001144	-0.004598	-0.792969	0.243896	-0.288818	0.637577	-0.159385	-0.753467	-0.019495
23718		9.454623	-1.648302	-1.868893	0.001823	-0.000605	-0.005372	-0.787598	0.245850	-0.291260	0.637590	-0.159460	-0.753440	-0.019496
23719		9.468768	-1.665065	-1.816254	-0.003488	-0.001762	-0.008537	-0.785645	0.245361	-0.286865	0.637630	-0.159621	-0.753369	-0.019582
23720		9.493712	-1.706606	-1.833044	0.006851	-0.003496	-0.008590	-0.793701	0.245605	-0.289307	0.637631	-0.159638	-0.753367	-0.019510
23721		9.509069	-1.736954	-1.841199	0.007463	-0.000379	-0.010868	-0.794678	0.239502	-0.287109	0.637656	-0.159644	-0.753345	-0.019506
23722		9.455989	-1.725326	-1.824177	-0.005208	-0.002140	-0.009996	-0.792969	0.239990	-0.276611	0.637613	-0.159623	-0.753383	-0.019602
23723		9.475429	-1.749358	-1.801251	0.010181	-0.004365	-0.011314	-0.789307	0.236816	-0.288818	0.637467	-0.159359	-0.753567	-0.019428
23724		9.471968	-1.707349	-1.790319	0.027942	-0.004878	-0.015372	-0.789551	0.244141	-0.286621	0.637511	-0.159010	-0.753608	-0.019259
23725		9.469036	-1.657237	-1.859106	0.026030	-0.003499	-0.013692	-0.785156	0.239990	-0.286133	0.637532	-0.158811	-0.753637	-0.019059
23726		9.482558	-1.638311	-1.854890	0.010894	-0.002617	-0.010539	-0.791016	0.244141	-0.286865	0.637546	-0.158694	-0.753652	-0.018971
23727		9.469870	-1.666291	-1.829835	0.002027	-0.002959	-0.009149	-0.795166	0.244385	-0.291748	0.637521	-0.158732	-0.753665	-0.018968
23728		9.483654	-1.656649	-1.836687	0.006701	-0.003527	-0.007368	-0.788086	0.249268	-0.287109	0.637539	-0.158787	-0.753638	-0.018962
23729		9.481888	-1.664738	-1.838054	0.008708	-0.002490	-0.007705	-0.790283	0.245361	-0.290527	0.637544	-0.158882	-0.753617	-0.018874
23730		9.463985	-1.668196	-1.853081	0.000615	-0.000474	-0.005512	-0.789795	0.251953	-0.283203	0.637583	-0.159017	-0.753554	-0.018895
23731		9.464625	-1.676020	-1.863569	-0.003770	0.000560	-0.004146	-0.783691	0.238037	-0.286377	0.637540	-0.159238	-0.753545	-0.018861
23732		9.462022	-1.666112	-1.843833	0.005015	-0.002102	-0.007517	-0.789795	0.246338	-0.293701	0.637557	-0.159155	-0.753550	-0.018808
23733		9.484297	-1.699098	-1.840488	0.007152	-0.003433	-0.011022	-0.791992	0.242432	-0.290283	0.637614	-0.159227	-0.753485	-0.018838
23734		9.501036	-1.714627	-1.797279	0.004170	-0.001297	-0.010063	-0.785889	0.241699	-0.284668	0.637641	-0.159225	-0.753462	-0.018867
23735		9.466415	-1.707984	-1.775553	0.003842	-0.000166	-0.006347	-0.789062	0.249023	-0.281250	0.637642	-0.159203	-0.753467	-0.018800
23736		9.460216	-1.713041	-1.797619	0.010051	-0.001993	-0.008142	-0.785645	0.241699	-0.287109	0.637586	-0.159205	-0.753519	-0.018652
23737		9.532961	-1.674449	-1.808073	0.014312	-0.004059	-0.014510	-0.792236	0.243652	-0.294189	0.637597	-0.159049	-0.753544	-0.018572
23738		9.463296	-1.648528	-1.794750	0.015168	-0.005271	-0.017545	-0.784912	0.253662	-0.291992	0.637647	-0.158945	-0.753523	-0.018584
23739		9.472178	-1.688307	-1.785470	0.006442	-0.005185	-0.011789	-0.786133	0.247559	-0.281250	0.637679	-0.159139	-0.753455	-0.018590
23740		9.439885	-1.618358	-1.800823	0.007413	-0.001770	-0.006595	-0.781738	0.243896	-0.291260	0.637632	-0.159151	-0.753496	-0.018445
23741		9.486540	-1.668845	-1.873028	-0.008044	-0.003187	-0.007893	-0.781494	0.241943	-0.278564	0.637664	-0.159328	-0.753428	-0.018562
23742		9.479725	-1.667212	-1.845938	-0.009889	-0.004606	-0.014353	-0.793213	0.237061	-0.289795	0.637548	-0.159289	-0.753534	-0.018608
23743		9.511283	-1.767158	-1.774540	-0.008336	-0.006652	-0.013624	-0.784424	0.241699	-0.283203	0.637494	-0.159244	-0.753585	-0.018769
23744		9.473797	-1.796125	-1.777065	0.005474	-0.005596	-0.014397	-0.791748	0.246338	-0.286133	0.637441	-0.159134	-0.753654	-0.018735
23745		9.456544	-1.744039	-1.830237	0.014488	-0.005203	-0.017009	-0.791504	0.239258	-0.286621	0.637411	-0.159020	-0.753705	-0.018677
23746		9.463225	-1.720989	-1.838425	0.018346	-0.006146	-0.019054	-0.794922	0.241699	-0.280762	0.637390	-0.158736	-0.753785	-0.018598
23747		9.500512	-1.667095	-1.817613	0.019013	-0.008780	-0.016598	-0.796875	0.246582	-0.288086	0.637273	-0.158465	-0.753944	-0.018443
23748		9.474150	-1.626141	-1.843361	0.015813	-0.004110	-0.016807	-0.792480	0.245605	-0.284424	0.637261	-0.158363	-0.753977	-0.018398
23749		9.468596	-1.638536	-1.876405	0.006875	-0.004494	-0.014801	-0.785156	0.243896	-0.291260	0.637207	-0.158322	-0.754031	-0.018386
23750		9.460950	-1.664393	-1.870759	0.006092	-0.006262	-0.014960	-0.792725	0.244385	-0.284912	0.637231	-0.158335	-0.754007	-0.018429
23751		9.486337	-1.658854	-1.845277	0.006725	-0.004522	-0.013583	-0.797852	0.239746	-0.288818	0.637182	-0.158290	-0.754058	-0.018413
23752		9.476497	-1.635611	-1.827378	0.000737	-0.002667	-0.013613	-0.791504	0.232910	-0.281738	0.637163	-0.158229	-0.754085	-0.018493
23753		9.458822	-1.637260	-1.842933	0.000767	-0.003859	-0.014890	-0.783691	0.246094	-0.286377	0.637090	-0.158003	-0.754194	-0.018511
23754		9.509835	-1.683773	-1.843935	0.001177	-0.005161	-0.014270	-0.801025	0.240967	-0.290771	0.637072	-0.158079	-0.754192	-0.018563
23755		9.488199	-1.709165	-1.821342	-0.002980	-0.001284	-0.007205	-0.784912	0.234863	-0.287109	0.637070	-0.158138	-0.754179	-0.018648
23756		9.455002	-1.680261	-1.828590	0.003187	-0.001302	-0.007086	-0.790283	0.244629	-0.288574	0.637104	-0.158068	-0.754166	-0.018626
23757		9.472614	-1.601439	-1.830619	0.001337	0.000267	-0.010959	-0.791504	0.240967	-0.292969	0.637137	-0.158136	-0.754122	-0.018679
23758		9.462674	-1.578732	-1.812553	-0.006069	-0.003975	-0.009527	-0.792480	0.245117	-0.286865	0.637155	-0.158240	-0.754082	-0.018811
23759		9.582861	-1.676574	-1.849198	-0.006412	-0.002245	-0.005177	-0.790039	0.241211	-0.292236	0.637127	-0.158411	-0.754068	-0.018876
23760		9.437385	-1.671715	-1.795148	-0.009088	-0.000657	-0.007292	-0.796631	0.237793	-0.287354	0.637169	-0.158560	-0.753998	-0.019022
23761		9.478052	-1.695522	-1.817595	-0.007779	-0.004546	-0.006043	-0.785889	0.242188	-0.285400	0.637110	-0.158603	-0.754036	-0.019108
23762		9.469298	-1.701657	-1.830764	-0.000486	0.001286	-0.000010	-0.788086	0.245850	-0.287354	0.637140	-0.158731	-0.753986	-0.019065
23763		9.474509	-1.663565	-1.817223	0.001166	0.001249	-0.003524	-0.794189	0.245605	-0.287109	0.637180	-0.158873	-0.753922	-0.019053
23764		9.478573	-1.638672	-1.855683	0.009833	-0.005409	-0.014483	-0.784180	0.239990	-0.291748	0.637149	-0.158816	-0.753961	-0.019035
23765		9.480387	-1.666619	-1.847540	0.018255	-0.005523	-0.017810	-0.792236	0.235840	-0.287598	0.637210	-0.158636	-0.753948	-0.018988
23766		9.473314	-1.705281	-1.812359	-0.000263	-0.007474	-0.014525	-0.792725	0.247314	-0.285645	0.637154	-0.158521	-0.754018	-0.019061
23767		9.511831	-1.728629	-1.825350	0.015952	-0.003628	-0.012451	-0.794434	0.244141	-0.285400	0.637144	-0.158464	-0.754041	-0.018962
23768		9.459570	-1.686424	-1.826279	0.020219	-0.002865	-0.011296	-0.796875	0.242432	-0.288818	0.637143	-0.158329	-0.754073	-0.018814
23769		9.446784	-1.648260	-1.868182	0.012978	-0.004685	-0.009134	-0.788086	0.240723	-0.284912	0.637135	-0.158264	-0.754096	-0.018739
23770		9.465022	-1.641842	-1.853904	0.020897	-0.005493	-0.008838	-0.790283	0.238770	-0.282471	0.637129	-0.158112	-0.754137	-0.018549
23771		9.486074	-1.594085	-1.856733	0.014770	-0.001697	-0.011284	-0.796631	0.243652	-0.282715	0.637118	-0.157936	-0.754187	-0.018429
23772		9.474719	-1.590608	-1.849676	0.002555	-0.003044	-0.008459	-0.789062	0.237305	-0.298096	0.637051	-0.157946	-0.754241	-0.018411
23773		9.462608	-1.664783	-1.866965	0.003746	-0.002573	-0.007682	-0.789551	0.250244	-0.289307	0.637153	-0.157969	-0.754149	-0.018464
23774		9.462361	-1.653739	-1.857011	0.005322	-0.002627	-0.010587	-0.792480	0.250488	-0.287354	0.637172	-0.158091	-0.754108	-0.018476
23775		9.493844	-1.679252	-1.841113	0.006795	-0.004081	-0.008609	-0.785400	0.244141	-0.287842	0.637153	-0.158201	-0.754101	-0.018444
23776		9.488547	-1.710274	-1.804062	0.000590	0.000115	-0.004870	-0.789551	0.244873	-0.289795	0.637192	-0.158325	-0.754042	-0.018448
23777		9.467301	-1.693009	-1.828507	0.014089	-0.001223	-0.005168	-0.794678	0.245605	-0.284912	0.637247	-0.158350	-0.753992	-0.018343
23778		9.466017	-1.661350	-1.836817	0.019972	0.000700	-0.006254	-0.784424	0.241211	-0.286621	0.637274	-0.158273	-0.753991	-0.018158
23779		9.472207	-1.641348	-1.843776	0.007196	0.000618	-0.002831	-0.796875	0.248779	-0.289551	0.637322	-0.158309	-0.753945	-0.018072
23780		9.463736	-1.611466	-1.824256	0.001092	-0.001348	0.000082	-0.791504	0.236816	-0.289551	0.637323	-0.158514	-0.753902	-0.018050
23781		9.539136	-1.645541	-1.827809	0.004142	-0.002855	-0.000844	-0.788574	0.246094	-0.287842	0.637336	-0.158528	-0.753889	-0.017996
23782		9.463399	-1.651515	-1.816882	0.005524	-0.001569	-0.006197	-0.792480	0.240234	-0.286377	0.637353	-0.158604	-0.753859	-0.017963
23783		9.473286	-1.661795	-1.825435	0.004909	-0.003487	-0.002629	-0.794922	0.240723	-0.293213	0.637330	-0.158613	-0.753878	-0.017892
23784		9.479185	-1.646351	-1.793003	0.007178	0.001639	0.003382	-0.787354	0.246094	-0.286621	0.637411	-0.158712	-0.753791	-0.017818
23785		9.467212	-1.682685	-1.817077	0.001069	0.002251	0.003296	-0.792236	0.239502	-0.292969	0.637450	-0.158898	-0.753720	-0.017747
23786		9.457465	-1.668047	-1.848518	0.011584	-0.000389	-0.004199	-0.787354	0.240723	-0.291504	0.637522	-0.158871	-0.753667	-0.017684
23787		9.493462	-1.694326	-1.850871	0.012414	-0.002987	-0.002955	-0.785889	0.245605	-0.284912	0.637572	-0.158866	-0.753628	-0.017581
23788		9.468341	-1.704238	-1.797480	0.000595	-0.002466	-0.001869	-0.797363	0.244873	-0.289551	0.637551	-0.158983	-0.753621	-0.017529
23789		9.454390	-1.699137	-1.821050	0.011925	-0.001701	-0.002968	-0.789795	0.246826	-0.281982	0.637566	-0.158992	-0.753610	-0.017426
23790		9.454946	-1.707999	-1.831418	0.021247	-0.004389	-0.005661	-0.795898	0.246338	-0.285400	0.637532	-0.158889	-0.753665	-0.017187
23791		9.478211	-1.710975	-1.846113	0.014151	-0.003186	-0.002137	-0.786621	0.248535	-0.285889	0.637508	-0.158879	-0.753692	-0.017021
23792		9.475337	-1.702688	-1.826082	0.007341	0.001073	0.001526	-0.801270	0.246338	-0.283936	0.637540	-0.159015	-0.753639	-0.016900
23793		9.444054	-1.675834	-1.842111	0.007431	0.000489	0.000281	-0.792725	0.243652	-0.287598	0.637510	-0.159049	-0.753660	-0.016776
23794		9.464976	-1.679588	-1.847086	0.011059	-0.002888	-0.001874	-0.791504	0.251953	-0.292480	0.637509	-0.159049	-0.753663	-0.016651
23795		9.484123	-1.692464	-1.853127	0.007700	-0.001266	-0.003454	-0.793457	0.246094	-0.277588	0.637555	-0.159205	-0.753592	-0.016615
23796		9.468427	-1.700488	-1.837205	0.001428	-0.000085	-0.001687	-0.781982	0.239258	-0.287598	0.637480	-0.159230	-0.753653	-0.016508
23797		9.466367	-1.750499	-1.829877	0.002430	-0.000847	-0.000358	-0.786377	0.250000	-0.289795	0.637513	-0.159278	-0.753616	-0.016449
23798		9.472857	-1.743981	-1.807538	0.008149	0.001650	0.000405	-0.788086	0.250244	-0.277588	0.637581	-0.159432	-0.753528	-0.016364
23799		9.462837	-1.683373	-1.796813	0.010628	-0.000991	-0.001861	-0.786133	0.244141	-0.281738	0.637530	-0.159454	-0.753570	-0.016183
23800		9.480168	-1.706122	-1.803434	0.006786	-0.000657	-0.000452	-0.786621	0.250488	-0.283691	0.637514	-0.159473	-0.753583	-0.016051
23801		9.470811	-1.704548	-1.805515	0.005962	-0.000634	0.001305	-0.791504	0.242920	-0.286133	0.637509	-0.159617	-0.753559	-0.015942
23802		9.460652	-1.730772	-1.829231	0.009232	-0.002103	-0.001445	-0.787842	0.249023	-0.291504	0.637503	-0.159595	-0.753571	-0.015818
23803		9.511304	-1.730496	-1.827161	0.009884	-0.003960	-0.003283	-0.790283	0.252197	-0.289062	0.637530	-0.159683	-0.753531	-0.015749
23804		9.481538	-1.737471	-1.794971	0.007380	-0.003126	-0.002317	-0.792236	0.245605	-0.287354	0.637533	-0.159819	-0.753501	-0.015688
23805		9.452576	-1.713245	-1.780988	0.020520	-0.002543	-0.003210	-0.789795	0.243652	-0.289307	0.637552	-0.159727	-0.753509	-0.015484
23806		9.467832	-1.692213	-1.826490	0.019933	-0.003079	-0.003914	-0.787354	0.243652	-0.292969	0.637585	-0.159627	-0.753506	-0.015299
23807		9.450809	-1.718789	-1.822031	0.005823	-0.004101	-0.005621	-0.790039	0.239990	-0.283447	0.637613	-0.159656	-0.753476	-0.015282
23808		9.494282	-1.756145	-1.823597	0.013652	-0.004306	-0.004081	-0.796387	0.247070	-0.293945	0.637578	-0.159515	-0.753539	-0.015108
23809		9.489177	-1.747314	-1.794513	0.015178	-0.002570	-0.005080	-0.780518	0.249756	-0.281494	0.637621	-0.159492	-0.753509	-0.015009
23810		9.451956	-1.735318	-1.843729	0.008237	-0.004349	-0.005341	-0.790283	0.243896	-0.296387	0.637583	-0.159544	-0.753533	-0.014915
23811		9.439863	-1.723691	-1.826719	0.010178	-0.003910	-0.005715	-0.793701	0.241943	-0.290771	0.637637	-0.159545	-0.753487	-0.014874
23812		9.484681	-1.742192	-1.817037	0.010708	-0.003983	-0.005036	-0.789062	0.249023	-0.281006	0.637642	-0.159480	-0.753499	-0.014786
23813		9.451173	-1.714261	-1.824412	0.005650	-0.000960	-0.006775	-0.784668	0.243652	-0.289307	0.637604	-0.159492	-0.753529	-0.014726
23814		9.462218	-1.742303	-1.853507	-0.005131	-0.002408	-0.005626	-0.786377	0.251953	-0.286133	0.637605	-0.159591	-0.753506	-0.014792
23815		9.463510	-1.766030	-1.794601	-0.005074	-0.001797	-0.005600	-0.788818	0.246826	-0.288574	0.637582	-0.159778	-0.753485	-0.014862
23816		9.464205	-1.773907	-1.805244	0.003620	-0.000810	-0.005158	-0.789551	0.250244	-0.291016	0.637599	-0.159831	-0.753460	-0.014847
23817		9.469493	-1.781459	-1.834607	0.010822	-0.002757	-0.004985	-0.785156	0.244141	-0.287109	0.637626	-0.159884	-0.753426	-0.014781
23818		9.455373	-1.729672	-1.815942	0.006164	-0.000432	-0.005463	-0.780762	0.244141	-0.291748	0.637650	-0.159879	-0.753408	-0.014730
23819		9.450925	-1.725533	-1.837210	0.006376	-0.002806	-0.009219	-0.790283	0.242188	-0.288086	0.637695	-0.159878	-0.753370	-0.014730
23820		9.476328	-1.720618	-1.811175	0.012027	-0.003321	-0.010420	-0.785645	0.242676	-0.281006	0.637697	-0.159739	-0.753400	-0.014654
23821		9.473043	-1.737717	-1.813192	0.007069	-0.003455	-0.010392	-0.789062	0.240234	-0.284668	0.637649	-0.159629	-0.753465	-0.014593
23822		9.480866	-1.747316	-1.812102	0.007623	-0.001717	-0.008419	-0.793457	0.236328	-0.293945	0.637637	-0.159508	-0.753502	-0.014524
23823		9.443869	-1.738090	-1.820894	0.006929	-0.001068	-0.007245	-0.786621	0.244141	-0.296631	0.637685	-0.159372	-0.753491	-0.014474
23824		9.426685	-1.714119	-1.814461	0.004143	-0.003294	-0.006407	-0.785156	0.245361	-0.284424	0.637739	-0.159406	-0.753438	-0.014475
23825		9.514671	-1.760610	-1.795593	0.005440	-0.004003	-0.007512	-0.786377	0.248535	-0.287842	0.637707	-0.159404	-0.753467	-0.014439
23826		9.476501	-1.733199	-1.784226	0.004843	-0.001531	-0.005653	-0.787109	0.250732	-0.287109	0.637718	-0.159472	-0.753443	-0.014419
23827		9.443475	-1.714662	-1.801680	0.006017	-0.000453	-0.004246	-0.789551	0.245117	-0.280518	0.637734	-0.159567	-0.753410	-0.014383
23828		9.458301	-1.686702	-1.797298	0.004289	-0.003270	-0.007624	-0.785156	0.248291	-0.295898	0.637670	-0.159536	-0.753472	-0.014343
23829		9.460680	-1.725127	-1.799111	-0.001933	-0.003899	-0.007760	-0.788818	0.249023	-0.288330	0.637702	-0.159661	-0.753416	-0.014424
23830		9.489341	-1.738029	-1.803914	0.003076	-0.005560	-0.009691	-0.789307	0.244873	-0.283203	0.637668	-0.159701	-0.753436	-0.014447
23831		9.492903	-1.794306	-1.826338	0.000411	-0.002188	-0.010519	-0.793213	0.246094	-0.286621	0.637627	-0.159677	-0.753476	-0.014478
23832		9.437440	-1.783339	-1.800295	-0.006968	-0.004498	-0.012694	-0.791016	0.248047	-0.295654	0.637563	-0.159707	-0.753521	-0.014603
23833		9.456407	-1.824588	-1.788651	0.002289	-0.004767	-0.012848	-0.784912	0.255127	-0.289551	0.637580	-0.159724	-0.753502	-0.014676
23834		9.457349	-1.790298	-1.808404	0.016572	-0.007291	-0.015567	-0.787109	0.248779	-0.288330	0.637574	-0.159702	-0.753512	-0.014645
23835		9.473452	-1.778827	-1.825220	0.016829	-0.006044	-0.016734	-0.790771	0.239014	-0.286865	0.637568	-0.159571	-0.753545	-0.014595
23836		9.455283	-1.731246	-1.838692	0.005161	-0.003129	-0.014928	-0.788086	0.241943	-0.291992	0.637551	-0.159404	-0.753596	-0.014604
23837		9.445927	-1.716631	-1.831251	-0.000932	-0.003143	-0.015644	-0.790771	0.241699	-0.278809	0.637560	-0.159347	-0.753597	-0.014705
23838		9.475523	-1.736912	-1.846153	0.007717	-0.005754	-0.017795	-0.788818	0.244141	-0.284424	0.637470	-0.159151	-0.753715	-0.014698
23839		9.463896	-1.722411	-1.829315	0.007865	-0.003319	-0.017086	-0.785889	0.240723	-0.292725	0.637445	-0.159023	-0.753763	-0.014717
23840		9.432818	-1.728494	-1.878537	-0.007650	-0.004915	-0.017719	-0.788330	0.246094	-0.290771	0.637436	-0.158997	-0.753773	-0.014890
23841		9.467946	-1.763214	-1.842915	-0.003900	-0.004647	-0.017888	-0.789795	0.251465	-0.281006	0.637417	-0.159001	-0.753785	-0.015045
23842		9.468689	-1.762277	-1.803950	-0.000222	-0.004389	-0.017449	-0.789307	0.244873	-0.287598	0.637342	-0.159030	-0.753840	-0.015168
23843		9.493724	-1.742357	-1.808257	0.012398	-0.004275	-0.019672	-0.786133	0.248047	-0.285889	0.637338	-0.158864	-0.753878	-0.015175
23844		9.459373	-1.730518	-1.826653	0.011940	-0.001781	-0.019032	-0.788330	0.242920	-0.288818	0.637353	-0.158764	-0.753886	-0.015201
23845		9.462178	-1.685778	-1.844709	0.007369	-0.002028	-0.017104	-0.796875	0.244873	-0.292725	0.637371	-0.158649	-0.753895	-0.015237
23846		9.448288	-1.671787	-1.817938	0.002870	-0.002264	-0.015785	-0.785889	0.246094	-0.289307	0.637382	-0.158588	-0.753896	-0.015313
23847		9.479484	-1.641781	-1.840488	-0.005873	-0.003904	-0.016239	-0.791504	0.245361	-0.283691	0.637364	-0.158645	-0.753896	-0.015482
23848		9.522129	-1.684888	-1.843319	-0.006496	-0.003245	-0.015675	-0.788330	0.250244	-0.281982	0.637304	-0.158669	-0.753939	-0.015634
23849		9.415805	-1.704685	-1.801033	-0.013670	-0.004947	-0.019033	-0.783447	0.245117	-0.288574	0.637209	-0.158794	-0.753987	-0.015901
23850		9.438873	-1.690453	-1.846654	-0.010581	-0.000402	-0.015447	-0.792236	0.246338	-0.288086	0.637219	-0.158895	-0.753953	-0.016117
23851		9.479938	-1.705619	-1.818439	-0.011859	-0.002708	-0.016901	-0.787109	0.250000	-0.285400	0.637181	-0.158973	-0.753964	-0.016346
23852		9.465880	-1.687028	-1.832702	-0.013364	-0.003085	-0.020175	-0.791260	0.247559	-0.283691	0.637131	-0.159095	-0.753974	-0.016633
23853		9.475948	-1.685628	-1.793939	0.005952	-0.025422	-0.034044	-0.788574	0.247070	-0.290771	0.636887	-0.158883	-0.754221	-0.016782
23854		9.511349	-1.756817	-1.884477	0.004151	-0.021027	-0.031030	-0.791748	0.249512	-0.280029	0.636735	-0.158750	-0.754373	-0.016960
23855		9.477949	-1.765210	-1.887067	-0.023346	-0.009182	-0.013484	-0.790039	0.241943	-0.287598	0.636574	-0.158987	-0.754453	-0.017256
23856		9.431661	-1.824104	-1.873128	-0.033628	-0.000981	-0.008864	-0.786621	0.239746	-0.285400	0.636523	-0.159280	-0.754425	-0.017621
23857		9.420633	-1.747928	-1.763197	-0.006667	0.001117	-0.016168	-0.791016	0.243164	-0.287598	0.636540	-0.159261	-0.754412	-0.017777
23858		9.487381	-1.693320	-1.784905	0.038267	-0.001362	-0.027706	-0.794189	0.244873	-0.289551	0.636624	-0.158814	-0.754439	-0.017614
23859		9.489660	-1.707362	-1.803978	0.044126	-0.000753	-0.024537	-0.790039	0.241455	-0.284668	0.636728	-0.158375	-0.754448	-0.017385
23860		9.471798	-1.665845	-1.865031	0.024096	0.006966	-0.016126	-0.788818	0.247070	-0.288574	0.636846	-0.158134	-0.754402	-0.017269
23861		9.461144	-1.561962	-1.861249	0.000862	0.009506	-0.010719	-0.797607	0.244385	-0.284424	0.636967	-0.158225	-0.754279	-0.017377
23862		9.481961	-1.549943	-1.894746	-0.003283	0.003727	-0.011376	-0.797119	0.233887	-0.290771	0.636980	-0.158256	-0.754259	-0.017478
23863		9.512551	-1.579864	-1.918361	0.005574	0.001802	-0.014727	-0.792480	0.238037	-0.290527	0.637031	-0.158074	-0.754253	-0.017490
23864		9.481793	-1.587558	-1.835529	-0.001760	0.000652	-0.016230	-0.781250	0.240723	-0.288330	0.637064	-0.158009	-0.754236	-0.017607
23865		9.452516	-1.650836	-1.805301	-0.004639	-0.000408	-0.013511	-0.789062	0.246826	-0.285156	0.637092	-0.158065	-0.754198	-0.017749
23866		9.482170	-1.734339	-1.781998	0.006042	-0.002050	-0.011087	-0.785156	0.239258	-0.290283	0.637090	-0.158100	-0.754191	-0.017780
23867		9.515144	-1.705610	-1.813580	0.014255	-0.004078	-0.008961	-0.792236	0.240479	-0.282471	0.637125	-0.158022	-0.754180	-0.017694
23868		9.491405	-1.661973	-1.807313	0.012915	0.000679	0.000902	-0.793457	0.246826	-0.290039	0.637143	-0.158012	-0.754171	-0.017527
23869		9.423018	-1.610396	-1.820907	0.015884	-0.000211	0.001220	-0.794678	0.240967	-0.284424	0.637199	-0.158080	-0.754113	-0.017376
23870		9.547890	-1.617534	-1.881623	0.017019	-0.004557	-0.001246	-0.791992	0.244141	-0.291504	0.637180	-0.158017	-0.754146	-0.017180
23871		9.419950	-1.602030	-1.801553	0.004617	-0.003342	-0.005118	-0.797852	0.238525	-0.291260	0.637194	-0.158087	-0.754120	-0.017172
23872		9.506027	-1.645014	-1.813669	0.003962	-0.005260	-0.000931	-0.784180	0.233398	-0.281982	0.637176	-0.158109	-0.754133	-0.017099
23873		9.489678	-1.644864	-1.787923	0.006309	-0.001269	0.003162	-0.794189	0.249268	-0.290039	0.637177	-0.158110	-0.754135	-0.016950
23874		9.434887	-1.691244	-1.852913	0.006217	-0.000681	0.004403	-0.791504	0.240967	-0.289307	0.637207	-0.158300	-0.754071	-0.016871
23875		9.444140	-1.631591	-1.888543	0.011859	-0.002958	0.001905	-0.785645	0.244141	-0.288818	0.637228	-0.158326	-0.754051	-0.016717
23876		9.505919	-1.626342	-1.843917	0.009594	-0.005125	-0.001507	-0.790771	0.252441	-0.289551	0.637232	-0.158395	-0.754036	-0.016628
23877		9.446548	-1.600035	-1.787475	-0.008646	-0.000911	-0.005965	-0.789062	0.241943	-0.283447	0.637231	-0.158648	-0.753980	-0.016787
23878		9.452203	-1.643824	-1.848918	-0.008534	-0.002100	-0.007838	-0.786865	0.242432	-0.288086	0.637190	-0.158742	-0.753993	-0.016897
23879		9.408589	-1.766053	-1.804525	-0.008147	0.000531	-0.014503	-0.798828	0.245850	-0.289307	0.637203	-0.158796	-0.753966	-0.017079
23880		9.464010	-1.585014	-1.763309	0.016192	0.009220	-0.026236	-0.782959	0.245361	-0.285889	0.637327	-0.158545	-0.753913	-0.017144
23881		9.439497	-1.655380	-1.838739	0.025020	0.020295	-0.051417	-0.792969	0.241211	-0.289795	0.637578	-0.158033	-0.753803	-0.017364
23882		9.231632	-1.158206	-2.076917	0.114252	0.002085	-0.116226	-0.791748	0.240479	-0.288330	0.637817	-0.156135	-0.754000	-0.017202
23883		9.392428	-0.602884	-2.261448	0.128926	-0.026092	-0.210266	-0.795654	0.237061	-0.280762	0.637786	-0.153268	-0.754605	-0.017607
23884		9.560498	0.087787	-2.351266	0.155176	-0.075724	-0.344731	-0.791260	0.224854	-0.288818	0.637249	-0.148917	-0.755901	-0.018729
23885		9.279687	0.955511	-2.284995	0.163561	-0.128542	-0.513153	-0.789062	0.219971	-0.288818	0.636229	-0.142918	-0.757855	-0.021040
23886		9.147320	1.784531	-2.595707	0.161652	-0.061230	-0.748536	-0.794189	0.198975	-0.283447	0.635757	-0.134791	-0.759604	-0.025427
23887		8.484292	3.481136	-2.650823	0.138271	0.014885	-1.031949	-0.806396	0.170898	-0.289551	0.635765	-0.124037	-0.761162	-0.032389
23888		7.948850	4.837590	-2.523225	-0.379430	-0.039040	-1.279870	-0.804199	0.157959	-0.285156	0.634229	-0.114955	-0.763157	-0.046162
23889		7.068035	5.653580	-1.596926	-1.264337	-0.018482	-1.496383	-0.810303	0.138428	-0.281006	0.631208	-0.110926	-0.764423	-0.070204
23890		7.869147	1.510509	-1.147089	-2.103229	0.312322	-1.570221	-0.820068	0.110107	-0.281738	0.629575	-0.112473	-0.761784	-0.103300
23891		7.121920	-1.444159	-0.635223	-1.055289	0.242252	-1.603499	-0.816162	0.091064	-0.282471	0.628164	-0.105273	-0.760488	-0.126434
23892		8.053188	-1.139787	-2.092387	-0.550732	-0.018627	-1.475274	-0.830811	0.060547	-0.283203	0.624829	-0.095791	-0.761480	-0.143390
23893		8.259370	-1.136029	-1.762421	-0.786911	-0.180313	-1.331987	-0.822021	0.050049	-0.273438	0.619678	-0.089681	-0.762876	-0.161173
23894		9.167459	3.853917	-1.511710	-0.625976	-0.176073	-1.272719	-0.830811	0.033447	-0.276367	0.614637	-0.083026	-0.764210	-0.176948
23895		10.944700	0.158957	-2.014495	-1.026308	-0.412814	-1.178531	-0.824463	0.019531	-0.262939	0.606907	-0.080988	-0.766052	-0.195626
23896		10.299134	-3.055518	-2.378646	-0.024408	-0.119053	-1.158302	-0.834229	-0.015381	-0.257568	0.602852	-0.070848	-0.767864	-0.204780
23897		11.812167	1.555183	-1.626059	0.864996	-0.273672	-1.302699	-0.833984	-0.048096	-0.248535	0.597545	-0.052710	-0.773106	-0.206079
23898		16.424266	-3.037842	-1.240205	0.485856	-0.335283	-0.731600	-0.830566	-0.070557	-0.249023	0.592704	-0.043016	-0.777278	-0.206614
23899		17.753818	-7.158333	-3.114074	0.641039	-0.002724	0.323925	-0.833252	-0.064453	-0.239990	0.593886	-0.041593	-0.778673	-0.198086
23900		18.839116	0.138958	-3.211527	1.350818	0.024870	0.904589	-0.831787	-0.047607	-0.244873	0.596988	-0.040359	-0.781202	-0.178047
23901		26.542429	0.028873	-3.084109	0.901155	0.300127	1.154317	-0.834473	-0.033447	-0.241699	0.602904	-0.044512	-0.780179	-0.160770
23902		25.070600	-8.438327	-4.583530	0.889684	0.636596	2.016341	-0.828369	0.006592	-0.262451	0.613440	-0.056175	-0.775754	-0.136897
23903		21.951401	1.023454	-5.327442	1.650928	0.745105	2.324651	-0.825195	0.034668	-0.274414	0.625460	-0.064940	-0.770649	-0.103357
23904		14.560258	8.916044	-4.865313	0.196754	0.835801	2.132110	-0.822021	0.080566	-0.298340	0.636195	-0.082765	-0.762341	-0.085105
23905		7.345635	3.218007	-3.016168	-0.169721	0.473195	1.700188	-0.811035	0.105713	-0.299316	0.642227	-0.099893	-0.756411	-0.073544
23906		1.216167	-0.081871	-2.170215	1.265230	0.054943	1.356559	-0.812744	0.136475	-0.301514	0.645382	-0.102290	-0.755298	-0.050429
23907		-1.598507	5.567898	-1.313926	1.277515	-0.083209	0.770363	-0.820557	0.141846	-0.302490	0.646531	-0.099234	-0.755745	-0.031617
23908		1.476013	11.887282	-0.793725	0.006146	-0.325212	0.163238	-0.817871	0.140381	-0.293701	0.643399	-0.100719	-0.758308	-0.029351
23909		1.459289	2.481299	-0.685800	-0.799965	0.080599	0.012880	-0.817871	0.145264	-0.292480	0.643008	-0.107094	-0.757453	-0.036560
23910		-1.177100	-0.580878	-0.036961	-0.483048	0.150267	-0.134666	-0.810791	0.151123	-0.299805	0.643593	-0.109492	-0.756325	-0.042089
23911		-0.945242	0.057633	-0.402926	-0.317344	-0.128784	-0.298738	-0.819336	0.143555	-0.294922	0.641732	-0.109343	-0.757627	-0.047175
23912		-0.206693	0.803155	-1.620191	-0.321921	-0.111490	-0.191128	-0.813232	0.143555	-0.287842	0.640050	-0.110121	-0.758662	-0.051392
23913		0.241292	1.365922	-1.145340	-0.500201	0.143367	-0.167065	-0.816650	0.144043	-0.301025	0.640527	-0.112443	-0.757482	-0.057466
23914		-0.005732	3.406197	0.527054	-0.888235	0.184883	-0.296445	-0.816406	0.138916	-0.283203	0.640787	-0.116669	-0.755704	-0.068494
23915		0.266791	1.944740	-0.042841	-0.783240	0.089409	-0.515180	-0.819092	0.140137	-0.299561	0.639884	-0.117862	-0.755171	-0.079840
23916		2.063728	3.369199	-1.007709	-0.312981	0.187398	-1.056291	-0.815674	0.119629	-0.292725	0.640085	-0.110254	-0.754825	-0.091511
23917		7.733989	7.333618	0.404199	-0.795682	-0.249259	-1.446697	-0.816650	0.097656	-0.292236	0.634796	-0.103269	-0.757784	-0.110146
23918		24.404467	-12.884882	-9.010294	-0.701655	-1.541550	-1.312033	-0.820312	0.077637	-0.259521	0.617268	-0.098635	-0.770425	-0.125288
23919		30.316428	-11.803118	-7.271466	-1.097857	-0.188449	0.165540	-0.830078	0.093018	-0.249268	0.614338	-0.109167	-0.769805	-0.134430
23920		38.554092	5.806632	-6.242769	-0.139072	-0.294749	0.583481	-0.827393	0.104492	-0.248047	0.612273	-0.116502	-0.771005	-0.130768
23921		34.775357	-5.176010	3.853019	-0.967713	0.466946	0.944115	-0.825684	0.125488	-0.255371	0.616852	-0.132404	-0.764284	-0.133539
23922		26.281236	-6.934645	-6.031200	1.236746	0.584214	1.013263	-0.814209	0.137939	-0.268799	0.626082	-0.131608	-0.759950	-0.114789
23923		7.298972	4.868033	-3.939241	1.374921	0.685327	1.045420	-0.814209	0.155762	-0.287109	0.636222	-0.129812	-0.754610	-0.094515
23924		1.312661	3.715259	-4.232529	0.475368	-0.025437	0.920364	-0.808350	0.175293	-0.296143	0.637792	-0.134838	-0.753813	-0.082505
23925		0.674096	2.837401	-1.077551	-0.144292	-0.242128	0.598661	-0.814697	0.185791	-0.285156	0.635925	-0.142099	-0.754462	-0.078698
23926		0.843724	5.720058	-0.968676	0.295036	-0.163501	0.032154	-0.815186	0.186279	-0.283691	0.634933	-0.140323	-0.755981	-0.075245
23927		1.045374	4.748217	-1.208125	-0.346400	-0.064129	-0.166315	-0.822754	0.178955	-0.271240	0.633559	-0.141711	-0.756423	-0.079659
23928		-0.310863	0.485957	0.264160	-1.244691	0.125234	-0.180840	-0.820312	0.178711	-0.275391	0.632199	-0.149687	-0.754522	-0.092816
23929		-0.304983	-3.042665	1.239392	-0.756020	-0.088501	-0.180823	-0.828613	0.181152	-0.264648	0.629694	-0.154006	-0.754685	-0.101085
23930		0.074661	-1.544160	-0.898714	-0.320700	-0.185214	0.072674	-0.814453	0.187256	-0.259033	0.627346	-0.157356	-0.755700	-0.102923
23931		0.367000	0.513061	0.602673	-0.433557	-0.013184	0.157749	-0.821289	0.198730	-0.265381	0.626523	-0.162305	-0.754965	-0.105612
23932		0.448017	2.762105	1.497693	-0.782286	0.000920	0.032802	-0.806885	0.201416	-0.262207	0.624971	-0.168818	-0.753801	-0.112672
23933		0.891724	5.450085	-0.633919	-0.574815	0.127404	-0.421266	-0.822021	0.193359	-0.260010	0.624387	-0.169292	-0.752775	-0.121701
23934		4.132822	6.041506	-0.216402	-0.899922	-0.055462	-1.129023	-0.820557	0.178467	-0.259277	0.620148	-0.165768	-0.754102	-0.138810
23935		11.101257	-1.073258	2.402127	-0.289523	-0.231082	-1.642757	-0.827637	0.149170	-0.251953	0.614430	-0.153006	-0.758542	-0.153878
23936		26.211114	5.968198	-7.575477	0.374999	-0.518954	-1.943950	-0.835449	0.105957	-0.243652	0.606330	-0.132800	-0.766632	-0.164327
23937		30.456695	-4.167106	-11.163430	-0.387758	-0.573659	-1.382920	-0.832764	0.084717	-0.231445	0.597282	-0.123811	-0.772234	-0.177705
23938		31.327840	-13.547394	-3.864284	-0.052678	0.048816	-0.326991	-0.836914	0.079834	-0.231201	0.597008	-0.121204	-0.772115	-0.180913
23939		33.077836	-11.764899	-1.440208	1.590506	0.406350	0.672845	-0.836182	0.081543	-0.235107	0.604789	-0.115100	-0.771370	-0.161158
23940		26.090843	0.380376	-4.489213	1.131970	0.829244	1.432819	-0.827148	0.105225	-0.258545	0.617139	-0.118744	-0.765074	-0.140360
23941		12.660558	4.364279	-6.006011	1.627526	0.703295	1.372278	-0.825684	0.124268	-0.281738	0.628496	-0.118150	-0.760129	-0.115055
23942		4.230607	3.880838	-5.282329	1.685714	0.318908	0.900805	-0.823730	0.122559	-0.283691	0.635184	-0.113090	-0.758444	-0.092280
23943		0.343685	8.162276	-0.574281	0.693939	0.039041	0.339867	-0.817383	0.127441	-0.300537	0.636865	-0.110710	-0.758482	-0.082775
23944		0.246351	4.482810	-1.386977	0.083416	-0.185267	-0.102295	-0.827881	0.130127	-0.283691	0.635194	-0.109374	-0.760097	-0.082577
23945		1.133663	-1.190001	-1.465525	-0.100595	-0.048884	-0.088882	-0.818359	0.124268	-0.284424	0.634460	-0.109441	-0.760550	-0.083944
23946		-0.630984	-1.035344	0.680461	0.028876	0.058722	0.273187	-0.814209	0.123535	-0.291992	0.635338	-0.111825	-0.759739	-0.081471
23947		-0.917547	0.468722	0.120984	-0.033415	-0.237606	0.319250	-0.818359	0.133057	-0.286621	0.633399	-0.115412	-0.761088	-0.078933
23948		0.252433	0.100895	-0.394645	0.262451	-0.232695	0.178379	-0.822754	0.138916	-0.278809	0.631769	-0.115317	-0.762886	-0.074665
23949		0.642498	0.462861	0.290848	0.454201	-0.105228	0.163365	-0.823730	0.139404	-0.272949	0.631560	-0.113448	-0.763892	-0.068773
23950		-0.125546	3.636019	0.258994	0.912153	-0.023067	-0.003836	-0.831543	0.125000	-0.289307	0.632550	-0.106267	-0.764856	-0.059859
23951		-0.589141	6.214845	0.095953	0.481537	-0.169231	-0.410560	-0.822510	0.125244	-0.284180	0.631282	-0.098640	-0.767045	-0.058275
23952		5.359405	2.626566	-3.269099	0.223441	-0.023605	-0.805259	-0.824707	0.107666	-0.285156	0.630752	-0.089336	-0.768287	-0.062499
23953		12.913321	-2.835540	-0.366685	-0.302698	0.059673	-0.766153	-0.819580	0.087646	-0.281006	0.630400	-0.084498	-0.768331	-0.071583
23954		17.476737	3.478149	-7.501560	0.513661	-0.516568	-1.127176	-0.823975	0.066406	-0.266357	0.624912	-0.070212	-0.773902	-0.075033
23955		32.879448	26.098546	-15.572797	-0.226285	-0.679088	-2.168486	-0.816406	0.017334	-0.265625	0.615855	-0.051788	-0.780574	-0.093516
23956		19.261380	-14.748843	7.405651	-3.536500	-0.024212	-0.758265	-0.834961	0.033691	-0.263916	0.611884	-0.071922	-0.776149	-0.134233
23957		15.318882	-35.619845	-3.853500	1.384283	-0.324072	-0.098618	-0.838379	0.016113	-0.258545	0.609805	-0.061228	-0.780782	-0.121525
23958		21.996539	8.110541	0.468751	2.301499	0.374034	0.758296	-0.828125	0.020752	-0.260010	0.616182	-0.050628	-0.780386	-0.093562
23959		9.334771	6.178050	-2.035120	-2.281655	0.377349	1.838394	-0.817627	0.065186	-0.261963	0.620210	-0.085824	-0.773050	-0.101820
23960		3.728384	-8.633478	-5.936339	-0.606464	-0.069371	1.396630	-0.817139	0.103516	-0.258057	0.620601	-0.104186	-0.771124	-0.096787
23961		7.751386	-3.094329	-0.062789	1.378531	-0.170003	1.120164	-0.825684	0.116699	-0.263184	0.621992	-0.104574	-0.772428	-0.074464
23962		8.477052	4.061273	-0.951631	1.446027	-0.028867	0.853852	-0.821533	0.127686	-0.266357	0.624305	-0.101635	-0.772677	-0.053707
23963		7.420418	7.927175	-1.199843	0.725916	0.115815	0.490324	-0.815430	0.130615	-0.276367	0.626677	-0.100726	-0.771549	-0.042928
23964		8.206157	6.273918	-4.081314	-0.249260	0.077144	0.250477	-0.813965	0.141602	-0.276855	0.627325	-0.105226	-0.770383	-0.043589
23965		8.752734	1.276335	-5.108403	-0.349447	-0.023286	0.091910	-0.822021	0.141602	-0.272461	0.626769	-0.109093	-0.770138	-0.046342
23966		9.711523	0.198722	-3.163686	-0.131732	-0.047689	-0.054674	-0.820557	0.142334	-0.263672	0.626136	-0.109732	-0.770459	-0.048015
23967		9.715473	0.567089	-1.765317	0.047511	0.002289	-0.121062	-0.822754	0.141113	-0.271973	0.626137	-0.108252	-0.770643	-0.048406
23968		9.869172	-0.139071	-1.923527	-0.119669	0.051881	-0.053363	-0.813721	0.132568	-0.279053	0.626485	-0.108783	-0.770177	-0.050105
23969		9.502436	-0.980207	-2.679095	-0.176910	0.053381	0.085234	-0.818359	0.145508	-0.273193	0.626920	-0.111136	-0.769393	-0.051515
23970		9.263533	0.033479	-2.788802	-0.197249	0.060679	0.185930	-0.817139	0.142822	-0.275146	0.627394	-0.114606	-0.768457	-0.052112
23971		9.555029	1.315862	-2.092286	-0.156175	0.096578	0.113853	-0.813477	0.147949	-0.274902	0.628228	-0.116981	-0.767357	-0.052998
23972		9.759980	1.314715	-1.947718	-0.142148	0.140755	-0.002959	-0.813721	0.161377	-0.287354	0.629416	-0.118115	-0.766087	-0.054717
23973		10.178783	1.791943	-1.560416	-0.168793	0.207455	-0.081948	-0.814697	0.154053	-0.282959	0.631208	-0.118857	-0.764287	-0.057576
23974		9.780623	2.029366	-1.482671	-0.342078	0.254932	-0.148215	-0.813721	0.149658	-0.286377	0.633071	-0.120151	-0.762151	-0.062540
23975		9.457521	1.533653	-2.194795	-0.558976	0.238624	-0.277530	-0.811035	0.151367	-0.292725	0.634313	-0.121901	-0.760135	-0.070584
23976		9.134046	-0.873208	-2.324419	-0.659332	0.155097	-0.380088	-0.798340	0.144775	-0.284668	0.634486	-0.123623	-0.758741	-0.080358
23977		10.210314	-4.177562	-0.174059	-0.814778	0.007696	-0.240048	-0.797607	0.147461	-0.284180	0.633064	-0.127997	-0.758100	-0.090175
23978		9.696438	-4.239721	-0.016847	-0.607554	0.042568	0.224266	-0.805176	0.154053	-0.286377	0.632785	-0.135123	-0.756576	-0.094438
23979		8.484971	-2.696873	0.873936	-0.075448	-0.086973	0.364322	-0.804443	0.170410	-0.283447	0.632322	-0.139456	-0.756438	-0.092319
23980		8.797633	-0.343965	-1.465060	0.698585	-0.340605	0.125626	-0.812256	0.170898	-0.280273	0.630495	-0.135764	-0.759567	-0.084274
23981		10.080813	-2.896776	-4.056437	0.663352	-0.244743	0.095177	-0.807617	0.158936	-0.270996	0.629426	-0.131939	-0.761904	-0.076919
23982		10.085604	1.204661	-1.053676	0.387448	-0.045533	0.210614	-0.814209	0.163574	-0.279053	0.629849	-0.131027	-0.762243	-0.071473
23983		10.169792	1.322994	0.091942	-0.322288	-0.077774	0.326956	-0.809814	0.174072	-0.278320	0.628912	-0.136922	-0.761935	-0.071949
23984		9.284329	-1.970810	-1.827242	-0.404506	-0.021583	0.443423	-0.807373	0.191406	-0.267822	0.628465	-0.144592	-0.760836	-0.072480
23985		9.262946	-2.797590	-2.599380	-0.138506	-0.035868	0.417015	-0.810791	0.198975	-0.278809	0.628265	-0.149854	-0.760175	-0.070435
23986		9.739253	-0.744589	-3.555910	-0.053428	0.049964	0.451752	-0.800049	0.210693	-0.267822	0.629109	-0.154819	-0.758727	-0.067724
23987		9.850336	0.438820	-2.768238	-0.420749	0.175294	0.419196	-0.804199	0.214111	-0.267822	0.630321	-0.162144	-0.756094	-0.068749
23988		10.063894	-0.101879	-2.737437	-0.481210	0.355157	0.346341	-0.803467	0.231934	-0.273193	0.632985	-0.168946	-0.752141	-0.071205
23989		9.543728	-1.042713	-3.705486	-0.349943	0.284349	0.287676	-0.789551	0.239258	-0.285645	0.635167	-0.174268	-0.748936	-0.072729
23990		9.202761	-1.284257	-3.193496	0.075071	0.166217	0.155114	-0.796143	0.239502	-0.284180	0.637093	-0.175265	-0.747196	-0.071360
23991		9.499834	0.082891	-0.589104	0.184028	0.135750	0.001458	-0.792480	0.241943	-0.282959	0.638787	-0.173822	-0.746222	-0.069930
23992		9.797141	-0.388788	0.008455	-0.077714	0.103084	-0.010880	-0.787109	0.241699	-0.287598	0.639573	-0.174362	-0.745333	-0.070875
23993		9.741146	-2.471145	-2.259835	-0.097920	0.020444	0.027942	-0.794434	0.242188	-0.295410	0.639602	-0.175573	-0.744951	-0.071638
23994		9.060647	-3.191474	-3.828487	0.272665	-0.015250	0.056187	-0.788818	0.237549	-0.292236	0.640159	-0.174156	-0.745076	-0.068761
23995		9.245328	-2.199397	-3.128517	0.596979	-0.015566	-0.001705	-0.788574	0.236816	-0.291748	0.641334	-0.169532	-0.745621	-0.063242
23996		9.610519	-0.457134	-0.669603	0.717285	-0.047855	-0.115986	-0.798096	0.228271	-0.300293	0.642309	-0.162865	-0.746743	-0.057345
23997		10.051519	0.154588	0.119056	0.523421	-0.068216	-0.136789	-0.792236	0.225342	-0.300537	0.642656	-0.157575	-0.747868	-0.053447
23998		9.723124	-0.607618	-0.786486	0.111058	-0.045618	-0.046809	-0.799316	0.211914	-0.300049	0.642454	-0.156480	-0.748321	-0.052751
23999		9.328661	-2.400234	-2.355614	0.138308	-0.088435	0.004297	-0.792725	0.222656	-0.293457	0.641925	-0.155534	-0.749074	-0.051272
24000		9.294924	-2.368596	-2.131439	0.536498	-0.125361	-0.029207	-0.803467	0.214600	-0.306885	0.641769	-0.151152	-0.750436	-0.046162
24001		9.443415	-0.705104	-0.831099	0.602268	-0.087910	-0.038753	-0.799805	0.208252	-0.302002	0.642098	-0.146211	-0.751444	-0.040793
24002		9.061873	-0.514062	-1.500976	0.484395	-0.120774	-0.057212	-0.797119	0.207764	-0.303467	0.641840	-0.141986	-0.752694	-0.036515
24003		9.612442	-0.696360	-1.389594	0.378882	-0.130318	-0.043771	-0.791992	0.206787	-0.297119	0.641304	-0.138805	-0.753898	-0.033154
24004		9.815157	-0.567996	-0.882831	0.112454	-0.052382	0.059110	-0.796143	0.206055	-0.303223	0.641056	-0.138668	-0.754204	-0.031528
24005		9.461651	-0.341053	-1.435610	-0.126629	-0.006913	0.130577	-0.805908	0.209717	-0.301025	0.640875	-0.141168	-0.753884	-0.031787
24006		9.299716	-0.341833	-2.233045	-0.246444	-0.052331	0.130055	-0.791260	0.210205	-0.296875	0.640020	-0.144561	-0.753914	-0.033010
24007		9.767723	-0.796584	-1.938821	-0.243296	-0.076751	0.095999	-0.796631	0.221680	-0.286865	0.638937	-0.147642	-0.754170	-0.034489
24008		9.775937	-1.202328	-1.552034	-0.244501	-0.036511	0.093361	-0.797852	0.222168	-0.291504	0.638174	-0.150599	-0.754166	-0.035871
24009		9.575355	-1.172484	-1.338637	-0.204224	-0.027953	0.084017	-0.797607	0.224121	-0.288086	0.637589	-0.153215	-0.754075	-0.037113
24010		9.566662	-1.206375	-1.795958	-0.228166	-0.030542	0.076380	-0.794922	0.228760	-0.284180	0.636915	-0.155912	-0.754016	-0.038599
24011		9.640834	-1.506482	-1.918586	-0.213208	-0.008344	0.053032	-0.793457	0.230957	-0.285156	0.636457	-0.158250	-0.753835	-0.040144
24012		9.549170	-2.146922	-1.632856	-0.160700	-0.035825	0.030709	-0.792236	0.230469	-0.275879	0.635843	-0.160009	-0.753916	-0.041374
24013		9.531608	-2.006290	-1.573758	-0.089035	0.027976	0.035679	-0.788818	0.234375	-0.285889	0.635939	-0.161084	-0.753579	-0.041857
24014		9.619381	-1.778032	-1.552060	-0.129866	0.055421	0.058199	-0.795654	0.239258	-0.281494	0.636274	-0.162859	-0.752861	-0.042822
24015		9.450064	-1.943458	-1.888526	-0.055731	0.020756	0.069856	-0.797363	0.235107	-0.287598	0.636401	-0.164083	-0.752489	-0.042784
24016		9.319602	-1.591447	-1.810261	-0.003437	-0.006766	0.032579	-0.794434	0.241699	-0.280762	0.636382	-0.164579	-0.752408	-0.042599
24017		9.390265	-1.054959	-1.849224	-0.034082	-0.036285	-0.007857	-0.787598	0.244141	-0.282227	0.635972	-0.164915	-0.752666	-0.042843
24018		9.563146	-1.125749	-1.965275	-0.090667	-0.027921	-0.031604	-0.791748	0.233398	-0.286621	0.635534	-0.165562	-0.752833	-0.043914
24019		9.422202	-1.435135	-1.952858	-0.091055	-0.036790	-0.038820	-0.793213	0.248047	-0.295654	0.635025	-0.166120	-0.753069	-0.045108
24020		9.521214	-1.214497	-1.964828	-0.044924	-0.037064	-0.055320	-0.798340	0.252686	-0.277832	0.634640	-0.166407	-0.753264	-0.046198
24021		9.687013	-1.376314	-1.975601	-0.062220	-0.063184	-0.052901	-0.792236	0.246094	-0.285400	0.633890	-0.166645	-0.753791	-0.047029
24022		9.569191	-1.525919	-2.020848	-0.109061	-0.039528	-0.010637	-0.801025	0.237549	-0.282471	0.633340	-0.167767	-0.753928	-0.048235
24023		9.559761	-1.685927	-1.817390	-0.094876	-0.025522	0.037165	-0.795166	0.243408	-0.275146	0.632959	-0.169087	-0.753912	-0.048881
24024		9.560995	-1.302196	-1.780354	-0.077782	-0.019120	0.047954	-0.800293	0.241455	-0.273682	0.632663	-0.170321	-0.753863	-0.049186
24025		9.507142	-1.265267	-1.946770	-0.075995	-0.030002	0.042047	-0.802246	0.240479	-0.271729	0.632253	-0.171430	-0.753937	-0.049459
24026		9.412359	-1.421360	-2.102614	-0.064520	-0.043944	0.035770	-0.789062	0.247803	-0.266846	0.631726	-0.172355	-0.754158	-0.049615
24027		9.427224	-1.284319	-2.005304	-0.077047	-0.025353	0.048988	-0.790283	0.241943	-0.262695	0.631359	-0.173539	-0.754181	-0.049814
24028		9.541169	-1.293632	-1.949450	-0.102327	-0.034191	0.049540	-0.800537	0.251465	-0.272705	0.630839	-0.174822	-0.754297	-0.050157
24029		9.526515	-1.380825	-2.011539	-0.065727	-0.038132	0.032857	-0.791992	0.254883	-0.262207	0.630379	-0.175847	-0.754423	-0.050462
24030		9.471864	-1.335091	-1.977460	-0.058062	-0.026259	0.031868	-0.797119	0.252686	-0.258057	0.630021	-0.176715	-0.754510	-0.050597
24031		9.454176	-1.587907	-2.046555	-0.055354	-0.047151	0.027889	-0.796143	0.254150	-0.269775	0.629449	-0.177450	-0.754813	-0.050618
24032		9.494561	-1.689133	-2.049851	-0.016703	-0.051850	0.032252	-0.795898	0.255859	-0.271729	0.628975	-0.178104	-0.755066	-0.050454
24033		9.504938	-1.630160	-1.980234	-0.009159	-0.032670	0.043377	-0.789551	0.258301	-0.270508	0.628717	-0.178835	-0.755123	-0.050223
24034		9.529908	-1.506278	-1.978512	-0.015632	-0.030627	0.047760	-0.791992	0.263916	-0.266357	0.628472	-0.179684	-0.755138	-0.050036
24035		9.382813	-1.523013	-2.028221	0.015351	-0.038513	0.040626	-0.790283	0.261963	-0.262451	0.628199	-0.180206	-0.755274	-0.049535
24036		9.436972	-1.501745	-2.102737	0.029079	-0.051187	0.030214	-0.799072	0.257324	-0.258789	0.627820	-0.180468	-0.755567	-0.048902
24037		9.502488	-1.467025	-2.124566	0.011655	-0.045289	0.023859	-0.799072	0.262451	-0.266357	0.627432	-0.180692	-0.755868	-0.048416
24038		9.444224	-1.511471	-2.090522	0.014643	-0.049091	0.022099	-0.787354	0.252686	-0.263428	0.627044	-0.181026	-0.756132	-0.048052
24039		9.462710	-1.455174	-2.060570	0.026674	-0.048799	0.012855	-0.797363	0.256592	-0.256836	0.626691	-0.181111	-0.756432	-0.047630
24040		9.468973	-1.493037	-2.043378	0.019039	-0.054588	0.004998	-0.789062	0.252930	-0.255371	0.626224	-0.181103	-0.756846	-0.047217
24041		9.446161	-1.529120	-2.081871	0.028857	-0.046055	0.005217	-0.794678	0.262939	-0.256836	0.625870	-0.181009	-0.757191	-0.046738
24042		9.438565	-1.542917	-2.073258	0.017075	-0.039631	0.004415	-0.791748	0.265137	-0.261963	0.625549	-0.181083	-0.757458	-0.046426
24043		9.436716	-1.506913	-2.157480	0.032676	-0.036175	0.011061	-0.795898	0.262695	-0.256104	0.625325	-0.181188	-0.757642	-0.046013
24044		9.478563	-1.448032	-2.078512	0.014795	-0.023383	0.014327	-0.796387	0.268555	-0.260010	0.625159	-0.181359	-0.757759	-0.045684
24045		9.417407	-1.434228	-2.074461	-0.011722	-0.023032	0.008689	-0.794434	0.257568	-0.258301	0.624947	-0.181774	-0.757832	-0.045717
24046		9.478361	-1.567691	-2.200238	-0.012511	-0.020962	0.005648	-0.791992	0.257080	-0.264404	0.624750	-0.182072	-0.757920	-0.045760
24047		9.384686	-1.676231	-2.124519	-0.000839	-0.022704	0.010991	-0.789551	0.255859	-0.256836	0.624594	-0.182409	-0.757969	-0.045740
24048		9.410546	-1.669297	-2.164447	0.027569	-0.037704	0.011682	-0.791260	0.264648	-0.252441	0.624338	-0.182445	-0.758197	-0.045311
24049		9.456032	-1.593719	-2.143181	0.030698	-0.022430	0.009734	-0.793213	0.258545	-0.256348	0.624214	-0.182441	-0.758327	-0.044855
24050		9.439034	-1.561530	-2.086491	0.013778	-0.013915	-0.000045	-0.791748	0.268311	-0.245850	0.624141	-0.182470	-0.758389	-0.044701
24051		9.457528	-1.525535	-2.162042	0.010618	-0.013409	-0.005244	-0.795898	0.260254	-0.262695	0.624025	-0.182427	-0.758507	-0.044497
24052		9.415125	-1.592990	-2.207190	0.013564	0.007432	-0.007542	-0.798340	0.263428	-0.258057	0.624171	-0.182453	-0.758379	-0.044533
24053		9.375795	-1.532703	-2.158307	0.016822	-0.001312	-0.009543	-0.791016	0.257324	-0.246582	0.624217	-0.182402	-0.758356	-0.044473
24054		9.463540	-1.585461	-2.137450	0.034809	-0.021485	-0.013205	-0.789795	0.263672	-0.251953	0.624081	-0.182029	-0.758581	-0.044082
24055		9.449379	-1.570412	-2.160555	0.043722	-0.005621	-0.010903	-0.798340	0.266846	-0.258301	0.624136	-0.181716	-0.758632	-0.043706
24056		9.401488	-1.566185	-2.058623	0.018967	0.004890	-0.001632	-0.792969	0.265625	-0.256592	0.624251	-0.181748	-0.758538	-0.043579
24057		9.433928	-1.504238	-2.125012	0.030605	-0.000998	0.001018	-0.799072	0.266357	-0.255615	0.624337	-0.181700	-0.758494	-0.043291
24058		9.425031	-1.567580	-2.181095	0.023402	0.002555	0.001747	-0.792236	0.264648	-0.258789	0.624430	-0.181692	-0.758434	-0.043056
24059		9.429002	-1.606325	-2.121390	0.009425	0.011311	0.006402	-0.797852	0.261230	-0.251465	0.624595	-0.181864	-0.758262	-0.042972
24060		9.441211	-1.541534	-2.021102	0.023421	0.000192	-0.000215	-0.791504	0.265625	-0.262939	0.624649	-0.181752	-0.758259	-0.042691
24061		9.436163	-1.602035	-2.096878	0.037311	-0.005916	-0.008429	-0.797119	0.258545	-0.257568	0.624719	-0.181616	-0.758247	-0.042457
24062		9.436509	-1.623157	-2.167595	0.009069	0.007635	-0.005519	-0.790527	0.263184	-0.258057	0.624830	-0.181606	-0.758160	-0.042433
24063		9.434310	-1.625487	-2.047469	0.018419	-0.003935	-0.008899	-0.792236	0.263184	-0.257812	0.624859	-0.181542	-0.758157	-0.042327
24064		9.433259	-1.687520	-2.093941	0.041772	-0.012353	-0.021243	-0.796875	0.263184	-0.257568	0.624851	-0.181178	-0.758265	-0.042073
24065		9.381872	-1.550533	-2.082163	0.033343	0.004060	-0.017540	-0.798828	0.260254	-0.248047	0.624974	-0.180898	-0.758240	-0.041903
24066		9.414425	-1.628860	-2.101148	0.030797	-0.001153	-0.020499	-0.793457	0.258789	-0.262451	0.625006	-0.180493	-0.758323	-0.041667
24067		9.470803	-1.610818	-2.118431	0.044978	-0.008628	-0.026277	-0.793213	0.256836	-0.260254	0.625051	-0.180067	-0.758399	-0.041464
24068		9.420522	-1.584327	-2.096610	0.045232	-0.007335	-0.015113	-0.792480	0.261719	-0.261230	0.625106	-0.179713	-0.758453	-0.041151
24069		9.427826	-1.577266	-2.073431	0.040971	0.003679	-0.007609	-0.800293	0.264893	-0.256836	0.625263	-0.179502	-0.758390	-0.040854
24070		9.454788	-1.516819	-2.110919	0.048753	0.000973	-0.013760	-0.794678	0.257568	-0.245605	0.625383	-0.179140	-0.758397	-0.040485
24071		9.430372	-1.538194	-2.045485	0.040561	0.004988	-0.021736	-0.793457	0.266113	-0.257812	0.625487	-0.178617	-0.758452	-0.040156
24072		9.424194	-1.595141	-2.112426	0.035364	-0.024259	-0.033421	-0.806641	0.263184	-0.264160	0.625336	-0.178213	-0.758679	-0.040017
24073		9.417085	-1.541416	-2.094093	0.032771	-0.021167	-0.029834	-0.787109	0.257812	-0.257080	0.625218	-0.177887	-0.758857	-0.039937
24074		9.415581	-1.596747	-2.082891	0.021019	-0.019232	-0.027785	-0.793213	0.260986	-0.260498	0.625094	-0.177603	-0.759028	-0.039890
24075		9.492981	-1.565087	-2.048808	0.012785	-0.012559	-0.027033	-0.789551	0.253174	-0.256592	0.625019	-0.177436	-0.759125	-0.039965
24076		9.451704	-1.551091	-2.087107	0.019276	0.000291	-0.021536	-0.792236	0.261963	-0.261230	0.625077	-0.177186	-0.759137	-0.039926
24077		9.412444	-1.537472	-2.133473	0.025232	-0.001970	-0.021073	-0.792969	0.259033	-0.260986	0.625137	-0.176991	-0.759137	-0.039865
24078		9.470177	-1.509450	-2.148732	0.008540	0.010678	-0.017784	-0.786133	0.251221	-0.258057	0.625280	-0.176931	-0.759028	-0.039961
24079		9.433635	-1.547472	-1.979002	-0.006100	-0.005589	-0.017430	-0.793701	0.257324	-0.257568	0.625235	-0.176922	-0.759059	-0.040121
24080		9.460256	-1.514842	-2.104705	0.015331	-0.024861	-0.016873	-0.801514	0.260010	-0.261230	0.625044	-0.176793	-0.759250	-0.040038
24081		9.431029	-1.498926	-2.101611	0.011332	0.002343	-0.014202	-0.798340	0.255859	-0.254395	0.625107	-0.176755	-0.759206	-0.040071
24082		9.407103	-1.494963	-2.075758	-0.008128	0.003083	-0.016004	-0.800293	0.264160	-0.249756	0.625115	-0.176767	-0.759187	-0.040246
24083		9.462921	-1.577021	-2.173526	0.008952	-0.022488	-0.019213	-0.798096	0.257080	-0.262451	0.624898	-0.176645	-0.759396	-0.040203
24084		9.455608	-1.580095	-2.089524	0.008367	-0.012329	-0.025583	-0.798828	0.258301	-0.254639	0.624819	-0.176526	-0.759483	-0.040326
24085		9.430888	-1.644573	-2.061525	0.003716	-0.004436	-0.016448	-0.800537	0.257568	-0.254639	0.624784	-0.176473	-0.759521	-0.040386
24086		9.432774	-1.608145	-2.099009	-0.010641	0.002335	-0.009504	-0.797119	0.253662	-0.251465	0.624783	-0.176591	-0.759485	-0.040546
24087		9.417849	-1.551019	-2.137469	-0.002552	0.001592	-0.004473	-0.801514	0.266602	-0.260254	0.624790	-0.176646	-0.759466	-0.040561
24088		9.430819	-1.494629	-2.110768	0.012932	-0.002906	-0.008753	-0.795166	0.257812	-0.255371	0.624807	-0.176690	-0.759443	-0.040523
24089		9.473278	-1.477133	-2.112345	-0.005044	-0.006345	-0.016124	-0.794678	0.256836	-0.264160	0.624742	-0.176715	-0.759484	-0.040663
24090		9.427862	-1.517138	-2.115974	-0.007642	-0.003261	-0.012542	-0.792236	0.258057	-0.255615	0.624730	-0.176857	-0.759450	-0.040863
24091		9.429716	-1.583436	-2.121104	-0.004662	0.004270	-0.006396	-0.794189	0.262451	-0.260742	0.624776	-0.176972	-0.759381	-0.040946
24092		9.446327	-1.544241	-2.123076	-0.003885	0.013846	-0.001596	-0.795166	0.257568	-0.262207	0.624929	-0.177190	-0.759199	-0.041044
24093		9.428835	-1.457679	-2.068348	0.006085	0.000473	-0.005557	-0.804932	0.255859	-0.262207	0.624979	-0.177275	-0.759138	-0.041056
24094		9.461641	-1.462646	-2.143091	0.012011	-0.010144	-0.010389	-0.794189	0.255859	-0.265625	0.624927	-0.177258	-0.759185	-0.041038
24095		9.439874	-1.501251	-2.112644	0.005517	-0.011094	-0.007350	-0.796143	0.261963	-0.252441	0.624876	-0.177355	-0.759203	-0.041065
24096		9.408747	-1.514979	-2.122260	0.001326	-0.010784	-0.008343	-0.796387	0.254883	-0.254395	0.624775	-0.177403	-0.759275	-0.041056
24097		9.477383	-1.549704	-2.143021	0.003161	-0.001946	-0.002250	-0.801758	0.257812	-0.254639	0.624774	-0.177462	-0.759265	-0.041014
24098		9.442810	-1.520397	-2.098446	-0.015346	-0.003504	0.003946	-0.793213	0.257080	-0.250244	0.624713	-0.177746	-0.759243	-0.041109
24099		9.423813	-1.545657	-2.124710	-0.008988	0.000976	0.004737	-0.793213	0.257568	-0.252441	0.624707	-0.177945	-0.759202	-0.041106
24100		9.466583	-1.563495	-2.097623	-0.001619	0.002591	-0.000651	-0.796631	0.253174	-0.259033	0.624736	-0.178057	-0.759152	-0.041097
24101		9.462746	-1.509163	-2.142918	0.002078	0.007142	0.002355	-0.793457	0.264648	-0.261230	0.624835	-0.178183	-0.759042	-0.041078
24102		9.448548	-1.593874	-2.071043	0.004641	0.003450	-0.001258	-0.801270	0.262207	-0.262207	0.624910	-0.178347	-0.758942	-0.041071
24103		9.406907	-1.539313	-2.073702	0.019480	0.003170	-0.002341	-0.795410	0.261719	-0.254883	0.625009	-0.178373	-0.758861	-0.040948
24104		9.448633	-1.470828	-2.029044	0.013711	0.002541	0.006314	-0.792725	0.254883	-0.260254	0.625078	-0.178466	-0.758793	-0.040757
24105		9.465619	-1.475328	-2.126018	0.001749	-0.008472	0.008400	-0.799561	0.262451	-0.251221	0.625036	-0.178672	-0.758784	-0.040658
24106		9.448097	-1.576246	-2.107522	0.014152	0.000643	0.006886	-0.794189	0.250732	-0.263428	0.625072	-0.178742	-0.758750	-0.040443
24107		9.409272	-1.568240	-2.054848	-0.002299	-0.006035	0.000752	-0.800293	0.261719	-0.257324	0.625049	-0.178896	-0.758731	-0.040463
24108		9.401216	-1.612250	-2.100596	0.014212	-0.004429	-0.003783	-0.792236	0.260498	-0.255371	0.625049	-0.178905	-0.758735	-0.040355
24109		9.463665	-1.590363	-2.096680	0.012599	0.001149	-0.002461	-0.789307	0.254883	-0.262695	0.625102	-0.178914	-0.758695	-0.040238
24110		9.442621	-1.612254	-2.052150	-0.000840	-0.000049	0.002379	-0.793701	0.258545	-0.254150	0.625142	-0.179087	-0.758622	-0.040232
24111		9.441401	-1.599135	-2.091811	0.011115	-0.006914	0.001355	-0.795898	0.250977	-0.254395	0.625112	-0.179122	-0.758647	-0.040075
24112		9.428438	-1.654449	-2.119411	0.011792	-0.006055	-0.005308	-0.799561	0.261475	-0.260254	0.625088	-0.179041	-0.758691	-0.039965
24113		9.395153	-1.512679	-2.105507	0.008699	0.001571	-0.006498	-0.797363	0.261475	-0.259521	0.625140	-0.179076	-0.758640	-0.039953
24114		9.453024	-1.579744	-2.090091	0.011936	-0.011052	-0.003663	-0.793701	0.264648	-0.251709	0.625082	-0.179114	-0.758685	-0.039853
24115		9.428541	-1.582920	-2.126709	0.017285	-0.008799	-0.006757	-0.796631	0.256836	-0.259766	0.625036	-0.179050	-0.758746	-0.039695
24116		9.405182	-1.576934	-2.162048	0.000564	-0.006305	0.002858	-0.797363	0.257080	-0.262207	0.625002	-0.179208	-0.758738	-0.039657
24117		9.417795	-1.573487	-2.119673	0.001747	0.003434	0.003382	-0.797607	0.263672	-0.264648	0.625071	-0.179372	-0.758644	-0.039637
24118		9.477065	-1.562178	-2.107870	0.010851	-0.009726	-0.004321	-0.800049	0.260010	-0.253174	0.625037	-0.179453	-0.758656	-0.039577
24119		9.423746	-1.557563	-2.088879	0.005566	-0.001523	-0.001391	-0.802490	0.253418	-0.261230	0.625035	-0.179506	-0.758648	-0.039521
24120		9.399974	-1.640363	-2.128757	-0.009428	0.007659	0.007439	-0.788574	0.262939	-0.260254	0.625113	-0.179763	-0.758520	-0.039589
24121		9.467500	-1.562594	-2.108535	0.006654	0.004919	0.004516	-0.803711	0.260986	-0.260254	0.625209	-0.179915	-0.758409	-0.039494
24122		9.402631	-1.576777	-2.091361	0.015685	-0.002023	-0.004773	-0.798828	0.257568	-0.262695	0.625239	-0.179902	-0.758393	-0.039403
24123		9.413690	-1.543893	-2.126569	0.018296	-0.001248	-0.012488	-0.794922	0.258545	-0.260742	0.625290	-0.179785	-0.758381	-0.039343
24124		9.470647	-1.591180	-2.089401	0.025873	-0.006407	-0.018146	-0.803223	0.262451	-0.260498	0.625305	-0.179552	-0.758430	-0.039228
24125		9.502465	-1.684336	-2.062144	0.002813	-0.014634	-0.007109	-0.796875	0.254883	-0.255859	0.625185	-0.179636	-0.758508	-0.039250
24126		9.423032	-1.713275	-2.090649	0.010311	0.000568	0.015119	-0.797119	0.256348	-0.271973	0.625232	-0.179787	-0.758445	-0.039023
24127		9.401852	-1.623835	-2.017135	0.002410	0.005011	0.023790	-0.789062	0.257568	-0.250732	0.625354	-0.180179	-0.758259	-0.038866
24128		9.423938	-1.555767	-2.086406	0.026391	-0.002175	0.012198	-0.801025	0.261475	-0.259033	0.625402	-0.180150	-0.758247	-0.038467
24129		9.424555	-1.544841	-2.133509	0.021441	0.007615	0.005993	-0.801514	0.265625	-0.262451	0.625539	-0.180176	-0.758139	-0.038247
24130		9.437584	-1.569920	-2.111492	0.009430	-0.002549	0.002618	-0.791016	0.263428	-0.255615	0.625558	-0.180310	-0.758096	-0.038158
24131		9.448632	-1.673105	-2.088176	0.014538	-0.015606	-0.001740	-0.790527	0.267334	-0.260010	0.625455	-0.180310	-0.758190	-0.037977
24132		9.430137	-1.684832	-2.054109	0.008860	-0.001896	0.002590	-0.789062	0.263672	-0.258057	0.625485	-0.180437	-0.758141	-0.037862
24133		9.382388	-1.707069	-2.085355	0.011590	-0.008192	0.001975	-0.798584	0.259033	-0.257812	0.625456	-0.180505	-0.758156	-0.037699
24134		9.407720	-1.652885	-2.078436	0.016857	-0.012816	0.001664	-0.799316	0.265869	-0.250732	0.625386	-0.180506	-0.758224	-0.037499
24135		9.448093	-1.671844	-2.153204	0.012479	-0.006336	0.000288	-0.793701	0.268066	-0.258545	0.625345	-0.180530	-0.758259	-0.037356
24136		9.411217	-1.684899	-2.072243	0.025447	-0.007454	-0.007777	-0.796387	0.274902	-0.255371	0.625347	-0.180428	-0.758292	-0.037157
24137		9.402265	-1.641467	-2.101125	0.041055	-0.005921	-0.009346	-0.796387	0.267090	-0.258057	0.625384	-0.180216	-0.758327	-0.036832
24138		9.413432	-1.563620	-2.103077	0.027565	0.000313	-0.005431	-0.786865	0.261475	-0.262451	0.625461	-0.180109	-0.758300	-0.036618
24139		9.434280	-1.643953	-2.116092	0.021264	-0.023815	-0.006944	-0.792236	0.262451	-0.259521	0.625317	-0.180030	-0.758448	-0.036400
24140		9.422350	-1.642832	-2.111207	0.034599	-0.011034	-0.009527	-0.793945	0.261230	-0.264648	0.625310	-0.179812	-0.758519	-0.036114
24141		9.427025	-1.655099	-2.091414	0.009878	0.001210	0.000340	-0.794922	0.259033	-0.258789	0.625380	-0.179896	-0.758445	-0.036027
24142		9.427326	-1.586512	-2.096125	0.013348	0.000911	0.002492	-0.794922	0.273438	-0.265869	0.625439	-0.179929	-0.758396	-0.035877
24143		9.412263	-1.564657	-2.107530	0.012196	-0.005579	-0.002775	-0.798096	0.259521	-0.257812	0.625448	-0.180047	-0.758364	-0.035793
24144		9.448396	-1.620460	-2.076379	0.022024	-0.017567	-0.010923	-0.803223	0.266846	-0.259521	0.625338	-0.179893	-0.758499	-0.035633
24145		9.387996	-1.667222	-2.112752	0.010451	-0.004347	-0.016409	-0.791992	0.262451	-0.262207	0.625324	-0.179832	-0.758523	-0.035682
24146		9.431253	-1.733474	-2.069737	0.021572	-0.007283	-0.005665	-0.799072	0.265137	-0.260742	0.625332	-0.179764	-0.758541	-0.035503
24147		9.454956	-1.725310	-2.085002	0.011576	-0.001942	-0.000240	-0.795166	0.255615	-0.263184	0.625359	-0.179840	-0.758505	-0.035409
24148		9.406453	-1.636205	-2.029361	0.000643	-0.005064	0.002946	-0.794678	0.266357	-0.263916	0.625344	-0.179983	-0.758485	-0.035371
24149		9.416671	-1.605966	-2.066297	0.014019	-0.006533	0.003502	-0.798096	0.264160	-0.259277	0.625348	-0.180095	-0.758463	-0.035208
24150		9.443832	-1.625582	-2.123020	-0.008789	-0.003373	0.006447	-0.792969	0.263916	-0.257080	0.625315	-0.180376	-0.758422	-0.035245
24151		9.404035	-1.700270	-2.125908	-0.010090	-0.000085	0.002761	-0.798096	0.264160	-0.257324	0.625308	-0.180608	-0.758369	-0.035309
24152		9.414881	-1.741871	-2.107395	-0.002754	-0.004503	-0.006562	-0.789551	0.270508	-0.259521	0.625266	-0.180705	-0.758377	-0.035383
24153		9.449252	-1.746774	-2.083132	0.002880	-0.010441	-0.005036	-0.790039	0.262695	-0.268066	0.625197	-0.180814	-0.758409	-0.035362
24154		9.420175	-1.714578	-2.068514	-0.011461	-0.003655	0.001893	-0.790039	0.262939	-0.264893	0.625188	-0.181099	-0.758345	-0.035451
24155		9.410686	-1.740350	-2.093126	0.005785	-0.006246	-0.007076	-0.800049	0.257812	-0.261230	0.625180	-0.181148	-0.758340	-0.035435
24156		9.377350	-1.700214	-2.157240	0.018460	-0.002669	-0.008862	-0.790771	0.257812	-0.255859	0.625214	-0.181043	-0.758342	-0.035342
24157		9.418421	-1.689083	-2.099415	0.005208	-0.003799	-0.005809	-0.797607	0.259277	-0.258301	0.625203	-0.181025	-0.758357	-0.035301
24158		9.429041	-1.679182	-2.098298	0.008854	-0.010631	-0.010027	-0.793213	0.272217	-0.256348	0.625133	-0.180976	-0.758428	-0.035275
24159		9.377283	-1.668214	-2.138379	0.006734	-0.001377	-0.007426	-0.791748	0.272705	-0.255127	0.625145	-0.181024	-0.758407	-0.035261
24160		9.394944	-1.697744	-2.147222	0.006627	-0.003211	-0.007502	-0.785400	0.266846	-0.258545	0.625138	-0.181067	-0.758404	-0.035239
24161		9.413633	-1.643148	-2.101674	0.013819	-0.009112	-0.009519	-0.786377	0.267578	-0.253906	0.625107	-0.181010	-0.758447	-0.035130
24162		9.453238	-1.670049	-2.176313	0.010298	-0.001039	-0.005861	-0.791260	0.259521	-0.263672	0.625132	-0.180996	-0.758434	-0.035040
24163		9.425031	-1.642174	-2.110505	0.001094	-0.003117	-0.000627	-0.794434	0.261963	-0.254395	0.625142	-0.181110	-0.758400	-0.035017
24164		9.403888	-1.640425	-2.105471	0.000656	-0.006858	0.001657	-0.792236	0.266357	-0.253662	0.625087	-0.181225	-0.758420	-0.034971
24165		9.401492	-1.664459	-2.168211	-0.005437	-0.002036	-0.002409	-0.797607	0.263184	-0.264404	0.625062	-0.181367	-0.758404	-0.035023
24166		9.448909	-1.601007	-2.167204	-0.005923	-0.011429	0.003354	-0.791992	0.260010	-0.262939	0.624974	-0.181607	-0.758418	-0.035041
24167		9.494263	-1.567371	-2.179245	-0.015766	-0.009281	0.011757	-0.792969	0.257568	-0.255615	0.624891	-0.181968	-0.758399	-0.035066
24168		9.506327	-1.559333	-2.079803	-0.048547	-0.006187	0.016283	-0.794922	0.274170	-0.251465	0.624744	-0.182580	-0.758359	-0.035369
24169		9.532316	-1.450535	-2.041957	-0.086093	-0.007062	0.036831	-0.781982	0.265381	-0.255615	0.624497	-0.183764	-0.758253	-0.035888
24170		9.463833	-1.589721	-1.998744	-0.123725	-0.004462	0.047068	-0.789307	0.270996	-0.254150	0.624219	-0.185276	-0.758077	-0.036638
24171		9.355131	-1.600022	-1.915633	-0.169168	0.001115	0.057353	-0.788818	0.269775	-0.254150	0.623881	-0.187269	-0.757809	-0.037784
24172		9.374051	-1.668282	-1.923582	-0.203954	-0.000359	0.073864	-0.790771	0.281494	-0.250488	0.623455	-0.189672	-0.757494	-0.039124
24173		9.325430	-1.784522	-1.988645	-0.287262	0.017986	0.104130	-0.792725	0.280518	-0.259033	0.623002	-0.193049	-0.756910	-0.041079
24174		9.382710	-1.922628	-1.997521	-0.334648	0.020845	0.126542	-0.792725	0.291504	-0.252930	0.622489	-0.197008	-0.756187	-0.043317
24175		9.501614	-2.032501	-1.991167	-0.307832	0.045304	0.119856	-0.795898	0.289307	-0.250977	0.622242	-0.200703	-0.755294	-0.045424
24176		9.449702	-2.098585	-1.985539	-0.258413	0.080340	0.103572	-0.784424	0.299805	-0.251953	0.622426	-0.203802	-0.754198	-0.047287
24177		9.374524	-2.137237	-1.972998	-0.214924	0.112464	0.070086	-0.779541	0.305908	-0.253906	0.623008	-0.206253	-0.752937	-0.049049
24178		9.297919	-1.930316	-1.891091	-0.227815	0.106051	0.050705	-0.779785	0.304199	-0.249268	0.623486	-0.208642	-0.751749	-0.051055
24179		9.620448	-2.098862	-1.946987	-0.253157	0.174084	0.019498	-0.778320	0.299805	-0.256836	0.624493	-0.210847	-0.750111	-0.053719
24180		9.649564	-1.638540	-1.629322	-0.328520	0.430219	-0.018353	-0.785156	0.307129	-0.258789	0.627676	-0.213088	-0.746489	-0.058052
24181		9.310312	-2.062892	-1.906709	-0.627860	0.425640	0.037889	-0.777832	0.312744	-0.250244	0.629994	-0.218225	-0.742490	-0.064765
24182		8.994490	-2.922843	-2.671009	-0.582691	0.420069	0.004452	-0.772461	0.309570	-0.262939	0.632274	-0.222632	-0.738637	-0.071280
24183		8.886659	-2.457282	-2.862447	-0.385724	0.383298	-0.050807	-0.768311	0.313965	-0.265381	0.634701	-0.224971	-0.735339	-0.076281
24184		9.563352	-2.624153	-2.560796	-0.263156	0.260557	-0.091266	-0.771729	0.307861	-0.273438	0.636280	-0.226081	-0.733224	-0.080118
24185		9.474703	-1.559500	-2.315033	-0.250832	0.256097	-0.084542	-0.770752	0.314453	-0.272217	0.637853	-0.227132	-0.731119	-0.083777
24186		9.407181	-1.618104	-2.369262	-0.295456	0.224109	-0.033557	-0.768311	0.323975	-0.274902	0.639035	-0.229063	-0.729064	-0.087355
24187		9.517744	-1.735588	-2.159558	-0.162447	0.164251	-0.062981	-0.772949	0.319336	-0.282471	0.640010	-0.229777	-0.727687	-0.089787
24188		9.547066	-1.561278	-2.091452	-0.012782	0.144086	-0.091611	-0.769043	0.312988	-0.292480	0.641204	-0.229044	-0.726711	-0.091039
24189		9.522156	-1.169107	-1.939027	0.130207	0.144981	-0.113632	-0.769531	0.312500	-0.287842	0.642811	-0.226943	-0.725936	-0.091141
24190		9.564764	-0.619184	-1.754126	0.162790	0.163261	-0.131014	-0.765625	0.313232	-0.291016	0.644627	-0.224397	-0.725116	-0.091154
24191		9.458537	-0.691238	-2.125869	0.163999	0.160396	-0.132956	-0.775391	0.298828	-0.293701	0.646413	-0.221844	-0.724310	-0.091158
24192		9.456412	-1.147410	-2.297447	0.159363	0.122407	-0.103312	-0.765381	0.302979	-0.299561	0.647852	-0.219580	-0.723748	-0.090894
24193		9.452872	-1.728220	-2.213118	0.127246	0.131209	-0.058952	-0.768799	0.298096	-0.308594	0.649348	-0.218002	-0.722927	-0.090546
24194		9.525741	-1.402285	-2.387106	0.269624	0.100579	-0.007871	-0.764893	0.304688	-0.307861	0.651016	-0.215761	-0.722363	-0.088417
24195		9.483419	-1.046615	-2.699705	0.367558	0.038384	0.004021	-0.769775	0.301270	-0.315674	0.652380	-0.212935	-0.722365	-0.085141
24196		9.739783	-0.460977	-2.787491	0.447296	-0.083377	-0.090203	-0.769287	0.295410	-0.315918	0.652741	-0.208748	-0.723667	-0.081608
24197		9.651749	0.539338	-2.195271	0.563014	-0.196453	-0.353232	-0.773682	0.280518	-0.317383	0.652078	-0.201332	-0.726663	-0.078871
24198		9.313616	1.964096	-1.481764	0.661456	-0.234919	-0.737852	-0.780762	0.250000	-0.313965	0.650861	-0.189618	-0.730957	-0.078275
24199		8.838713	2.793805	-0.733864	0.347988	-0.245418	-1.143528	-0.786377	0.231934	-0.303467	0.648273	-0.176646	-0.735877	-0.083805
24200		9.878831	2.187196	-1.226892	0.007774	-0.396546	-1.343496	-0.801514	0.202393	-0.306885	0.643144	-0.164721	-0.741919	-0.093749
24201		11.005513	0.646150	-1.552508	-0.181753	-0.456146	-1.187276	-0.798096	0.182373	-0.297852	0.637098	-0.155828	-0.747658	-0.104075
24202		10.841890	-1.741341	-1.135666	-0.643567	-0.239685	-0.852188	-0.813965	0.167480	-0.273682	0.632498	-0.153410	-0.750243	-0.116394
24203		9.910056	-2.943045	-2.406876	-0.358836	-0.129755	-0.715497	-0.819580	0.156982	-0.282471	0.629508	-0.149803	-0.752064	-0.125208
24204		9.533267	-2.382603	-2.474003	-0.146972	-0.249812	-0.520458	-0.816895	0.145752	-0.272949	0.626082	-0.146586	-0.754698	-0.130249
24205		9.062763	-1.533620	-1.227159	-0.393041	-0.332650	-0.207438	-0.824951	0.153320	-0.264160	0.621903	-0.148323	-0.756983	-0.134957
24206		8.790724	-1.868882	-2.993591	-0.587605	-0.415965	0.060129	-0.824219	0.148682	-0.266113	0.616974	-0.154311	-0.759032	-0.139288
24207		8.858527	-2.591449	-3.290539	-0.826544	-0.514190	0.195185	-0.824951	0.161133	-0.249756	0.610866	-0.163525	-0.761048	-0.144599
24208		9.460067	-2.948458	-1.478305	-0.844804	-0.505968	0.263961	-0.829102	0.163330	-0.229248	0.604821	-0.173492	-0.762713	-0.149532
24209		9.629965	-2.537605	-0.035875	-0.559372	-0.375260	0.332517	-0.837891	0.190674	-0.226318	0.600665	-0.181617	-0.763719	-0.151490
24210		9.528645	-1.561704	-0.182211	-0.075484	-0.345832	0.371135	-0.825439	0.193115	-0.218018	0.597938	-0.186566	-0.765228	-0.148623
24211		9.495030	-0.917171	-0.285873	0.369018	-0.402908	0.360754	-0.835449	0.203125	-0.217773	0.595673	-0.188103	-0.767986	-0.141382
24212		9.620763	-1.403455	-0.631820	0.973032	-0.420221	0.272641	-0.831055	0.203857	-0.213379	0.594436	-0.184383	-0.772017	-0.128987
24213		9.739912	-0.831587	-1.802139	1.471898	-0.418086	0.121914	-0.830811	0.187256	-0.209717	0.593974	-0.175427	-0.776972	-0.112847
24214		11.478799	0.465573	-1.016905	1.482590	-0.180465	-0.074232	-0.841064	0.185059	-0.210205	0.595344	-0.164011	-0.780355	-0.098552
24215		11.565507	2.233175	-1.752153	1.062399	0.008849	-0.085276	-0.839355	0.174316	-0.217041	0.597506	-0.155413	-0.781626	-0.088850
24216		9.807690	2.294189	-1.986297	0.515817	0.051211	-0.031918	-0.835938	0.171631	-0.207520	0.599024	-0.151346	-0.781779	-0.084183
24217		8.005993	-0.688215	-3.066494	0.350179	-0.140800	-0.089143	-0.844971	0.173828	-0.204834	0.598222	-0.148110	-0.783328	-0.081185
24218		8.078923	-1.580615	-3.204021	0.627364	-0.132558	-0.068480	-0.839600	0.167236	-0.218994	0.597992	-0.143051	-0.785025	-0.075359
24219		10.479706	1.675238	-2.656402	0.299805	0.142173	-0.073982	-0.836426	0.159912	-0.226074	0.599915	-0.140129	-0.784283	-0.073254
24220		10.106348	3.019772	-2.440323	-0.618414	0.242167	0.070268	-0.836914	0.171631	-0.225342	0.601330	-0.145399	-0.781652	-0.079259
24221		9.075941	0.193780	-3.080061	-0.805510	0.084161	0.079098	-0.832275	0.173828	-0.220703	0.600798	-0.152344	-0.779942	-0.086742
24222		9.195379	-0.595435	-4.175318	-0.301004	0.029983	-0.018005	-0.839111	0.176025	-0.219482	0.600548	-0.154557	-0.779339	-0.089919
24223		9.713830	-0.855560	-3.446317	-0.119726	-0.026806	-0.015293	-0.833496	0.174072	-0.222900	0.600076	-0.155539	-0.779354	-0.091236
24224		9.854557	-1.421024	-3.347403	0.020922	0.011525	0.067625	-0.825439	0.182129	-0.217285	0.600371	-0.156213	-0.779063	-0.090621
24225		9.360935	-1.524930	-2.863956	0.145314	0.039765	0.106604	-0.837646	0.175781	-0.218750	0.601221	-0.156247	-0.778649	-0.088463
24226		9.176305	-1.212752	-2.710311	0.269609	0.005411	0.136710	-0.823486	0.183838	-0.218506	0.601976	-0.155722	-0.778567	-0.084908
24227		9.146259	-1.126151	-2.477499	0.286083	0.019647	0.175973	-0.830078	0.190186	-0.223145	0.602958	-0.155370	-0.778314	-0.080803
24228		9.172012	-0.458643	-3.074864	0.201801	0.024774	0.200348	-0.833496	0.187012	-0.226807	0.603839	-0.155955	-0.777861	-0.077385
24229		9.144259	0.207397	-2.751975	0.140551	-0.020070	0.176290	-0.831787	0.187012	-0.229492	0.604132	-0.156832	-0.777718	-0.074720
24230		9.406678	0.348315	-2.944840	0.033534	-0.046153	0.141206	-0.829346	0.190674	-0.231201	0.603934	-0.158205	-0.777726	-0.073333
24231		9.312030	-0.217919	-2.659683	-0.073722	-0.073066	0.089597	-0.835205	0.195068	-0.221191	0.603225	-0.159923	-0.777925	-0.073329
24232		9.538303	-0.276257	-2.654022	-0.113197	-0.082141	0.072591	-0.835205	0.197754	-0.228271	0.602288	-0.161775	-0.778221	-0.073818
24233		9.573527	-0.500343	-2.570769	-0.214214	-0.048818	0.068205	-0.832520	0.198730	-0.216064	0.601498	-0.164389	-0.778129	-0.075442
24234		9.418331	-0.509271	-2.229959	-0.239185	-0.060433	0.052578	-0.827881	0.204346	-0.219482	0.600488	-0.166953	-0.778177	-0.077340
24235		9.602767	-1.287360	-2.250310	-0.179369	-0.080749	0.020047	-0.832764	0.204590	-0.213379	0.599399	-0.168797	-0.778467	-0.078851
24236		9.400065	-1.120850	-2.204812	-0.134671	-0.046354	0.028460	-0.833496	0.212158	-0.214111	0.598721	-0.170355	-0.778537	-0.079952
24237		9.606780	-0.937647	-2.524921	-0.105274	-0.020795	0.024428	-0.837158	0.208740	-0.211426	0.598358	-0.171673	-0.778434	-0.080849
24238		9.368273	-0.911186	-2.594077	-0.022569	-0.003100	-0.013147	-0.829590	0.205322	-0.216797	0.598289	-0.171993	-0.778369	-0.081300
24239		9.399519	-0.228584	-2.886320	-0.014658	0.038972	-0.011814	-0.829346	0.205078	-0.212158	0.598679	-0.172218	-0.777972	-0.081758
24240		9.203364	-0.818094	-2.802297	-0.046202	0.016950	-0.033460	-0.835449	0.207031	-0.219971	0.598746	-0.172436	-0.777784	-0.082597
24241		9.562548	-0.758282	-2.961574	0.062810	0.059950	-0.021822	-0.835205	0.211670	-0.217773	0.599487	-0.172052	-0.777308	-0.082493
24242		9.406531	-0.389632	-3.030953	-0.029682	0.121478	0.023239	-0.834961	0.212158	-0.222656	0.600662	-0.172717	-0.776195	-0.083035
24243		9.196676	0.085764	-3.076082	-0.068361	0.134659	0.027262	-0.828369	0.206055	-0.228760	0.601886	-0.173745	-0.774914	-0.083993
24244		9.355670	-0.789371	-2.988652	-0.066673	0.166641	-0.002396	-0.834961	0.204590	-0.228271	0.603405	-0.174434	-0.773437	-0.085266
24245		9.268117	-0.648361	-2.373200	0.086153	0.132826	-0.089183	-0.836914	0.207275	-0.232178	0.604805	-0.173185	-0.772578	-0.085683
24246		9.604051	-1.227345	-2.651087	0.159932	0.129707	-0.112085	-0.821289	0.200439	-0.232666	0.606301	-0.171221	-0.771854	-0.085578
24247		9.361265	-1.369740	-3.244960	0.160183	0.138114	-0.060643	-0.828125	0.194336	-0.223145	0.607956	-0.169541	-0.770994	-0.084936
24248		9.556725	-0.568255	-2.796553	0.030033	0.135586	0.003118	-0.823242	0.200195	-0.234619	0.609330	-0.169275	-0.769967	-0.084932
24249		9.394484	-1.102808	-2.577875	-0.099321	0.131153	0.027978	-0.830078	0.203125	-0.243408	0.610439	-0.170377	-0.768721	-0.086047
24250		9.252088	-1.427080	-2.388679	0.059776	0.156109	-0.006086	-0.827637	0.203125	-0.237793	0.612081	-0.170110	-0.767466	-0.086113
24251		9.415114	-1.206810	-2.140423	0.184665	0.142911	-0.071153	-0.828125	0.198730	-0.247314	0.613774	-0.168092	-0.766649	-0.085291
24252		9.675359	-0.252715	-2.223092	0.154427	0.114517	-0.072706	-0.825684	0.203369	-0.255615	0.615132	-0.166434	-0.765975	-0.084819
24253		9.838272	-1.148612	-2.288202	0.245054	0.221958	-0.075966	-0.824951	0.195312	-0.258057	0.617710	-0.164051	-0.764527	-0.083786
24254		9.194974	-0.664296	-2.804874	0.372847	0.192018	-0.135978	-0.830078	0.180664	-0.263184	0.620178	-0.160056	-0.763579	-0.081899
24255		9.008391	0.339769	-3.019974	0.179993	0.108966	-0.182538	-0.826416	0.185547	-0.264893	0.621391	-0.157201	-0.763163	-0.082120
24256		9.108146	0.077754	-3.098610	-0.109409	-0.067331	-0.224656	-0.828125	0.183594	-0.264160	0.620309	-0.156350	-0.763902	-0.084999
24257		10.403956	-1.750458	-2.599305	0.314174	0.051708	-0.342256	-0.829346	0.166504	-0.270508	0.621051	-0.151008	-0.764373	-0.085005
24258		10.073815	-2.438441	-2.160032	0.963958	0.165922	-0.483743	-0.833008	0.154297	-0.275391	0.623897	-0.139198	-0.764815	-0.080214
24259		9.600586	-0.895682	-3.074838	1.050778	0.113662	-0.393747	-0.831299	0.146240	-0.289551	0.626360	-0.127590	-0.765476	-0.073750
24260		10.384171	-1.579783	-3.095388	0.492396	0.029773	-0.293282	-0.831787	0.133057	-0.281250	0.627164	-0.121614	-0.765970	-0.071863
24261		11.490265	-3.019495	-1.722635	0.371361	0.071548	-0.223484	-0.831299	0.126221	-0.280518	0.628211	-0.116898	-0.765983	-0.070391
24262		10.963378	-1.713914	0.135138	0.333123	-0.005339	0.040059	-0.840820	0.125977	-0.289551	0.628684	-0.114952	-0.766195	-0.066988
24263		10.193077	-0.914142	0.429166	0.154903	-0.021324	0.183717	-0.835693	0.124023	-0.292480	0.628846	-0.116175	-0.766094	-0.064467
24264		8.340570	1.436868	-2.123643	0.632937	-0.030577	-0.061053	-0.839844	0.113037	-0.289795	0.629412	-0.111342	-0.766760	-0.059346
24265		7.700235	1.529574	-2.948710	1.229907	-0.145914	-0.404257	-0.841309	0.097656	-0.285889	0.629340	-0.098504	-0.769173	-0.050990
24266		8.095902	3.108798	-2.842542	0.794921	0.000865	-0.348838	-0.843262	0.094971	-0.288086	0.630062	-0.089364	-0.769988	-0.046417
24267		7.882379	2.261848	-2.450346	-0.143543	0.181492	0.148622	-0.839355	0.092285	-0.295654	0.631722	-0.092356	-0.768228	-0.047159
24268		7.427856	-1.010975	-1.219796	-0.943820	0.053386	0.558415	-0.835693	0.100586	-0.294922	0.631410	-0.105791	-0.766412	-0.052363
24269		7.912554	-1.065881	-1.114243	-0.955536	-0.120182	0.607227	-0.836914	0.126221	-0.279541	0.629326	-0.119832	-0.765723	-0.057078
24270		7.962196	-1.252222	-0.627556	-0.623618	-0.163024	0.539987	-0.840088	0.148193	-0.280762	0.627166	-0.130254	-0.765671	-0.058689
24271		7.817002	-0.934404	-2.384107	-0.033738	-0.413448	0.358503	-0.841309	0.157959	-0.268799	0.623381	-0.134874	-0.768162	-0.055964
24272		11.958545	-1.497883	-0.281958	0.789451	-0.443904	-0.110856	-0.845947	0.153320	-0.275879	0.620312	-0.128463	-0.772223	-0.048807
24273		14.670851	3.941284	0.668643	0.622498	-0.371779	-0.237307	-0.842529	0.134521	-0.271973	0.617547	-0.122714	-0.775604	-0.044892
24274		12.321680	0.615686	0.078497	-0.098915	0.166977	-0.013140	-0.846436	0.141357	-0.273926	0.619017	-0.124350	-0.774039	-0.047102
24275		8.532039	-2.474313	-5.223731	-0.084840	-0.114216	0.050402	-0.846191	0.140625	-0.253174	0.617801	-0.126759	-0.774546	-0.048297
24276		8.745170	-4.685404	-2.583549	0.002367	-0.113946	-0.016404	-0.845459	0.141602	-0.261475	0.616673	-0.126868	-0.775426	-0.048308
24277		9.641866	-1.832867	-0.553582	0.374237	-0.040922	-0.044682	-0.843994	0.141357	-0.256836	0.616830	-0.124332	-0.775881	-0.045504
24278		9.408885	-0.496780	-0.395753	0.201023	-0.035559	0.037849	-0.846680	0.132568	-0.264648	0.616812	-0.123638	-0.776122	-0.043478
24279		9.446590	-0.091073	-2.023689	0.354007	0.003621	0.003267	-0.836426	0.131836	-0.263672	0.617391	-0.121802	-0.776104	-0.040691
24280		8.886773	-0.448306	-3.133039	0.405651	0.030324	-0.124242	-0.848633	0.128418	-0.260498	0.618255	-0.118009	-0.776131	-0.038166
24281		9.268723	-0.150844	-3.172670	0.330018	-0.023374	-0.107069	-0.851074	0.124756	-0.258789	0.618449	-0.114931	-0.776537	-0.036083
24282		10.209618	0.063276	-2.461836	0.163390	-0.027925	-0.094157	-0.850586	0.128174	-0.265869	0.618352	-0.113175	-0.776902	-0.035423
24283		9.896747	-0.166579	-2.799455	0.024517	-0.015372	-0.089075	-0.848145	0.120117	-0.262695	0.618189	-0.112960	-0.777017	-0.036429
24284		9.117104	-1.421025	-3.606390	-0.013460	-0.020573	-0.077946	-0.839111	0.121094	-0.263916	0.617930	-0.112880	-0.777183	-0.037515
24285		9.060055	-1.439681	-3.258042	0.035871	-0.087129	-0.082918	-0.843018	0.117920	-0.259277	0.617113	-0.112325	-0.777889	-0.037997
24286		9.740452	-0.843815	-2.272872	0.100123	-0.053396	-0.064583	-0.837158	0.117432	-0.262451	0.616712	-0.111307	-0.778370	-0.037646
24287		9.534426	-0.837859	-2.601434	0.072447	-0.009606	-0.038487	-0.845215	0.114258	-0.263916	0.616727	-0.110842	-0.778430	-0.037520
24288		9.338343	-1.157503	-2.951563	0.095160	-0.020771	-0.073982	-0.852051	0.114502	-0.258301	0.616631	-0.110072	-0.778612	-0.037611
24289		9.379085	-1.111616	-2.730635	0.161307	0.000988	-0.072405	-0.848145	0.111328	-0.253906	0.616818	-0.108618	-0.778702	-0.036892
24290		9.321288	-0.483292	-2.738728	0.116172	0.029699	-0.047004	-0.845459	0.108643	-0.259766	0.617241	-0.107367	-0.778576	-0.036134
24291		9.391848	-0.862564	-3.015496	0.026579	0.054998	-0.034164	-0.846436	0.107910	-0.259521	0.617803	-0.107143	-0.778149	-0.036390
24292		9.320515	-1.228902	-2.851696	-0.073003	0.094370	-0.014645	-0.847656	0.109375	-0.261230	0.618620	-0.107792	-0.777359	-0.037454
24293		9.524633	-1.387131	-2.533792	-0.134738	0.122147	0.029170	-0.846436	0.110596	-0.268799	0.619636	-0.109362	-0.776262	-0.038833
24294		9.366139	-1.186625	-2.539324	-0.224800	0.108001	0.035240	-0.837646	0.115723	-0.272949	0.620391	-0.111970	-0.775161	-0.041267
24295		9.142081	-1.178708	-2.440267	-0.207706	0.053379	-0.016189	-0.844727	0.112061	-0.279053	0.620624	-0.113977	-0.774539	-0.043862
24296		9.375204	-1.353355	-2.517409	-0.045971	0.040890	-0.065757	-0.848389	0.116211	-0.278564	0.620916	-0.114651	-0.774104	-0.045620
24297		9.354968	-0.486024	-2.278376	-0.038545	0.114343	-0.092061	-0.845947	0.111084	-0.263184	0.621896	-0.115020	-0.773141	-0.047624
24298		9.584820	0.023439	-2.877096	0.032167	0.145617	-0.089810	-0.853271	0.112793	-0.277344	0.623297	-0.113729	-0.772180	-0.047998
24299		9.536169	0.154322	-3.280991	-0.091999	0.160261	-0.105545	-0.850830	0.104736	-0.279053	0.624618	-0.114069	-0.770908	-0.050422
24300		9.362275	-0.805773	-2.720750	-0.103489	0.166122	-0.125600	-0.849609	0.109131	-0.290527	0.625966	-0.114119	-0.769633	-0.052998
24301		9.655826	-0.631488	-2.479668	-0.049630	0.230957	-0.164364	-0.839111	0.101318	-0.286133	0.627966	-0.113843	-0.767838	-0.055891
24302		9.941664	-0.924715	-2.350467	-0.034839	0.247480	-0.140992	-0.839600	0.102539	-0.291992	0.630193	-0.112900	-0.766006	-0.057840
24303		10.248920	-1.785055	-2.225143	0.021740	0.231729	-0.092917	-0.844482	0.100830	-0.298096	0.632367	-0.112087	-0.764249	-0.058918
24304		10.498311	-1.361119	-2.252179	0.134153	0.222299	-0.041819	-0.838379	0.106201	-0.308350	0.634621	-0.111045	-0.762553	-0.058641
24305		10.618187	0.055290	-2.162968	0.095295	0.186553	-0.046103	-0.838135	0.095459	-0.317139	0.636469	-0.110584	-0.761053	-0.058967
24306		11.351850	-0.345566	-2.098524	0.202969	0.132796	-0.102043	-0.833984	0.092041	-0.310303	0.637900	-0.108966	-0.760095	-0.058868
24307		12.528497	0.206439	-1.831736	0.326227	0.097317	-0.217637	-0.838623	0.084229	-0.317139	0.639100	-0.104617	-0.759776	-0.057852
24308		13.086611	1.969608	-1.635210	0.231690	0.149995	-0.290670	-0.838379	0.075684	-0.325684	0.640586	-0.100599	-0.759004	-0.058668
24309		11.622966	2.238132	-1.461923	0.066449	0.336485	-0.385512	-0.841797	0.069336	-0.314697	0.643526	-0.097151	-0.756671	-0.062332
24310		10.790203	1.115519	-1.739985	-0.017567	0.280844	-0.438633	-0.835693	0.059326	-0.334229	0.645807	-0.092881	-0.754937	-0.066152
24311		10.571572	1.162327	-2.435609	-0.202924	0.117998	-0.457908	-0.841064	0.051514	-0.330811	0.646257	-0.090814	-0.754227	-0.072433
24312		9.757939	0.833914	-2.442741	-0.392926	0.081559	-0.403255	-0.834473	0.039795	-0.331543	0.646167	-0.090557	-0.753597	-0.079746
24313		9.783876	0.150145	-2.220274	-0.494966	0.094118	-0.342369	-0.839355	0.042725	-0.329102	0.646128	-0.091476	-0.752671	-0.087397
24314		9.678877	-0.286970	-1.652170	-0.454806	0.183791	-0.330029	-0.839600	0.050049	-0.337402	0.646953	-0.091984	-0.751036	-0.094529
24315		9.022068	-0.470137	-1.408432	-0.232604	0.095341	-0.349656	-0.834473	0.034668	-0.334229	0.647112	-0.091013	-0.750313	-0.099972
24316		8.679056	-0.736239	-1.095188	0.030384	-0.009994	-0.393199	-0.837891	0.030518	-0.334961	0.646564	-0.087170	-0.750861	-0.102783
24317		9.143430	-1.192412	-1.727788	0.227806	-0.058217	-0.355838	-0.836426	0.022705	-0.331543	0.645793	-0.082276	-0.751979	-0.103486
24318		9.507199	-1.340022	-1.703163	0.127906	-0.000083	-0.230260	-0.842529	0.015381	-0.328613	0.645636	-0.079148	-0.752374	-0.104030
24319		9.226933	0.124880	-1.092001	0.010281	0.085296	-0.134302	-0.838379	0.013916	-0.333496	0.646287	-0.077675	-0.751850	-0.104888
24320		9.072047	0.143712	-1.094956	-0.165630	0.027098	-0.168829	-0.839600	0.011963	-0.335449	0.646165	-0.077502	-0.751567	-0.107755
24321		9.688497	-0.140910	-1.025733	-0.093484	-0.022561	-0.139977	-0.845459	0.006348	-0.330566	0.645671	-0.077167	-0.751739	-0.109739
24322		9.631151	-1.384461	-0.858357	0.268654	0.053813	-0.045224	-0.836426	0.003662	-0.339844	0.646379	-0.074531	-0.751725	-0.107463
24323		9.427117	-0.660048	-1.067065	0.502911	0.147575	-0.043587	-0.847656	0.004150	-0.333008	0.648161	-0.070137	-0.751194	-0.103326
24324		8.814241	1.148982	-0.957270	0.456252	0.119493	-0.017137	-0.839844	-0.001465	-0.336426	0.649657	-0.066169	-0.750831	-0.099094
24325		8.965801	1.390274	-1.259211	0.134021	-0.098841	0.043557	-0.838379	-0.002930	-0.333740	0.648915	-0.065629	-0.751765	-0.097220
24326		9.789337	0.708634	-1.079985	-0.061559	-0.036816	0.129267	-0.844238	-0.000977	-0.337891	0.648704	-0.067380	-0.751881	-0.096533
24327		9.439001	0.117423	-0.273711	-0.063352	0.053950	0.210069	-0.840332	0.012451	-0.331299	0.649417	-0.069990	-0.751162	-0.095474
24328		8.919018	0.217838	-0.524789	-0.012542	-0.049132	0.198835	-0.842529	0.013916	-0.330811	0.649211	-0.072017	-0.751366	-0.093744
24329		8.728451	-0.009732	-0.606883	-0.034790	-0.270270	0.192082	-0.850098	0.015381	-0.334229	0.646888	-0.074460	-0.753329	-0.092129
24330		8.713169	0.330895	-0.948080	0.037060	-0.383908	0.199849	-0.846924	0.008545	-0.318115	0.643540	-0.076717	-0.756238	-0.089862
24331		8.518843	-0.115366	-1.032258	0.024922	-0.176636	0.232533	-0.856934	0.032471	-0.312988	0.642184	-0.078941	-0.757442	-0.087468
24332		7.823828	0.278578	-0.772727	-0.014406	-0.114275	0.236801	-0.856445	0.037109	-0.312744	0.641367	-0.081540	-0.758079	-0.085528
24333		7.769134	1.198052	-1.711167	-0.044445	-0.214798	0.186343	-0.857178	0.039795	-0.309082	0.639509	-0.084020	-0.759525	-0.084201
24334		8.426310	0.999676	-1.457345	-0.192145	-0.026328	0.131008	-0.853760	0.044922	-0.302490	0.639222	-0.086952	-0.759357	-0.084922
24335		8.550725	0.354963	-1.411488	-0.282869	0.119042	0.150182	-0.851318	0.041748	-0.313232	0.640229	-0.090614	-0.757902	-0.086490
24336		9.362743	-1.105677	-1.787479	-0.382674	0.092661	0.182372	-0.850586	0.051758	-0.314941	0.640892	-0.095427	-0.756489	-0.088741
24337		9.494348	0.014328	-1.347331	-0.306596	0.090742	0.156325	-0.852295	0.063232	-0.311279	0.641582	-0.099381	-0.755190	-0.090469
24338		10.087470	-0.151227	-1.355099	-0.307499	0.099291	0.112918	-0.845947	0.062988	-0.317627	0.642289	-0.102917	-0.753861	-0.092554
24339		9.569994	-0.124081	-1.289726	-0.202018	0.058100	0.106208	-0.845459	0.068604	-0.314697	0.642728	-0.105590	-0.752981	-0.093650
24340		9.442023	-0.531308	-1.615074	0.037343	0.012660	0.040143	-0.850342	0.072021	-0.312256	0.642975	-0.105768	-0.752831	-0.092958
24341		9.695180	-0.056138	-1.255790	0.268567	-0.017873	-0.061996	-0.845215	0.060791	-0.318115	0.643117	-0.103162	-0.753327	-0.090866
24342		9.797872	-0.073042	-1.540012	0.456610	-0.048303	-0.145478	-0.850830	0.055176	-0.320312	0.643106	-0.098290	-0.754370	-0.087639
24343		9.827693	0.462899	-1.712242	0.481554	-0.050304	-0.158373	-0.840820	0.043213	-0.319092	0.643068	-0.093097	-0.755443	-0.084275
24344		9.752034	0.629484	-1.440988	0.269553	-0.050435	-0.113724	-0.846191	0.037354	-0.315430	0.642813	-0.090024	-0.756222	-0.082553
24345		9.755151	0.272197	-1.352372	0.169964	-0.008698	-0.113118	-0.855225	0.043213	-0.310059	0.642835	-0.087715	-0.756556	-0.081814
24346		9.465077	0.228668	-1.169562	0.114796	0.030858	-0.101081	-0.847168	0.037842	-0.318115	0.643177	-0.085924	-0.756499	-0.081539
24347		9.228858	0.081264	-1.355309	0.058646	0.028304	-0.092100	-0.848633	0.038086	-0.317139	0.643445	-0.084670	-0.756393	-0.081726
24348		9.163678	-0.078066	-1.389775	0.070862	-0.028020	-0.109846	-0.853271	0.036865	-0.319092	0.643174	-0.083209	-0.756769	-0.081879
24349		8.980687	0.430882	-1.119226	0.145803	0.087946	-0.162751	-0.850098	0.033936	-0.318359	0.644020	-0.080525	-0.756341	-0.081869
24350		8.417422	0.352977	-1.063002	0.184024	0.139156	-0.177293	-0.847656	0.023193	-0.317871	0.645367	-0.077343	-0.755546	-0.081664
24351		8.818965	-0.173405	-1.316382	0.193690	0.096837	-0.195037	-0.842041	0.027344	-0.330322	0.646297	-0.073958	-0.755111	-0.081468
24352		9.357250	-0.076344	-0.437260	0.216127	0.077249	-0.164760	-0.852051	0.007812	-0.326904	0.647089	-0.070694	-0.754817	-0.080804
24353		8.890556	0.676776	-0.286120	0.098830	0.070285	-0.095906	-0.849365	0.010254	-0.330322	0.647773	-0.069037	-0.754397	-0.080676
24354		8.512087	1.324274	-1.050659	-0.030412	0.019414	-0.058510	-0.849854	0.006104	-0.331055	0.647904	-0.068829	-0.754223	-0.081423
24355		8.480751	1.152583	-1.032318	-0.127255	-0.018331	-0.023112	-0.844482	0.018066	-0.329834	0.647631	-0.069779	-0.754225	-0.082768
24356		8.602382	0.420368	-0.954267	-0.219259	-0.001532	0.009173	-0.844727	0.015381	-0.325928	0.647466	-0.071760	-0.753961	-0.084736
24357		9.067590	0.413804	-1.305745	-0.257135	0.006902	0.038514	-0.841553	0.023926	-0.327393	0.647371	-0.074316	-0.753558	-0.086827
24358		9.648376	0.647055	-1.413969	-0.248768	-0.015590	0.042050	-0.849121	0.020020	-0.325439	0.647069	-0.076860	-0.753333	-0.088791
24359		9.583586	0.522305	-1.234718	-0.200058	0.051970	0.017977	-0.846436	0.026123	-0.333252	0.647416	-0.078709	-0.752633	-0.090554
24360		9.173105	0.040821	-0.981365	-0.170401	0.073144	0.001469	-0.838623	0.026367	-0.332275	0.647971	-0.080138	-0.751805	-0.092199
24361		9.146942	-0.155509	-1.590723	-0.243270	0.026748	0.015525	-0.840576	0.032227	-0.335449	0.648029	-0.082340	-0.751248	-0.094367
24362		10.263074	-0.124155	-1.820289	-0.203281	0.007811	0.008789	-0.840088	0.030762	-0.336182	0.647938	-0.084176	-0.750891	-0.096193
24363		10.126675	0.328791	-0.878155	-0.092491	0.102133	-0.020971	-0.843262	0.028809	-0.340088	0.648809	-0.084721	-0.749932	-0.097319
24364		8.906257	-0.246914	-0.790367	-0.138486	0.148179	0.002258	-0.843018	0.027588	-0.339355	0.650088	-0.085800	-0.748515	-0.098736
24365		9.951052	-0.938757	-2.647789	-0.113691	0.012721	-0.028392	-0.834717	0.030762	-0.338623	0.650084	-0.086558	-0.748261	-0.100017
24366		12.010601	0.019635	-2.846434	0.190264	-0.005284	-0.077504	-0.846924	0.028320	-0.342041	0.650178	-0.084407	-0.748583	-0.098832
24367		11.587506	0.517324	-1.630979	0.430459	0.042675	-0.124573	-0.836426	0.024170	-0.345459	0.650903	-0.079804	-0.748849	-0.095827
24368		10.204055	0.244086	-0.958016	0.532092	0.073394	-0.197699	-0.837891	0.010986	-0.351562	0.651905	-0.073646	-0.749026	-0.092499
24369		9.317004	0.549468	-0.965137	0.273459	0.041409	-0.057525	-0.832764	0.013428	-0.345947	0.652513	-0.070941	-0.749011	-0.090423
24370		9.891246	0.522899	-2.613959	-0.154981	-0.017664	0.139195	-0.836182	0.020020	-0.351074	0.652402	-0.073641	-0.748814	-0.090693
24371		10.604180	0.643784	-2.455491	0.046960	0.029946	0.081647	-0.833984	0.014648	-0.352295	0.652857	-0.074100	-0.748505	-0.089592
24372		9.689103	0.422643	-0.979844	0.317403	0.052261	-0.018764	-0.844482	0.017822	-0.351074	0.653652	-0.071387	-0.748404	-0.086802
24373		9.337320	0.514996	-0.463557	0.353216	0.013572	-0.035948	-0.834717	0.001709	-0.352783	0.654084	-0.068263	-0.748663	-0.083772
24374		9.364173	0.468618	-1.743176	0.080670	-0.064298	0.098249	-0.833740	0.014404	-0.357910	0.653689	-0.068703	-0.749149	-0.082137
24375		9.914810	-0.101219	-1.976454	0.033314	-0.046051	0.130128	-0.832520	0.011719	-0.348145	0.653460	-0.069805	-0.749402	-0.080709
24376		9.543329	0.587758	-0.570792	0.181522	-0.060369	0.072094	-0.835449	0.014893	-0.352783	0.653159	-0.069173	-0.749974	-0.078342
24377		8.973829	0.811331	-0.892135	0.136630	-0.127308	0.057130	-0.840820	0.011963	-0.352539	0.652177	-0.068828	-0.751053	-0.076466
24378		9.002982	0.196264	-2.021145	0.098179	-0.096261	0.089439	-0.839600	0.016357	-0.350586	0.651480	-0.069070	-0.751811	-0.074717
24379		9.056289	0.250936	-1.866358	0.159645	-0.102251	0.085511	-0.843018	0.018799	-0.346436	0.650774	-0.068779	-0.752675	-0.072416
24380		8.927685	0.345386	-0.894641	0.201062	-0.112648	0.043088	-0.835205	0.011230	-0.347900	0.649960	-0.067763	-0.753693	-0.070056
24381		9.373701	-0.039802	-1.434934	0.205990	-0.183211	0.007993	-0.842041	0.014648	-0.336426	0.648451	-0.066435	-0.755307	-0.067888
24382		10.942421	0.708144	-1.183487	0.173864	-0.112049	0.004069	-0.841064	0.010986	-0.336670	0.647573	-0.065275	-0.756320	-0.066097
24383		12.149325	4.169294	-0.886558	0.098646	-0.060486	-0.161242	-0.842529	0.012695	-0.335449	0.646983	-0.063116	-0.756981	-0.066404
24384		13.264289	2.272098	-1.916472	-0.067447	-0.096063	-0.254238	-0.843994	-0.000488	-0.344727	0.645842	-0.061453	-0.757857	-0.069017
24385		11.779721	-0.267301	-2.308952	-0.022184	-0.136225	-0.232422	-0.840576	-0.006592	-0.340820	0.644374	-0.059660	-0.759065	-0.071020
24386		9.737498	-2.026809	-2.202075	0.002900	-0.109637	-0.042611	-0.847412	0.001709	-0.331787	0.643340	-0.059443	-0.759934	-0.071275
24387		10.022408	-1.405844	-1.795581	-0.268165	-0.132917	0.183202	-0.838867	0.004639	-0.332520	0.642073	-0.063573	-0.760580	-0.072242
24388		10.176195	-1.383503	-1.461463	-0.465314	-0.124877	0.293110	-0.842529	0.009277	-0.332520	0.640806	-0.070317	-0.760864	-0.074214
24389		9.452763	-0.991298	-1.223642	-0.141869	-0.114322	0.204436	-0.845703	0.020508	-0.331055	0.639823	-0.073613	-0.761418	-0.073824
24390		8.970492	0.238820	-1.215545	0.150360	-0.071380	0.056123	-0.854980	0.015625	-0.322510	0.639375	-0.073116	-0.762029	-0.071867
24391		9.216351	1.760118	-1.719966	0.096152	-0.030002	0.026064	-0.849121	0.016602	-0.322754	0.639235	-0.072736	-0.762293	-0.070688
24392		9.146854	1.513373	-2.207964	-0.119231	-0.015419	0.062788	-0.843262	0.028076	-0.321289	0.639070	-0.074415	-0.762213	-0.071292
24393		9.284779	1.269351	-2.498123	-0.147021	-0.007603	0.030796	-0.848389	0.022217	-0.321777	0.638924	-0.076005	-0.762072	-0.072426
24394		9.753218	0.743418	-2.449794	-0.171422	-0.003404	0.031335	-0.846680	0.034180	-0.323242	0.638790	-0.077795	-0.761872	-0.073796
24395		9.835902	0.079061	-2.591664	-0.216222	-0.011100	0.036638	-0.852051	0.026123	-0.319580	0.638543	-0.079997	-0.761681	-0.075542
24396		9.773354	-0.514386	-2.417720	-0.178053	-0.033794	0.036891	-0.847900	0.035156	-0.315186	0.638107	-0.081923	-0.761706	-0.076895
24397		9.782870	-0.720741	-2.189596	-0.185019	-0.002737	0.071236	-0.844482	0.036377	-0.320068	0.637988	-0.084203	-0.761437	-0.078065
24398		9.801427	-0.752290	-2.115541	-0.120342	0.018634	0.091883	-0.839111	0.045898	-0.321045	0.638161	-0.086138	-0.761033	-0.078484
24399		9.554829	-0.457829	-2.401927	-0.016861	0.080295	0.091994	-0.842529	0.035889	-0.327148	0.639033	-0.087185	-0.760233	-0.077982
24400		9.541881	-0.416900	-2.222847	0.091573	0.141424	0.054545	-0.836426	0.039795	-0.321777	0.640564	-0.086950	-0.759089	-0.076821
24401		9.759321	-0.451100	-2.002722	0.250509	0.145601	-0.025557	-0.839355	0.037842	-0.331787	0.642220	-0.084684	-0.758148	-0.074785
24402		9.791927	-0.813844	-2.088322	0.302631	0.183618	-0.039942	-0.840820	0.032471	-0.334229	0.644272	-0.081819	-0.756952	-0.072413
24403		9.815226	-0.739866	-2.321926	0.387975	0.171505	-0.063535	-0.840820	0.037598	-0.333008	0.646256	-0.078055	-0.755939	-0.069403
24404		10.258487	-0.613331	-2.266708	0.374972	0.204918	-0.057519	-0.847412	0.029297	-0.336426	0.648529	-0.074422	-0.754620	-0.066482
24405		10.611284	-0.030405	-1.937354	0.328338	0.303900	-0.022526	-0.846436	0.025391	-0.354004	0.651697	-0.071416	-0.752409	-0.063800
24406		10.437369	0.057784	-1.625828	0.233558	0.331194	0.041208	-0.844971	0.021484	-0.354736	0.655077	-0.069748	-0.749816	-0.061526
24407		10.669378	0.747179	-1.317746	0.161796	0.302204	0.080490	-0.834717	0.018311	-0.368408	0.658132	-0.069065	-0.747358	-0.059569
24408		10.989958	1.066723	-1.079476	0.047487	0.308105	0.098783	-0.833740	0.025879	-0.369629	0.661152	-0.069481	-0.744730	-0.058551
24409		11.067233	0.953740	-1.100540	-0.052597	0.225558	0.106412	-0.833740	0.022949	-0.371338	0.663309	-0.070859	-0.742697	-0.058323
24410		11.159628	0.546131	-1.251879	-0.071793	0.174596	0.113583	-0.830322	0.029785	-0.379883	0.664971	-0.072506	-0.741062	-0.058168
24411		11.105008	0.070447	-1.755047	-0.101138	0.036258	0.119665	-0.829346	0.032959	-0.376709	0.665330	-0.074547	-0.740541	-0.058117
24412		11.391221	0.581962	-0.528960	-0.123488	0.053016	0.135510	-0.833496	0.042725	-0.377197	0.665828	-0.076914	-0.739849	-0.058152
24413		11.352833	-0.250310	-0.868444	-0.238891	0.004821	0.107896	-0.828857	0.050537	-0.376953	0.665742	-0.080021	-0.739494	-0.059435
24414		11.355486	-0.116854	-0.772039	-0.182501	0.003341	0.058856	-0.829590	0.042725	-0.381104	0.665659	-0.082204	-0.739235	-0.060606
24415		11.114260	0.407522	-0.633233	-0.203177	-0.055402	0.049164	-0.826172	0.051270	-0.372070	0.665001	-0.084511	-0.739452	-0.061994
24416		10.782635	0.651947	-0.861826	-0.288727	-0.083850	0.028194	-0.825439	0.060547	-0.377930	0.663962	-0.087363	-0.739855	-0.064311
24417		10.667845	0.285816	-0.772819	-0.339272	-0.060197	0.010654	-0.829346	0.059814	-0.367920	0.663070	-0.090444	-0.740022	-0.067279
24418		10.397253	-0.026695	-0.698294	-0.374395	-0.047905	-0.010474	-0.828613	0.066650	-0.363037	0.662211	-0.093617	-0.740072	-0.070749
24419		9.980460	0.207883	-0.843858	-0.432475	-0.055349	-0.015039	-0.832764	0.071533	-0.358398	0.661192	-0.097236	-0.740120	-0.074781
24420		9.522954	0.309761	-0.824586	-0.497104	-0.051839	-0.032001	-0.837891	0.074951	-0.366943	0.660085	-0.101230	-0.740076	-0.079548
24421		9.267066	-0.072613	-0.928342	-0.546494	-0.027380	-0.048364	-0.831787	0.074707	-0.353271	0.659103	-0.105443	-0.739763	-0.084948
24422		8.958325	-0.646877	-0.751817	-0.496032	0.000748	-0.056603	-0.835938	0.077393	-0.362305	0.658401	-0.109137	-0.739258	-0.089970
24423		8.640558	-0.644583	-0.647126	-0.382789	0.006777	-0.107535	-0.830566	0.078857	-0.349365	0.657838	-0.111411	-0.738870	-0.094379
24424		8.500257	-0.634348	-0.842020	-0.251288	-0.033506	-0.176990	-0.833984	0.081543	-0.348877	0.656983	-0.112014	-0.739059	-0.098073
24425		8.638693	0.098590	-1.086750	-0.126789	0.005597	-0.192782	-0.834961	0.072021	-0.343262	0.656637	-0.111400	-0.739092	-0.100798
24426		8.439635	0.222900	-1.053967	-0.153393	0.110736	-0.166210	-0.837646	0.070068	-0.353271	0.657247	-0.111120	-0.738192	-0.103688
24427		8.344583	0.337640	-0.927557	-0.301499	0.159207	-0.129183	-0.843750	0.071533	-0.353760	0.658141	-0.112327	-0.736634	-0.107716
24428		8.456493	0.080874	-0.800737	-0.409967	0.125817	-0.096920	-0.836182	0.075684	-0.353027	0.658599	-0.114772	-0.735144	-0.112425
24429		8.462628	-0.463133	-0.784220	-0.414836	0.076999	-0.089217	-0.829102	0.084229	-0.354248	0.658593	-0.117390	-0.734013	-0.117043
24430		8.367650	-0.729721	-0.974142	-0.305822	0.049272	-0.072100	-0.827637	0.081055	-0.361816	0.658509	-0.119303	-0.733223	-0.120483
24431		8.326596	-0.545078	-1.039635	-0.210374	0.087469	-0.086827	-0.833496	0.083496	-0.351074	0.658893	-0.120227	-0.732270	-0.123229
24432		8.424254	-0.374505	-1.186524	-0.078644	0.052860	-0.128983	-0.834717	0.076660	-0.353516	0.659077	-0.119744	-0.731875	-0.125048
24433		8.415021	-0.189804	-1.179394	-0.001243	0.067424	-0.129455	-0.823730	0.072510	-0.366211	0.659509	-0.118591	-0.731479	-0.126183
24434		8.667433	-0.243176	-1.174079	0.009883	0.048303	-0.114055	-0.822266	0.066162	-0.354248	0.659818	-0.117503	-0.731222	-0.127074
24435		8.959287	-0.198573	-0.927546	0.039609	0.076028	-0.076208	-0.820312	0.082520	-0.360352	0.660474	-0.116477	-0.730736	-0.127406
24436		9.204482	-0.392859	-1.042141	0.017444	0.027970	-0.039824	-0.828369	0.077393	-0.355469	0.660723	-0.116047	-0.730548	-0.127584
24437		9.598539	-0.478294	-1.065157	0.074687	0.012853	-0.042691	-0.825439	0.076904	-0.355225	0.660906	-0.115145	-0.730587	-0.127231
24438		9.829399	-0.630674	-1.194762	0.199605	0.035472	-0.047448	-0.829590	0.066895	-0.368164	0.661467	-0.113128	-0.730641	-0.125808
24439		9.607457	0.027948	-1.099946	0.348301	0.071859	-0.040197	-0.828125	0.061035	-0.360352	0.662579	-0.109880	-0.730604	-0.123019
24440		9.487090	0.441980	-1.012441	0.370673	0.065176	-0.023688	-0.823486	0.064453	-0.358643	0.663668	-0.106609	-0.730623	-0.119870
24441		9.621088	0.728535	-0.884631	0.334919	0.069136	-0.004663	-0.820068	0.053955	-0.370361	0.664762	-0.103803	-0.730515	-0.116895
24442		9.770003	-0.062508	-0.769150	0.332008	0.029515	0.000430	-0.824951	0.052002	-0.378662	0.665490	-0.101115	-0.730709	-0.113856
24443		9.749918	0.032862	-0.759712	0.327503	-0.000184	0.033246	-0.819824	0.051758	-0.376709	0.665980	-0.098805	-0.731087	-0.110548
24444		9.886518	0.701700	-0.985276	0.242800	-0.008217	0.064743	-0.821533	0.046387	-0.369873	0.666326	-0.097498	-0.731366	-0.107739
24445		9.811269	0.807567	-0.910955	0.065558	-0.011661	0.100765	-0.828613	0.048584	-0.366699	0.666465	-0.098003	-0.731391	-0.106243
24446		9.856456	0.403050	-0.868789	-0.037414	-0.003324	0.120385	-0.823242	0.050537	-0.376709	0.666575	-0.099538	-0.731185	-0.105535
24447		9.583062	-0.081664	-0.756473	-0.054866	-0.040889	0.143806	-0.829102	0.053711	-0.371826	0.666355	-0.101476	-0.731233	-0.104749
24448		9.606119	0.087987	-0.796358	-0.023017	-0.088047	0.119738	-0.827148	0.062744	-0.372803	0.665706	-0.102993	-0.731745	-0.103809
24449		9.615712	0.140723	-1.086775	-0.008798	-0.074250	0.093678	-0.832764	0.071289	-0.368896	0.665168	-0.104135	-0.732190	-0.102977
24450		9.630626	0.118153	-0.979394	0.016479	-0.082313	0.080520	-0.831055	0.071533	-0.362061	0.664570	-0.104961	-0.732751	-0.102013
24451		9.554328	0.170430	-0.919450	-0.000940	-0.087958	0.080087	-0.831787	0.065186	-0.356934	0.663892	-0.105935	-0.733337	-0.101202
24452		9.685193	-0.011915	-1.103755	-0.012189	-0.070565	0.057348	-0.828125	0.070557	-0.357178	0.663328	-0.106771	-0.733795	-0.100702
24453		9.624750	-0.354616	-0.861751	0.024995	-0.074344	0.025894	-0.831055	0.066895	-0.358887	0.662740	-0.107014	-0.734370	-0.100120
24454		9.453184	-0.306955	-0.925503	0.063805	-0.077876	0.005115	-0.833252	0.071289	-0.362305	0.662145	-0.106747	-0.735050	-0.099347
24455		9.550430	0.131086	-0.964317	0.087054	-0.100512	-0.018086	-0.830566	0.068115	-0.356445	0.661346	-0.106100	-0.735974	-0.098524
24456		9.353370	0.073225	-1.029941	0.065715	-0.110061	-0.014546	-0.838379	0.064697	-0.347412	0.660432	-0.105675	-0.736945	-0.097854
24457		9.147360	0.172252	-1.078376	-0.009805	-0.101376	-0.003369	-0.833008	0.069824	-0.348389	0.659506	-0.105970	-0.737739	-0.097795
24458		8.937621	0.254203	-0.622571	-0.157165	-0.117665	0.020164	-0.833008	0.065918	-0.345459	0.658264	-0.107714	-0.738450	-0.098883
24459		8.754537	-0.083720	-0.736244	-0.243808	-0.156078	0.025811	-0.833252	0.076660	-0.345459	0.656551	-0.110267	-0.739356	-0.100670
24460		8.612446	-0.520755	-1.128580	-0.157815	-0.167716	0.000715	-0.835938	0.078369	-0.346436	0.654813	-0.111896	-0.740490	-0.101855
24461		8.882073	-0.004739	-1.280523	-0.047015	-0.184329	-0.028271	-0.835693	0.073975	-0.344727	0.653037	-0.112366	-0.741934	-0.102228
24462		9.642325	0.181482	-1.157125	-0.004141	-0.179393	-0.049734	-0.836426	0.070557	-0.335693	0.651336	-0.112278	-0.743419	-0.102383
24463		9.308723	0.037604	-0.726940	-0.040239	-0.098664	-0.019421	-0.845703	0.075928	-0.333496	0.650369	-0.112665	-0.744158	-0.102739
24464		8.542899	0.091427	-0.893911	-0.133913	-0.065465	0.007095	-0.837646	0.072510	-0.338135	0.649610	-0.114020	-0.744468	-0.103798
24465		8.572827	-0.040968	-1.302856	-0.192515	-0.067902	0.020051	-0.837158	0.074707	-0.340576	0.648763	-0.115967	-0.744696	-0.105294
24466		9.675331	-0.253693	-1.602904	-0.127534	-0.024925	-0.021309	-0.846680	0.085693	-0.341797	0.648355	-0.116941	-0.744716	-0.106583
24467		9.598370	0.029268	-0.658362	-0.002237	0.077426	-0.047122	-0.841797	0.083740	-0.340332	0.649046	-0.116525	-0.744109	-0.107065
24468		8.503622	-0.063559	-0.484761	-0.044696	0.087204	-0.021836	-0.843018	0.086914	-0.336914	0.649800	-0.116677	-0.743328	-0.107749
24469		9.365985	-0.613882	-1.477488	-0.086846	0.003322	-0.050155	-0.839111	0.086182	-0.335693	0.649670	-0.117025	-0.743214	-0.108932
24470		10.326322	-0.381725	-1.767821	0.104032	0.014126	-0.061211	-0.836670	0.083252	-0.340820	0.649904	-0.115704	-0.743288	-0.108444
24471		10.075068	-0.358854	-1.480570	0.387347	0.008256	-0.066497	-0.837646	0.068604	-0.342041	0.650481	-0.112034	-0.743789	-0.105357
24472		9.815526	0.202540	-1.446406	0.557247	-0.009872	-0.131950	-0.831543	0.070312	-0.346191	0.651016	-0.106392	-0.744728	-0.101190
24473		9.958693	0.681872	-1.100963	0.569682	0.000709	-0.145153	-0.839844	0.052002	-0.338867	0.651620	-0.100502	-0.745571	-0.097025
24474		9.678547	0.320200	-0.764222	0.354429	0.003086	-0.033329	-0.836426	0.054932	-0.351318	0.652079	-0.097412	-0.745973	-0.093954
24475		9.252098	0.056649	-1.278066	0.096911	0.019666	0.097609	-0.835449	0.065186	-0.344238	0.652536	-0.097609	-0.745762	-0.092240
24476		9.617611	0.476129	-1.341254	0.038969	0.025811	0.141346	-0.845215	0.057373	-0.342285	0.653023	-0.098687	-0.745381	-0.090714
24477		10.254821	0.318703	-1.701888	0.064893	0.039497	0.110055	-0.841309	0.056396	-0.345459	0.653626	-0.099253	-0.744958	-0.089220
24478		10.521960	0.047330	-1.333674	0.130529	0.087438	0.090465	-0.835938	0.063721	-0.351074	0.654733	-0.099043	-0.744236	-0.087335
24479		10.155507	-0.233789	-0.895062	0.166150	0.102836	0.097226	-0.835693	0.060059	-0.356689	0.656036	-0.098581	-0.743411	-0.085082
24480		10.051946	-0.279403	-1.109400	0.114447	0.060828	0.124448	-0.830322	0.070068	-0.363770	0.656911	-0.098835	-0.742836	-0.083034
24481		10.284819	0.166514	-1.427823	0.035267	0.012203	0.142520	-0.837402	0.066650	-0.364746	0.657259	-0.099949	-0.742548	-0.081511
24482		10.295666	-0.202019	-1.151018	0.067355	0.040565	0.124403	-0.834473	0.073242	-0.355225	0.657886	-0.100604	-0.742082	-0.079874
24483		9.653177	-0.054862	-1.288864	0.123750	0.021727	0.081759	-0.832520	0.069824	-0.360352	0.658358	-0.100431	-0.741882	-0.078040
24484		10.182863	0.143677	-2.221293	0.140627	-0.047152	0.033762	-0.836914	0.076660	-0.364746	0.658166	-0.099734	-0.742321	-0.076358
24485		10.717491	0.263547	-1.097241	0.092941	0.008348	0.043328	-0.832764	0.062012	-0.360107	0.658440	-0.099460	-0.742242	-0.075108
24486		10.107594	-0.500131	-1.072298	0.069051	-0.030287	0.029034	-0.829346	0.064941	-0.358398	0.658307	-0.099293	-0.742479	-0.074154
24487		10.166751	-0.037357	-1.479900	0.111605	-0.059205	-0.032049	-0.836182	0.067139	-0.361084	0.657900	-0.098236	-0.743067	-0.073270
24488		10.378692	0.260538	-1.389092	0.057454	-0.034312	-0.006090	-0.830811	0.064697	-0.358643	0.657683	-0.097838	-0.743367	-0.072705
24489		9.898860	-0.140995	-1.275714	-0.004624	0.046956	0.010476	-0.831055	0.071045	-0.366211	0.658159	-0.098033	-0.742922	-0.072682
24490		9.065139	-0.128185	-1.220279	0.058615	0.004873	-0.029736	-0.832520	0.070312	-0.365234	0.658291	-0.097361	-0.742926	-0.072349
24491		9.443859	0.507191	-1.108692	0.076254	-0.074312	-0.052117	-0.837646	0.062500	-0.365234	0.657687	-0.096411	-0.743625	-0.071939
24492		9.417959	0.218292	-1.079007	-0.009335	-0.050654	-0.014953	-0.830566	0.070312	-0.362061	0.657230	-0.096488	-0.744008	-0.072049
24493		9.086787	-0.205565	-1.243458	0.040792	0.015441	-0.026786	-0.840576	0.066162	-0.358643	0.657439	-0.095985	-0.743905	-0.071872
24494		9.570771	-0.061354	-1.513185	0.090293	-0.047471	-0.041192	-0.836670	0.060791	-0.363281	0.657102	-0.095010	-0.744385	-0.071277
24495		10.015496	0.071022	-1.494988	0.058591	-0.107617	-0.037263	-0.837402	0.068604	-0.358154	0.656174	-0.094374	-0.745322	-0.070874
