// Start Time: Unknown
// Update Rate: 40.0Hz
// Filter Profile: human (46.1)
// Firmware Version: 4.6.0
PacketCounter	SampleTimeFine	Acc_X	Acc_Y	Acc_Z	Gyr_X	Gyr_Y	Gyr_Z	Mag_X	Mag_Y	Mag_Z	Quat_q0	Quat_q1	Quat_q2	Quat_q3
23592		9.557794	0.826559	-1.988114	0.008743	0.004280	-0.013796	-0.641113	0.211426	-0.283447	0.594266	-0.197903	-0.749879	-0.212990
23593		9.570647	0.821664	-2.043366	0.004137	0.000790	-0.014439	-0.641113	0.216553	-0.284424	0.594245	-0.197734	-0.749920	-0.213060
23594		9.562338	0.836897	-2.014151	0.008450	0.003123	-0.013459	-0.642334	0.217041	-0.288574	0.594260	-0.197543	-0.749950	-0.213087
23595		9.565308	0.850117	-1.997090	0.006907	0.003856	-0.015339	-0.633057	0.222656	-0.299072	0.594272	-0.197338	-0.749979	-0.213146
23596		9.574952	0.845869	-2.016715	0.007796	0.006246	-0.011902	-0.639404	0.216553	-0.281494	0.594316	-0.197151	-0.749984	-0.213177
23597		9.565281	0.855381	-1.994972	0.005091	0.003825	-0.010644	-0.637939	0.218018	-0.285156	0.594332	-0.197002	-0.749998	-0.213218
23598		9.590200	0.813463	-2.017865	0.003178	0.004210	-0.010766	-0.636963	0.213623	-0.283691	0.594345	-0.196865	-0.750006	-0.213281
23599		9.576478	0.816082	-1.991034	0.006213	0.004335	-0.013694	-0.636230	0.216309	-0.284424	0.594358	-0.196680	-0.750030	-0.213332
23600		9.578650	0.847923	-1.985307	0.006076	0.003029	-0.014414	-0.630127	0.213135	-0.288574	0.594357	-0.196497	-0.750065	-0.213383
23601		9.577160	0.819185	-2.011304	0.005320	0.002862	-0.013125	-0.640625	0.215332	-0.287842	0.594357	-0.196331	-0.750094	-0.213431
23602		9.572071	0.817859	-1.984109	0.009224	0.001286	-0.014302	-0.640381	0.217773	-0.286621	0.594345	-0.196136	-0.750151	-0.213441
23603		9.564750	0.803726	-1.995240	0.004209	-0.000039	-0.015865	-0.634521	0.217041	-0.289307	0.594308	-0.195972	-0.750207	-0.213501
23604		9.604271	0.821576	-1.999943	0.008532	0.000842	-0.016664	-0.636963	0.218262	-0.291260	0.594292	-0.195771	-0.750267	-0.213521
23605		9.575789	0.843619	-1.959340	0.007892	0.002509	-0.016887	-0.645020	0.212891	-0.283691	0.594291	-0.195576	-0.750311	-0.213545
23606		9.565431	0.819649	-1.986696	0.008460	0.000183	-0.017026	-0.635742	0.216309	-0.291016	0.594265	-0.195381	-0.750378	-0.213560
23607		9.573591	0.845381	-1.967865	0.009282	-0.002698	-0.013403	-0.638428	0.205566	-0.287354	0.594240	-0.195224	-0.750448	-0.213529
23608		9.553359	0.827501	-1.975806	0.009701	-0.004868	-0.012481	-0.637939	0.214600	-0.288818	0.594191	-0.195063	-0.750541	-0.213485
23609		9.553753	0.826943	-1.998977	0.008209	-0.006656	-0.011680	-0.631104	0.212646	-0.294189	0.594135	-0.194945	-0.750630	-0.213438
23610		9.610606	0.835410	-2.003331	0.010685	-0.004738	-0.012243	-0.633545	0.221680	-0.293701	0.594114	-0.194788	-0.750705	-0.213375
23611		9.580896	0.798134	-2.009110	0.011416	-0.004053	-0.015766	-0.632324	0.215576	-0.293457	0.594096	-0.194621	-0.750777	-0.213324
23612		9.547663	0.804472	-1.994084	0.015377	-0.000351	-0.017134	-0.641113	0.213379	-0.281982	0.594116	-0.194392	-0.750841	-0.213249
23613		9.572420	0.840827	-1.985127	0.011775	-0.003719	-0.017529	-0.637695	0.222900	-0.291260	0.594058	-0.194216	-0.750950	-0.213191
23614		9.575127	0.827709	-1.988707	0.008969	-0.007972	-0.014751	-0.629395	0.220215	-0.292480	0.594000	-0.194123	-0.751037	-0.213128
23615		9.564408	0.803388	-2.018175	0.007956	-0.007589	-0.017225	-0.638184	0.209717	-0.286133	0.593952	-0.193989	-0.751118	-0.213098
23616		9.585873	0.814567	-1.993382	0.004243	-0.005000	-0.018982	-0.632812	0.223145	-0.290771	0.593868	-0.193837	-0.751217	-0.213120
23617		9.568261	0.850266	-1.999832	0.006157	-0.004441	-0.014852	-0.632812	0.208008	-0.286133	0.593851	-0.193770	-0.751259	-0.213081
23618		9.564630	0.843487	-2.017610	0.003979	-0.006680	-0.016408	-0.635498	0.210205	-0.285889	0.593766	-0.193622	-0.751364	-0.213084
23619		9.581645	0.823127	-1.984243	0.003531	-0.006212	-0.013228	-0.635742	0.218262	-0.283936	0.593688	-0.193530	-0.751454	-0.213067
23620		9.589228	0.814198	-2.014720	0.003373	-0.007002	-0.016179	-0.645020	0.215332	-0.292725	0.593600	-0.193478	-0.751539	-0.213059
23621		9.545487	0.819860	-2.009488	0.006443	-0.004764	-0.016979	-0.635254	0.212891	-0.291748	0.593555	-0.193383	-0.751601	-0.213053
23622		9.563080	0.838897	-2.012188	0.006680	-0.004790	-0.015448	-0.630859	0.216309	-0.296875	0.593533	-0.193256	-0.751658	-0.213029
23623		9.589914	0.811434	-1.999305	0.002684	-0.006517	-0.014531	-0.630615	0.209961	-0.284180	0.593533	-0.193183	-0.751676	-0.213031
23624		9.565228	0.829384	-2.017168	0.002054	-0.006318	-0.016534	-0.641357	0.214600	-0.290283	0.593450	-0.193061	-0.751771	-0.213038
23625		9.543534	0.857729	-2.018646	0.001905	-0.006163	-0.015474	-0.638916	0.212646	-0.295654	0.593383	-0.193018	-0.751830	-0.213054
23626		9.620393	0.846025	-2.001596	0.003666	-0.006385	-0.014295	-0.636963	0.205566	-0.290039	0.593360	-0.192937	-0.751868	-0.213058
23627		9.562991	0.851085	-1.970713	0.002330	-0.008333	-0.014550	-0.630859	0.216797	-0.286133	0.593278	-0.192795	-0.751966	-0.213071
23628		9.560102	0.790607	-2.025608	0.001193	-0.008316	-0.013729	-0.642822	0.208740	-0.297607	0.593212	-0.192788	-0.752024	-0.213056
23629		9.550146	0.824741	-2.010318	0.006573	-0.008100	-0.015720	-0.635254	0.221680	-0.294189	0.593184	-0.192641	-0.752083	-0.213056
23630		9.566422	0.862060	-2.025731	0.002477	-0.011659	-0.013283	-0.636963	0.222168	-0.292236	0.593147	-0.192703	-0.752106	-0.213021
23631		9.579782	0.823081	-2.039492	0.006076	-0.009754	-0.014677	-0.639648	0.211670	-0.289307	0.593111	-0.192738	-0.752141	-0.212968
23632		9.582073	0.836637	-2.025223	0.007896	-0.006161	-0.015472	-0.635742	0.215088	-0.282471	0.593057	-0.192624	-0.752222	-0.212935
23633		9.571766	0.797047	-2.020821	0.011073	-0.003562	-0.019573	-0.635742	0.208740	-0.298340	0.592990	-0.192489	-0.752327	-0.212874
23634		9.555039	0.814401	-2.015539	0.013257	-0.002790	-0.019802	-0.641846	0.217529	-0.296631	0.593068	-0.192224	-0.752339	-0.212851
23635		9.563693	0.838128	-2.019109	0.007679	-0.004984	-0.018884	-0.636475	0.208740	-0.280762	0.593085	-0.192172	-0.752338	-0.212855
23636		9.592021	0.782175	-2.045822	0.007464	-0.003801	-0.022295	-0.635498	0.215820	-0.293701	0.592968	-0.191962	-0.752486	-0.212849
23637		9.560840	0.842839	-2.029569	0.008493	-0.003971	-0.025715	-0.638916	0.220703	-0.282715	0.592987	-0.191813	-0.752501	-0.212876
23638		9.561004	0.845425	-2.052147	0.007631	-0.002805	-0.025239	-0.639648	0.199951	-0.295654	0.592896	-0.191784	-0.752581	-0.212873
23639		9.569798	0.855402	-2.022208	0.008434	-0.001998	-0.026178	-0.641113	0.212158	-0.292480	0.592904	-0.191384	-0.752650	-0.212969
23640		9.557988	0.862923	-2.010154	0.002055	-0.000894	-0.022641	-0.638672	0.214600	-0.294189	0.592896	-0.191285	-0.752654	-0.213064
23641		9.567983	0.857685	-2.053175	-0.000323	-0.005325	-0.019375	-0.637451	0.214355	-0.282959	0.592889	-0.191281	-0.752639	-0.213139
23642		9.582773	0.852187	-2.038549	-0.000505	-0.000538	-0.018870	-0.636475	0.208008	-0.286133	0.592813	-0.191278	-0.752689	-0.213176
23643		9.568712	0.856686	-2.012940	0.002405	-0.002247	-0.020297	-0.640137	0.210205	-0.290283	0.592756	-0.191127	-0.752761	-0.213219
23644		9.564333	0.854152	-2.008221	0.000282	-0.002374	-0.019711	-0.634033	0.223633	-0.284668	0.592722	-0.191052	-0.752783	-0.213304
23645		9.557389	0.864665	-2.022790	0.003712	0.001176	-0.018270	-0.639648	0.214600	-0.285156	0.592734	-0.191212	-0.752739	-0.213281
23646		9.574735	0.860689	-2.021000	-0.000686	-0.001555	-0.015934	-0.643799	0.214600	-0.282715	0.592666	-0.191274	-0.752766	-0.213319
23647		9.538632	0.856798	-2.021563	0.000573	-0.000262	-0.016043	-0.631836	0.209229	-0.290039	0.592555	-0.191339	-0.752826	-0.213356
23648		9.632133	0.872264	-2.045944	0.001169	0.000055	-0.016277	-0.632080	0.219971	-0.277832	0.592619	-0.191242	-0.752791	-0.213390
23649		9.577220	0.855740	-2.023192	0.006393	0.000447	-0.017216	-0.638184	0.208984	-0.291504	0.592557	-0.191354	-0.752833	-0.213313
23650		9.560392	0.848763	-2.013572	0.001803	-0.000137	-0.014275	-0.629639	0.211670	-0.289062	0.592597	-0.191293	-0.752803	-0.213364
23651		9.545886	0.843624	-2.017649	0.008809	-0.001429	-0.015814	-0.633057	0.212646	-0.291504	0.592678	-0.191212	-0.752776	-0.213307
23652		9.561799	0.892580	-1.980255	0.002975	-0.004790	-0.014543	-0.640625	0.220947	-0.292969	0.592721	-0.191233	-0.752735	-0.213312
23653		9.557260	0.868603	-2.056906	0.006194	-0.001725	-0.012398	-0.639648	0.214600	-0.290039	0.592774	-0.191461	-0.752636	-0.213310
23654		9.584016	0.844080	-2.020960	0.010382	0.003153	-0.014134	-0.635010	0.215576	-0.287354	0.592838	-0.191473	-0.752591	-0.213281
23655		9.595677	0.853456	-2.003114	0.011183	0.003963	-0.015074	-0.637939	0.207520	-0.297852	0.592912	-0.191479	-0.752550	-0.213215
23656		9.558385	0.843458	-2.011023	0.013027	0.002934	-0.015317	-0.632812	0.210449	-0.287354	0.593079	-0.191305	-0.752459	-0.213226
23657		9.566472	0.834361	-2.039589	0.010324	0.001003	-0.016276	-0.637939	0.216553	-0.285400	0.593129	-0.191187	-0.752469	-0.213158
23658		9.563860	0.835737	-2.025977	0.007487	0.001880	-0.016273	-0.638916	0.212891	-0.292236	0.593116	-0.191258	-0.752471	-0.213121
23659		9.566637	0.873581	-2.012820	0.006844	0.002059	-0.018280	-0.641846	0.217041	-0.285156	0.593174	-0.191242	-0.752417	-0.213166
23660		9.559714	0.859617	-2.023337	0.003908	0.002600	-0.014974	-0.631592	0.212402	-0.287109	0.593125	-0.191372	-0.752422	-0.213167
23661		9.577277	0.855194	-2.020963	0.006556	0.002385	-0.016156	-0.644775	0.218750	-0.287354	0.593188	-0.191335	-0.752393	-0.213129
23662		9.555535	0.859182	-2.016977	0.007071	0.003527	-0.014969	-0.641602	0.218994	-0.287598	0.593158	-0.191501	-0.752372	-0.213136
23663		9.551602	0.855028	-2.011048	0.004152	0.002585	-0.013442	-0.639648	0.217041	-0.291992	0.593147	-0.191705	-0.752326	-0.213147
23664		9.569310	0.850074	-2.008252	0.004608	0.005711	-0.012717	-0.638916	0.215820	-0.288574	0.593237	-0.191868	-0.752200	-0.213194
23665		9.575771	0.847223	-1.992920	0.006611	0.003034	-0.015801	-0.636963	0.214600	-0.286133	0.593261	-0.191937	-0.752162	-0.213199
23666		9.575006	0.842526	-2.022297	0.002331	0.000633	-0.016762	-0.634521	0.218750	-0.291992	0.593236	-0.191982	-0.752168	-0.213209
23667		9.573893	0.873054	-2.003899	0.004428	0.002243	-0.015573	-0.629395	0.211182	-0.298096	0.593328	-0.192168	-0.752034	-0.213255
23668		9.574982	0.858377	-1.991937	0.001011	0.001311	-0.017115	-0.641357	0.214111	-0.297119	0.593512	-0.192188	-0.751846	-0.213388
23669		9.571921	0.875266	-2.011413	0.000914	0.000979	-0.013812	-0.635986	0.213623	-0.292236	0.593578	-0.192348	-0.751711	-0.213538
23670		9.590892	0.875741	-2.001201	0.002682	0.000781	-0.012631	-0.627686	0.214844	-0.284912	0.593638	-0.192435	-0.751631	-0.213574
23671		9.577983	0.851450	-1.993145	0.004717	0.001735	-0.011799	-0.638184	0.209717	-0.289551	0.593705	-0.192457	-0.751607	-0.213453
23672		9.566068	0.847367	-2.010194	0.000612	0.000154	-0.009802	-0.637695	0.216064	-0.288818	0.593707	-0.192458	-0.751603	-0.213459
23673		9.551790	0.864821	-2.017528	0.004184	-0.000569	-0.011104	-0.637695	0.215332	-0.293457	0.593705	-0.192593	-0.751577	-0.213434
23674		9.573513	0.851481	-1.988120	0.002930	-0.001870	-0.010993	-0.634766	0.219971	-0.286621	0.593742	-0.192758	-0.751493	-0.213477
23675		9.557655	0.839560	-2.000994	0.007648	-0.005416	-0.007112	-0.641357	0.219482	-0.294922	0.593716	-0.192994	-0.751493	-0.213338
23676		9.605193	0.844055	-2.035409	0.012731	0.001596	-0.009083	-0.637695	0.218018	-0.286621	0.593798	-0.193227	-0.751371	-0.213327
23677		9.583960	0.831243	-1.998680	0.014341	0.001728	-0.012745	-0.635986	0.218506	-0.292969	0.593813	-0.193273	-0.751386	-0.213191
23678		9.573898	0.840849	-1.978075	0.010722	0.000299	-0.013581	-0.639404	0.217041	-0.285400	0.593888	-0.193422	-0.751292	-0.213179
23679		9.562791	0.833866	-2.017207	0.010001	-0.001344	-0.014063	-0.636230	0.211426	-0.288574	0.593830	-0.193449	-0.751362	-0.213070
23680		9.540939	0.837239	-2.013975	0.010589	0.001615	-0.014405	-0.633301	0.218506	-0.291260	0.593864	-0.193333	-0.751386	-0.212995
23681		9.595543	0.869301	-2.006960	0.009852	0.001462	-0.013107	-0.642334	0.214111	-0.294189	0.593953	-0.193465	-0.751293	-0.212955
23682		9.603352	0.847670	-1.980689	0.005826	0.001692	-0.012635	-0.636963	0.218018	-0.295654	0.593981	-0.193557	-0.751226	-0.213029
23683		9.596999	0.841773	-1.961784	-0.000859	-0.000357	-0.016782	-0.642822	0.208984	-0.295898	0.594026	-0.193780	-0.751086	-0.213195
23684		9.570330	0.822286	-2.012844	-0.001702	-0.003321	-0.017977	-0.634521	0.218506	-0.291260	0.593983	-0.193773	-0.751066	-0.213393
23685		9.550538	0.852680	-2.027044	0.000923	-0.002043	-0.017381	-0.637939	0.215576	-0.289551	0.593993	-0.193930	-0.751000	-0.213455
23686		9.573484	0.869902	-1.993158	0.000188	-0.002196	-0.016083	-0.646240	0.205322	-0.293457	0.593953	-0.194006	-0.750999	-0.213499
23687		9.583482	0.827920	-1.977618	-0.000268	-0.002689	-0.016914	-0.635010	0.208252	-0.290039	0.593865	-0.193875	-0.751059	-0.213652
23688		9.574960	0.856317	-2.004119	0.004277	-0.000618	-0.018088	-0.644531	0.214844	-0.291748	0.593879	-0.193696	-0.751092	-0.213659
23689		9.564455	0.835356	-2.009351	0.008280	0.004434	-0.018778	-0.637939	0.210205	-0.290039	0.593879	-0.193706	-0.751069	-0.213733
23690		9.564664	0.847764	-1.979102	0.009665	0.001771	-0.017962	-0.635742	0.216553	-0.294678	0.593900	-0.193554	-0.751097	-0.213711
23691		9.561481	0.864407	-1.998802	0.005825	0.000187	-0.014423	-0.630859	0.219238	-0.294434	0.593975	-0.193696	-0.750986	-0.213764
23692		9.590255	0.858253	-2.009549	0.005901	-0.000648	-0.015846	-0.631592	0.215576	-0.295166	0.594080	-0.193880	-0.750847	-0.213796
23693		9.581378	0.874022	-1.981138	0.008403	-0.000688	-0.015966	-0.638916	0.210693	-0.288818	0.594185	-0.193953	-0.750739	-0.213817
23694		9.572221	0.857402	-1.978965	0.002262	-0.001744	-0.013014	-0.635742	0.213867	-0.288818	0.594143	-0.193899	-0.750792	-0.213796
23695		9.564421	0.845887	-1.968890	0.005236	-0.002784	-0.014083	-0.643066	0.214844	-0.293213	0.594126	-0.193897	-0.750821	-0.213743
23696		9.585523	0.848569	-1.973245	0.002271	-0.004389	-0.012906	-0.641113	0.213379	-0.290039	0.594066	-0.194041	-0.750810	-0.213819
23697		9.561752	0.837888	-2.008440	0.008111	-0.001496	-0.011952	-0.639893	0.213379	-0.292236	0.594038	-0.194053	-0.750841	-0.213776
23698		9.579130	0.856349	-2.010530	0.012390	-0.000571	-0.012779	-0.635498	0.216553	-0.295410	0.594059	-0.194050	-0.750837	-0.213732
23699		9.593051	0.844183	-2.003341	0.010148	0.001757	-0.014900	-0.629150	0.216553	-0.292480	0.594162	-0.194150	-0.750723	-0.213758
23700		9.563620	0.856830	-1.992825	0.014184	0.000033	-0.017156	-0.643555	0.219238	-0.293213	0.594280	-0.194138	-0.750657	-0.213673
23701		9.574969	0.866560	-1.975898	0.011064	0.000097	-0.013134	-0.644043	0.217529	-0.296631	0.594275	-0.194315	-0.750612	-0.213682
23702		9.569550	0.856781	-1.979238	0.006544	-0.003480	-0.013735	-0.636963	0.212891	-0.290527	0.594247	-0.194539	-0.750544	-0.213794
23703		9.612161	0.859541	-1.987118	-0.001341	-0.004710	-0.015629	-0.640137	0.212646	-0.290771	0.594196	-0.194558	-0.750569	-0.213832
23704		9.566182	0.806617	-1.990356	0.002560	-0.003973	-0.020599	-0.635254	0.217529	-0.293213	0.594122	-0.194513	-0.750621	-0.213898
23705		9.560060	0.845902	-2.001273	0.003798	-0.003815	-0.018826	-0.633057	0.212158	-0.287109	0.594125	-0.194625	-0.750572	-0.213960
23706		9.564941	0.871338	-1.969648	0.006221	-0.001873	-0.019415	-0.633301	0.219482	-0.289795	0.594118	-0.194460	-0.750643	-0.213877
23707		9.595801	0.868399	-1.994679	-0.004819	-0.006346	-0.017528	-0.630615	0.212402	-0.289795	0.594069	-0.194649	-0.750616	-0.213937
23708		9.573504	0.840866	-2.018354	0.000421	-0.002621	-0.018233	-0.638184	0.212646	-0.288086	0.594090	-0.194586	-0.750615	-0.213939
23709		9.564415	0.825585	-2.015849	0.006782	0.002226	-0.021658	-0.636475	0.212402	-0.286621	0.594078	-0.194445	-0.750661	-0.213939
23710		9.567799	0.869632	-1.994952	0.008691	0.000728	-0.019653	-0.633789	0.216553	-0.292725	0.594064	-0.194288	-0.750732	-0.213871
23711		9.591561	0.884064	-1.982764	0.004967	-0.004333	-0.017416	-0.646729	0.215820	-0.289062	0.594080	-0.194374	-0.750691	-0.213897
23712		9.593031	0.846053	-1.968254	0.002442	-0.001664	-0.017408	-0.636475	0.215088	-0.294434	0.593965	-0.194448	-0.750741	-0.213971
23713		9.561014	0.892754	-2.003001	0.000983	-0.000818	-0.016696	-0.635010	0.213623	-0.299805	0.593998	-0.194555	-0.750656	-0.214079
23714		9.566331	0.861571	-1.993199	0.001557	-0.000136	-0.013262	-0.640381	0.210938	-0.287842	0.594105	-0.194717	-0.750486	-0.214233
23715		9.617159	0.863672	-1.977726	0.005378	-0.000838	-0.013031	-0.635986	0.221924	-0.293213	0.594063	-0.194638	-0.750555	-0.214179
23716		9.584351	0.845034	-1.958527	0.001436	-0.001466	-0.013977	-0.631836	0.209229	-0.288330	0.594091	-0.194915	-0.750442	-0.214246
23717		9.552648	0.835470	-2.015838	0.001843	-0.001998	-0.017177	-0.636475	0.214844	-0.291748	0.594099	-0.194752	-0.750489	-0.214205
23718		9.541960	0.869670	-1.999175	0.000960	-0.000465	-0.013028	-0.633057	0.213623	-0.290283	0.594119	-0.194843	-0.750440	-0.214242
23719		9.555014	0.860903	-1.970563	0.010239	-0.000721	-0.012210	-0.630859	0.217285	-0.292725	0.594177	-0.194808	-0.750432	-0.214139
23720		9.583861	0.854068	-1.981827	0.006049	-0.003640	-0.010910	-0.637939	0.215332	-0.291260	0.594241	-0.194938	-0.750361	-0.214090
23721		9.614422	0.829215	-1.981353	0.008595	-0.000731	-0.014461	-0.638672	0.209961	-0.294189	0.594253	-0.194963	-0.750352	-0.214067
23722		9.567965	0.845812	-1.994190	0.011651	0.003340	-0.016826	-0.638184	0.214355	-0.283936	0.594322	-0.194839	-0.750326	-0.214081
23723		9.570447	0.827460	-2.003729	0.015217	0.001489	-0.016244	-0.636963	0.210693	-0.290283	0.594300	-0.194679	-0.750435	-0.213903
23724		9.563773	0.845441	-1.988646	0.013592	-0.000031	-0.020274	-0.638428	0.215576	-0.288574	0.594313	-0.194487	-0.750490	-0.213849
23725		9.575865	0.853171	-1.993664	0.011510	-0.002815	-0.019567	-0.629395	0.211426	-0.289551	0.594270	-0.194435	-0.750552	-0.213796
23726		9.569927	0.868477	-2.000868	0.008215	-0.002467	-0.020393	-0.637695	0.215576	-0.289062	0.594306	-0.194280	-0.750581	-0.213736
23727		9.562213	0.858291	-1.990644	0.011609	-0.000361	-0.020752	-0.640625	0.215332	-0.292725	0.594293	-0.194221	-0.750616	-0.213703
23728		9.577020	0.876582	-1.979052	0.005671	0.000566	-0.016716	-0.633057	0.220215	-0.291504	0.594294	-0.194281	-0.750583	-0.213761
23729		9.584220	0.871392	-1.986763	-0.000844	-0.005151	-0.016239	-0.638428	0.218262	-0.292969	0.594280	-0.194491	-0.750525	-0.213815
23730		9.569426	0.857730	-2.021074	-0.000538	-0.003339	-0.016239	-0.638184	0.220459	-0.288086	0.594251	-0.194675	-0.750472	-0.213916
23731		9.582881	0.870453	-2.017823	0.002971	0.000100	-0.015886	-0.630371	0.208008	-0.291992	0.594225	-0.194822	-0.750451	-0.213928
23732		9.559756	0.868472	-2.022258	0.004388	0.002270	-0.013042	-0.638184	0.213867	-0.296631	0.594327	-0.194695	-0.750413	-0.213892
23733		9.582738	0.885154	-1.987824	0.004284	-0.000193	-0.011860	-0.639404	0.211426	-0.293701	0.594382	-0.194804	-0.750321	-0.213962
23734		9.595015	0.847570	-1.964007	-0.000063	-0.005110	-0.011621	-0.630371	0.212158	-0.284668	0.594344	-0.194875	-0.750316	-0.214021
23735		9.555195	0.825956	-1.989393	0.002600	-0.002388	-0.016247	-0.638184	0.218506	-0.285645	0.594326	-0.194762	-0.750387	-0.213924
23736		9.549389	0.840690	-1.996035	0.006240	0.000874	-0.016962	-0.632568	0.209717	-0.289551	0.594289	-0.194801	-0.750416	-0.213888
23737		9.608089	0.887463	-1.986836	0.011044	0.000343	-0.016498	-0.638428	0.215088	-0.297607	0.594340	-0.194624	-0.750448	-0.213798
23738		9.553393	0.892120	-1.967583	0.008347	0.000260	-0.011990	-0.635010	0.225586	-0.296631	0.594417	-0.194729	-0.750348	-0.213840
23739		9.561137	0.809859	-1.972304	0.006168	-0.004238	-0.015665	-0.632812	0.216553	-0.285156	0.594453	-0.195050	-0.750215	-0.213912
23740		9.550453	0.864146	-1.981738	0.004121	-0.003715	-0.014713	-0.629150	0.216797	-0.299072	0.594414	-0.195056	-0.750271	-0.213820
23741		9.574149	0.889497	-2.025008	0.004722	-0.004524	-0.013056	-0.628662	0.213379	-0.281494	0.594515	-0.195217	-0.750134	-0.213871
23742		9.583310	0.905735	-1.965961	0.005248	-0.004483	-0.009974	-0.640137	0.208496	-0.293213	0.594487	-0.195133	-0.750240	-0.213655
23743		9.610094	0.812227	-1.990741	0.006157	-0.003861	-0.011993	-0.632812	0.211670	-0.286377	0.594465	-0.195066	-0.750276	-0.213650
23744		9.571964	0.804508	-1.978345	0.009415	-0.002337	-0.018642	-0.636963	0.218994	-0.289062	0.594449	-0.194902	-0.750358	-0.213557
23745		9.541186	0.832744	-2.001990	0.011324	-0.003071	-0.022206	-0.639160	0.214111	-0.289795	0.594410	-0.194902	-0.750392	-0.213547
23746		9.570467	0.857697	-2.009212	0.012568	-0.003282	-0.024110	-0.641846	0.212158	-0.284668	0.594358	-0.194775	-0.750466	-0.213544
23747		9.589436	0.869851	-1.970382	0.013187	-0.001174	-0.025893	-0.643066	0.219727	-0.291992	0.594260	-0.194548	-0.750613	-0.213508
23748		9.583287	0.886120	-1.977646	0.004103	-0.004528	-0.022077	-0.637695	0.218506	-0.289062	0.594173	-0.194671	-0.750616	-0.213627
23749		9.561730	0.878756	-2.026376	0.008676	-0.002891	-0.021023	-0.632080	0.215332	-0.295166	0.594132	-0.194703	-0.750637	-0.213640
23750		9.566921	0.881055	-1.991299	0.006385	-0.003520	-0.019714	-0.637207	0.215332	-0.291260	0.594176	-0.194733	-0.750579	-0.213694
23751		9.580847	0.871049	-1.984794	0.004659	-0.002702	-0.020542	-0.642334	0.211670	-0.291260	0.594151	-0.194745	-0.750579	-0.213754
23752		9.547207	0.868116	-1.999030	0.006416	-0.001341	-0.017582	-0.640137	0.208252	-0.284912	0.594112	-0.194700	-0.750610	-0.213793
23753		9.562803	0.883085	-2.009331	0.003917	-0.001328	-0.017457	-0.628662	0.218262	-0.290283	0.594036	-0.194536	-0.750722	-0.213760
23754		9.600025	0.886274	-1.968346	0.001919	-0.003051	-0.012704	-0.643555	0.210449	-0.295898	0.594078	-0.194686	-0.750653	-0.213748
23755		9.573640	0.844919	-1.994159	0.000981	-0.003347	-0.019943	-0.631104	0.208008	-0.289062	0.594031	-0.194681	-0.750648	-0.213903
23756		9.571793	0.844407	-2.002959	-0.001332	-0.002854	-0.020532	-0.634766	0.216064	-0.291992	0.594021	-0.194543	-0.750681	-0.213941
23757		9.560533	0.879603	-1.986484	0.004335	0.000293	-0.018533	-0.634521	0.213379	-0.295654	0.594054	-0.194589	-0.750626	-0.213996
23758		9.549343	0.913864	-1.969946	0.001172	-0.002075	-0.013300	-0.636475	0.216553	-0.290039	0.594103	-0.194682	-0.750546	-0.214061
23759		9.669514	0.869009	-1.993169	-0.003963	-0.005174	-0.012215	-0.636719	0.212158	-0.297607	0.594052	-0.194860	-0.750522	-0.214124
23760		9.550851	0.869689	-1.986173	-0.002432	-0.006877	-0.014357	-0.642334	0.209229	-0.290771	0.594042	-0.194974	-0.750465	-0.214248
23761		9.567402	0.808462	-1.994208	-0.001690	-0.004953	-0.017211	-0.631104	0.212891	-0.291260	0.593951	-0.194946	-0.750518	-0.214338
23762		9.548834	0.840420	-2.022612	0.007143	-0.004266	-0.022466	-0.636475	0.218262	-0.288818	0.593960	-0.194855	-0.750532	-0.214347
23763		9.559011	0.946004	-1.950780	0.002444	-0.005338	-0.018770	-0.636230	0.215576	-0.294922	0.593899	-0.194951	-0.750543	-0.214392
23764		9.563861	0.868650	-2.005272	0.012201	-0.002819	-0.015005	-0.626221	0.209473	-0.295166	0.593945	-0.194992	-0.750501	-0.214375
23765		9.592853	0.862849	-2.016288	0.018021	0.001939	-0.015623	-0.634766	0.205322	-0.291016	0.594122	-0.194813	-0.750443	-0.214250
23766		9.576895	0.863477	-1.976770	0.017562	0.001423	-0.016455	-0.640625	0.217285	-0.289795	0.594196	-0.194534	-0.750494	-0.214118
23767		9.594547	0.859924	-1.975411	0.007537	-0.004045	-0.018317	-0.641357	0.211182	-0.291260	0.594136	-0.194591	-0.750521	-0.214138
23768		9.555190	0.867694	-1.996779	0.009194	-0.005941	-0.021530	-0.642822	0.210938	-0.292236	0.594061	-0.194497	-0.750598	-0.214160
23769		9.562076	0.854606	-2.034536	0.012511	-0.001172	-0.022026	-0.635498	0.209717	-0.290039	0.594036	-0.194370	-0.750645	-0.214182
23770		9.552156	0.904023	-1.980475	0.012800	0.000640	-0.022032	-0.637207	0.209717	-0.286621	0.594064	-0.194179	-0.750683	-0.214145
23771		9.574515	0.913608	-1.976207	0.009580	-0.000862	-0.015365	-0.642090	0.213135	-0.289551	0.594049	-0.194064	-0.750748	-0.214063
23772		9.563583	0.886039	-1.989603	0.004882	0.000971	-0.015113	-0.636230	0.207275	-0.300781	0.594029	-0.194087	-0.750750	-0.214091
23773		9.574559	0.887449	-2.002173	0.003619	-0.000603	-0.011660	-0.637451	0.217773	-0.293945	0.594127	-0.194092	-0.750655	-0.214146
23774		9.556237	0.896874	-2.004059	0.006330	0.002064	-0.010368	-0.641357	0.220459	-0.291260	0.594198	-0.194252	-0.750555	-0.214155
23775		9.601324	0.861277	-1.973731	0.002778	-0.000550	-0.009281	-0.635498	0.217041	-0.293457	0.594189	-0.194498	-0.750489	-0.214187
23776		9.564502	0.848868	-1.982301	0.007641	-0.002322	-0.013932	-0.636230	0.214355	-0.292236	0.594219	-0.194599	-0.750439	-0.214186
23777		9.568762	0.864852	-1.980235	0.005694	-0.000879	-0.015949	-0.639648	0.217529	-0.292236	0.594238	-0.194629	-0.750411	-0.214204
23778		9.562797	0.879120	-1.986766	0.007947	0.001274	-0.015488	-0.632324	0.210205	-0.289795	0.594260	-0.194712	-0.750365	-0.214231
23779		9.548766	0.873071	-1.990459	0.003286	-0.001320	-0.013563	-0.639893	0.216309	-0.290039	0.594286	-0.194665	-0.750368	-0.214192
23780		9.556491	0.896291	-1.993588	0.005614	-0.000026	-0.014527	-0.640625	0.205811	-0.294678	0.594276	-0.194735	-0.750354	-0.214205
23781		9.624494	0.916428	-1.980147	0.006685	-0.000300	-0.012035	-0.636475	0.214600	-0.291992	0.594300	-0.194653	-0.750357	-0.214200
23782		9.562793	0.895843	-1.979568	0.003971	-0.001023	-0.007861	-0.636719	0.210693	-0.291016	0.594331	-0.194772	-0.750310	-0.214173
23783		9.556465	0.850492	-1.994902	0.002299	-0.002858	-0.008564	-0.640625	0.211914	-0.297607	0.594330	-0.194815	-0.750309	-0.214139
23784		9.564167	0.852412	-1.973405	0.002938	-0.005177	-0.008680	-0.633789	0.218018	-0.289062	0.594326	-0.194945	-0.750266	-0.214181
23785		9.560503	0.876313	-1.964917	0.004591	-0.003766	-0.011664	-0.637207	0.207275	-0.296387	0.594320	-0.195057	-0.750254	-0.214139
23786		9.575584	0.871602	-2.034811	0.016430	-0.001054	-0.008512	-0.631348	0.209229	-0.294434	0.594403	-0.194965	-0.750246	-0.214017
23787		9.591520	0.873097	-1.990308	0.014826	-0.000442	-0.010410	-0.630127	0.216797	-0.288330	0.594509	-0.194868	-0.750227	-0.213882
23788		9.566314	0.867204	-1.981739	0.014423	-0.000292	-0.010886	-0.642334	0.212891	-0.293457	0.594577	-0.194864	-0.750220	-0.213721
23789		9.563625	0.858201	-1.998279	0.012676	-0.001266	-0.010163	-0.633789	0.217529	-0.284180	0.594588	-0.194881	-0.750224	-0.213661
23790		9.559998	0.852682	-1.993102	0.014125	0.001197	-0.010654	-0.641846	0.216309	-0.290771	0.594618	-0.194869	-0.750252	-0.213490
23791		9.579091	0.853471	-1.983391	0.008653	-0.001517	-0.013357	-0.634033	0.215576	-0.291504	0.594593	-0.194928	-0.750260	-0.213477
23792		9.561640	0.839774	-1.981991	0.006287	-0.001707	-0.014298	-0.643799	0.214844	-0.287842	0.594613	-0.194965	-0.750240	-0.213459
23793		9.555442	0.873607	-2.014625	0.005872	-0.003334	-0.013220	-0.641113	0.212646	-0.289795	0.594533	-0.195004	-0.750297	-0.213444
23794		9.561987	0.870936	-2.000606	0.009388	0.000814	-0.012539	-0.637207	0.220459	-0.295166	0.594535	-0.194979	-0.750315	-0.213398
23795		9.583489	0.882639	-1.974821	0.006704	-0.001436	-0.010139	-0.639404	0.213135	-0.282715	0.594572	-0.195177	-0.750230	-0.213414
23796		9.570562	0.871661	-2.000210	0.000940	-0.000691	-0.007140	-0.629395	0.205811	-0.290527	0.594520	-0.195212	-0.750286	-0.213330
23797		9.580443	0.817788	-1.999500	0.003242	0.000172	-0.011795	-0.635254	0.214600	-0.294678	0.594584	-0.195078	-0.750291	-0.213254
23798		9.566657	0.840307	-1.998742	0.008412	0.002414	-0.014328	-0.634033	0.218506	-0.285400	0.594661	-0.195087	-0.750228	-0.213254
23799		9.572428	0.870388	-1.958429	0.005909	0.000640	-0.012644	-0.632568	0.215088	-0.284668	0.594663	-0.195148	-0.750225	-0.213202
23800		9.565149	0.849576	-1.977285	0.006678	-0.001876	-0.013829	-0.633301	0.219482	-0.290527	0.594646	-0.195127	-0.750267	-0.213123
23801		9.562616	0.850424	-1.964289	0.007003	-0.001163	-0.011930	-0.634521	0.211182	-0.291016	0.594673	-0.195241	-0.750223	-0.213096
23802		9.571152	0.869575	-1.989568	0.004524	-0.004475	-0.012024	-0.635254	0.215088	-0.295410	0.594662	-0.195226	-0.750248	-0.213052
23803		9.622955	0.869473	-1.996381	0.007855	-0.000798	-0.010629	-0.634766	0.219238	-0.291016	0.594722	-0.195289	-0.750191	-0.213029
23804		9.573966	0.861770	-1.970949	0.005333	-0.003008	-0.012630	-0.636230	0.214844	-0.290283	0.594719	-0.195409	-0.750162	-0.213026
23805		9.546227	0.845811	-1.978944	0.009276	-0.003860	-0.013481	-0.637939	0.213135	-0.289795	0.594705	-0.195409	-0.750190	-0.212971
23806		9.569530	0.850660	-1.996929	0.009655	-0.002473	-0.011229	-0.634521	0.211182	-0.295898	0.594698	-0.195392	-0.750221	-0.212894
23807		9.554524	0.875883	-1.975841	0.013294	-0.003604	-0.010291	-0.637451	0.207031	-0.286133	0.594754	-0.195350	-0.750218	-0.212790
23808		9.583613	0.840344	-1.991372	0.014681	-0.001812	-0.011142	-0.641846	0.215576	-0.293213	0.594746	-0.195162	-0.750324	-0.212610
23809		9.592302	0.839254	-1.991348	0.013844	-0.003727	-0.014225	-0.630371	0.216309	-0.285889	0.594729	-0.195161	-0.750351	-0.212563
23810		9.568009	0.859511	-2.000424	0.013529	0.001080	-0.013773	-0.639648	0.210938	-0.300537	0.594774	-0.195113	-0.750362	-0.212443
23811		9.555256	0.858234	-1.996230	0.011106	-0.001564	-0.013508	-0.639893	0.210938	-0.293701	0.594835	-0.195077	-0.750326	-0.212430
23812		9.584562	0.832477	-1.982014	0.009190	-0.003012	-0.012062	-0.639160	0.217041	-0.285400	0.594833	-0.195046	-0.750349	-0.212384
23813		9.569334	0.848927	-1.990358	0.007556	-0.002640	-0.010627	-0.631104	0.211182	-0.290039	0.594782	-0.195110	-0.750390	-0.212323
23814		9.566621	0.840086	-2.007174	0.002805	-0.003262	-0.009167	-0.633301	0.218018	-0.288330	0.594797	-0.195122	-0.750393	-0.212259
23815		9.564351	0.820672	-1.968857	0.005947	-0.002042	-0.012527	-0.637207	0.218262	-0.291504	0.594795	-0.195198	-0.750383	-0.212231
23816		9.576428	0.827579	-1.973904	0.004338	-0.001443	-0.014428	-0.635742	0.219238	-0.293945	0.594789	-0.195288	-0.750355	-0.212266
23817		9.585957	0.853077	-1.991293	0.001011	-0.005133	-0.015817	-0.631592	0.209229	-0.290771	0.594760	-0.195425	-0.750319	-0.212346
23818		9.575330	0.825602	-2.004844	0.005895	0.000821	-0.016000	-0.629639	0.212158	-0.291748	0.594807	-0.195301	-0.750326	-0.212307
23819		9.559197	0.846645	-1.990709	0.007729	0.001367	-0.014467	-0.638184	0.209229	-0.292236	0.594882	-0.195233	-0.750298	-0.212256
23820		9.595291	0.865034	-1.982585	0.008583	0.001739	-0.013166	-0.635498	0.211182	-0.282959	0.594922	-0.195136	-0.750306	-0.212206
23821		9.585024	0.845862	-1.966208	0.004557	-0.002078	-0.013238	-0.638428	0.211182	-0.288818	0.594866	-0.195082	-0.750380	-0.212150
23822		9.576635	0.819618	-1.993348	0.003524	-0.002928	-0.013823	-0.642334	0.204834	-0.294434	0.594823	-0.195057	-0.750423	-0.212141
23823		9.559185	0.835159	-1.987859	0.007164	-0.000513	-0.016006	-0.635498	0.212402	-0.300293	0.594828	-0.194884	-0.750471	-0.212118
23824		9.565436	0.853114	-1.999353	0.005656	-0.002110	-0.014081	-0.630127	0.210449	-0.285400	0.594894	-0.194877	-0.750419	-0.212121
23825		9.613945	0.846706	-2.000367	0.007438	-0.000466	-0.014461	-0.634521	0.218018	-0.294678	0.594901	-0.194786	-0.750458	-0.212047
23826		9.595854	0.846181	-1.947573	0.001732	-0.001049	-0.016568	-0.637695	0.218262	-0.290039	0.594923	-0.194870	-0.750398	-0.212119
23827		9.557619	0.848612	-1.989691	-0.001155	-0.004440	-0.013788	-0.640381	0.213379	-0.282959	0.594863	-0.195013	-0.750388	-0.212192
23828		9.559660	0.833580	-1.978613	0.007786	-0.003059	-0.012782	-0.632080	0.214844	-0.296631	0.594780	-0.195004	-0.750470	-0.212143
23829		9.551033	0.873782	-1.968899	0.007439	-0.005773	-0.009784	-0.638672	0.218018	-0.291504	0.594819	-0.195063	-0.750442	-0.212080
23830		9.593817	0.847983	-1.981500	0.006860	-0.006099	-0.009540	-0.638428	0.214355	-0.287842	0.594781	-0.195187	-0.750449	-0.212049
23831		9.601602	0.812240	-1.993455	0.010419	-0.001040	-0.011862	-0.641113	0.215576	-0.289551	0.594771	-0.195178	-0.750477	-0.211983
23832		9.549022	0.817061	-1.988068	0.010108	-0.003323	-0.015541	-0.641602	0.214600	-0.298096	0.594727	-0.195170	-0.750520	-0.211962
23833		9.560229	0.798942	-1.975881	0.010330	-0.002180	-0.015910	-0.632080	0.223145	-0.293945	0.594751	-0.195153	-0.750506	-0.211963
23834		9.587976	0.827146	-1.962051	0.010420	-0.004613	-0.019114	-0.634033	0.216797	-0.293701	0.594759	-0.195238	-0.750471	-0.211987
23835		9.586034	0.816754	-2.000815	0.007651	-0.004677	-0.020527	-0.636719	0.207031	-0.290771	0.594746	-0.195226	-0.750475	-0.212018
23836		9.557988	0.831798	-2.004884	0.009564	-0.003027	-0.025324	-0.637695	0.214111	-0.292969	0.594715	-0.194978	-0.750566	-0.212011
23837		9.568783	0.844824	-1.988668	0.005375	-0.001782	-0.022325	-0.637695	0.210693	-0.283936	0.594698	-0.194921	-0.750575	-0.212079
23838		9.588690	0.854228	-1.971653	0.002219	-0.005230	-0.021086	-0.636719	0.212158	-0.287354	0.594588	-0.194831	-0.750677	-0.212112
23839		9.561970	0.836311	-2.000995	0.000458	-0.002889	-0.020139	-0.633301	0.211182	-0.295410	0.594525	-0.194792	-0.750717	-0.212179
23840		9.554440	0.845931	-2.016108	-0.000314	-0.002133	-0.017397	-0.634277	0.214111	-0.296143	0.594547	-0.194775	-0.750688	-0.212235
23841		9.552881	0.844547	-2.024366	0.003016	0.000017	-0.017796	-0.638184	0.216064	-0.283691	0.594594	-0.194776	-0.750635	-0.212291
23842		9.571360	0.831736	-1.967573	0.006216	-0.001416	-0.021031	-0.636230	0.211914	-0.291016	0.594522	-0.194748	-0.750686	-0.212336
23843		9.591975	0.866612	-1.967679	0.000558	-0.001349	-0.022782	-0.632080	0.216553	-0.287354	0.594495	-0.194684	-0.750698	-0.212431
23844		9.571279	0.838653	-1.989794	0.004309	-0.000902	-0.024485	-0.636230	0.212402	-0.296143	0.594469	-0.194647	-0.750703	-0.212516
23845		9.553459	0.846985	-2.013503	0.003658	-0.000351	-0.022816	-0.643799	0.211914	-0.295654	0.594493	-0.194575	-0.750680	-0.212599
23846		9.555337	0.872390	-1.968181	0.002029	0.000021	-0.021377	-0.633789	0.214600	-0.291748	0.594479	-0.194531	-0.750672	-0.212709
23847		9.587210	0.905246	-1.980711	-0.001025	-0.002281	-0.016087	-0.640381	0.211426	-0.288330	0.594471	-0.194594	-0.750641	-0.212779
23848		9.603395	0.871618	-1.969570	-0.001148	-0.002077	-0.015015	-0.638428	0.218262	-0.287842	0.594416	-0.194618	-0.750662	-0.212838
23849		9.542101	0.850958	-1.968732	-0.003924	-0.002354	-0.013083	-0.632568	0.216553	-0.294434	0.594360	-0.194791	-0.750631	-0.212944
23850		9.544858	0.852229	-2.004124	-0.006076	-0.001629	-0.011044	-0.638184	0.215576	-0.292236	0.594383	-0.194969	-0.750539	-0.213041
23851		9.583342	0.853385	-1.984530	0.002360	-0.001212	-0.014573	-0.631348	0.220947	-0.289307	0.594381	-0.195034	-0.750510	-0.213092
23852		9.550717	0.882316	-1.986383	0.005006	-0.000932	-0.012088	-0.637939	0.218018	-0.285645	0.594405	-0.195178	-0.750449	-0.213107
23853		9.567155	0.847135	-1.975061	0.006553	-0.000627	-0.008760	-0.634033	0.215576	-0.294678	0.594393	-0.195287	-0.750440	-0.213074
23854		9.629972	0.884482	-1.960722	-0.004410	-0.001537	-0.008790	-0.637207	0.221924	-0.284424	0.594420	-0.195456	-0.750356	-0.213140
23855		9.618557	0.769215	-2.056108	-0.011177	0.000700	-0.017951	-0.633545	0.211670	-0.294434	0.594346	-0.195662	-0.750297	-0.213363
23856		9.560173	0.796053	-2.026437	0.001108	0.003129	-0.025824	-0.632080	0.210205	-0.292969	0.594389	-0.195545	-0.750259	-0.213485
23857		9.531943	0.850493	-1.994790	0.008901	0.008299	-0.030461	-0.635010	0.212646	-0.295166	0.594486	-0.195284	-0.750228	-0.213560
23858		9.577580	0.859417	-1.929574	0.010153	0.004541	-0.029252	-0.644043	0.213379	-0.298828	0.594550	-0.195090	-0.750206	-0.213638
23859		9.589303	0.861286	-1.963333	0.004794	-0.000916	-0.031803	-0.637451	0.212402	-0.292480	0.594520	-0.194963	-0.750212	-0.213817
23860		9.576794	0.826721	-1.992191	0.006149	0.001066	-0.036014	-0.636475	0.218018	-0.295410	0.594495	-0.194746	-0.750243	-0.213976
23861		9.559626	0.906903	-1.991910	0.006140	0.001054	-0.036020	-0.643555	0.211670	-0.290527	0.594487	-0.194632	-0.750221	-0.214179
23862		9.567823	0.974721	-1.975178	0.002957	0.000523	-0.027871	-0.641846	0.204834	-0.296631	0.594431	-0.194515	-0.750256	-0.214316
23863		9.608825	0.942152	-2.002240	-0.001007	-0.001473	-0.019104	-0.639893	0.208008	-0.293457	0.594417	-0.194429	-0.750267	-0.214394
23864		9.566840	0.895308	-1.973327	0.003216	0.001576	-0.014499	-0.627686	0.213623	-0.291992	0.594444	-0.194385	-0.750253	-0.214410
23865		9.568410	0.865600	-1.998190	0.003595	0.002998	-0.012243	-0.634766	0.211426	-0.292725	0.594535	-0.194422	-0.750173	-0.214401
23866		9.574999	0.838221	-1.965555	0.010827	0.002100	-0.015637	-0.630127	0.207520	-0.296143	0.594599	-0.194353	-0.750154	-0.214357
23867		9.609883	0.896322	-1.924755	0.003289	-0.003318	-0.016495	-0.639160	0.210938	-0.287598	0.594633	-0.194285	-0.750147	-0.214346
23868		9.590564	0.863233	-1.969136	0.003668	-0.005518	-0.021502	-0.639404	0.215576	-0.296387	0.594542	-0.194223	-0.750222	-0.214393
23869		9.542168	0.898106	-2.008745	0.007478	-0.002136	-0.020724	-0.638184	0.208252	-0.289795	0.594541	-0.194222	-0.750205	-0.214457
23870		9.606546	0.939942	-2.007945	0.014103	0.002019	-0.018181	-0.640869	0.214111	-0.294922	0.594574	-0.194058	-0.750241	-0.214385
23871		9.534365	0.937802	-1.935279	0.014258	-0.000319	-0.010989	-0.641846	0.208740	-0.296631	0.594618	-0.194072	-0.750224	-0.214310
23872		9.581739	0.890985	-1.956714	-0.000681	-0.007745	-0.006505	-0.634521	0.202393	-0.286865	0.594575	-0.194186	-0.750232	-0.214300
23873		9.567598	0.857616	-1.944203	0.003632	-0.006955	-0.008459	-0.640625	0.217529	-0.296143	0.594528	-0.194114	-0.750323	-0.214179
23874		9.560238	0.880370	-2.007447	0.008852	-0.005087	-0.008757	-0.639160	0.210938	-0.295166	0.594528	-0.194249	-0.750297	-0.214145
23875		9.554155	0.917211	-2.032486	0.018098	0.001133	-0.005298	-0.634521	0.209229	-0.294922	0.594622	-0.194231	-0.750278	-0.213969
23876		9.576507	0.907913	-1.980927	0.016403	0.002398	-0.002427	-0.636719	0.221436	-0.295654	0.594750	-0.194215	-0.750238	-0.213765
23877		9.545000	0.956741	-1.916163	0.004984	-0.004318	0.005860	-0.633545	0.209961	-0.288818	0.594798	-0.194558	-0.750139	-0.213669
23878		9.565864	0.842047	-1.985181	-0.006572	-0.002821	0.016345	-0.634766	0.208984	-0.293701	0.594840	-0.194892	-0.750063	-0.213514
23879		9.519116	0.842090	-1.920883	0.015383	0.008798	0.011513	-0.642090	0.215088	-0.295654	0.595054	-0.194977	-0.749954	-0.213224
23880		9.649982	0.560261	-1.884567	0.034931	0.026579	0.023260	-0.628418	0.215820	-0.289795	0.595486	-0.195077	-0.749714	-0.212767
23881		9.536589	0.780817	-2.080717	0.144282	0.069739	0.018555	-0.636963	0.211182	-0.295166	0.596599	-0.194176	-0.749458	-0.211373
23882		9.403954	0.934650	-2.154365	0.186125	0.109032	0.059093	-0.635498	0.214600	-0.294678	0.598264	-0.193200	-0.748940	-0.209387
23883		9.475739	1.453975	-2.004416	0.221199	0.130634	0.141799	-0.633545	0.217041	-0.293701	0.600409	-0.192721	-0.748142	-0.206521
23884		9.529766	1.850078	-2.014252	0.183783	0.121369	0.282502	-0.628418	0.218262	-0.305176	0.602705	-0.193876	-0.746979	-0.202930
23885		9.467140	1.932660	-1.885432	0.162580	0.094069	0.465122	-0.621826	0.229980	-0.310547	0.605199	-0.196942	-0.745459	-0.198089
23886		9.665773	1.995123	-1.892565	0.217336	0.090153	0.710462	-0.619873	0.235352	-0.311279	0.608385	-0.201957	-0.743396	-0.190901
23887		9.640773	2.586623	-1.767968	0.333634	0.070782	1.026894	-0.624512	0.247559	-0.317383	0.612333	-0.208985	-0.740894	-0.180139
23888		9.901609	2.236713	-1.475945	0.490207	0.030582	1.386427	-0.610596	0.278564	-0.314941	0.616932	-0.218178	-0.737933	-0.165068
23889		9.756591	1.892748	-0.724555	0.717679	-0.053326	1.718483	-0.604248	0.301514	-0.320068	0.621775	-0.228926	-0.734798	-0.145124
23890		8.945540	-0.054037	-1.552898	0.492163	-0.189149	1.932891	-0.602295	0.320068	-0.322754	0.624736	-0.243543	-0.731248	-0.125169
23891		9.086265	-1.592543	-2.824704	0.377668	-0.143281	1.976993	-0.586914	0.354736	-0.318848	0.627413	-0.259133	-0.726618	-0.105969
23892		7.336119	-2.238832	-2.479644	0.384000	-0.045532	1.910415	-0.586670	0.381104	-0.326660	0.630501	-0.273862	-0.720976	-0.087528
23893		8.732227	-4.599533	-1.499231	0.368020	0.023639	1.751643	-0.560791	0.415771	-0.327148	0.633639	-0.287017	-0.714932	-0.070677
23894		10.568695	0.912900	-1.888327	0.097686	0.085759	1.809645	-0.551758	0.450195	-0.337646	0.636174	-0.302557	-0.707547	-0.055848
23895		9.114550	-4.671558	-4.120741	-0.102957	0.048922	1.841442	-0.527100	0.483154	-0.334961	0.637341	-0.319745	-0.699835	-0.042321
23896		9.065993	-4.417424	-1.389468	0.482027	0.295939	1.507968	-0.520996	0.489258	-0.341064	0.642526	-0.329064	-0.691471	-0.027275
23897		9.410615	-5.904908	0.157960	0.128308	0.090082	1.392615	-0.504395	0.510010	-0.338623	0.644208	-0.340176	-0.684866	-0.015352
23898		4.008830	-7.098544	-1.204994	-0.068335	-0.017364	1.043625	-0.490967	0.521240	-0.348145	0.643912	-0.349820	-0.680403	-0.007456
23899		3.249604	-11.452877	-0.679761	0.088584	-0.115566	0.188004	-0.492188	0.527344	-0.343506	0.643323	-0.350895	-0.680431	-0.004646
23900		12.515702	-6.162377	1.067051	-0.252657	-0.063343	-0.395200	-0.491211	0.528564	-0.343018	0.641626	-0.349734	-0.682576	-0.009596
23901		13.811915	-9.607644	-4.673237	-0.349412	0.105562	-1.131870	-0.504150	0.514160	-0.334717	0.640784	-0.343001	-0.686484	-0.022027
23902		14.268352	-11.858799	-0.903845	0.202571	0.358242	-2.332714	-0.524902	0.480713	-0.344971	0.643797	-0.321286	-0.693304	-0.040385
23903		22.921129	-6.342781	-0.038881	0.569695	0.566762	-3.265452	-0.562012	0.414062	-0.348145	0.648782	-0.288008	-0.701471	-0.063816
23904		22.397786	4.338713	-2.509125	0.911631	0.678530	-3.515549	-0.602539	0.351562	-0.364258	0.654534	-0.249127	-0.708537	-0.086578
23905		11.218307	5.681016	-1.913765	0.586576	0.380107	-3.542232	-0.634033	0.267578	-0.361084	0.655254	-0.212488	-0.716296	-0.111403
23906		6.296908	1.509955	-2.753567	-0.588971	-0.031153	-3.081256	-0.669678	0.228516	-0.346436	0.648647	-0.189805	-0.723284	-0.141742
23907		4.971812	-1.764096	-2.597666	-1.096385	0.047617	-2.127519	-0.699707	0.196289	-0.337402	0.642447	-0.179488	-0.725601	-0.168962
23908		3.236233	-10.364467	-3.836489	-0.112462	-0.104101	-0.785945	-0.706055	0.174316	-0.330566	0.639593	-0.173666	-0.727852	-0.176046
23909		1.572994	0.146739	-0.748034	0.557920	-0.093142	0.042994	-0.713623	0.164307	-0.329102	0.640077	-0.169972	-0.729658	-0.170326
23910		-0.270755	2.083962	0.224530	-0.202576	-0.124196	0.567480	-0.706055	0.177979	-0.329102	0.639741	-0.177202	-0.728938	-0.167270
23911		-0.252228	1.470899	0.100758	-0.597355	-0.070926	0.651387	-0.711426	0.190430	-0.330322	0.639130	-0.188229	-0.726710	-0.167258
23912		0.364086	0.585070	-0.254996	-0.653922	-0.096937	0.641985	-0.700439	0.212158	-0.319092	0.638044	-0.199654	-0.724495	-0.167763
23913		-0.036902	0.332325	-1.619758	-0.774891	-0.113341	0.785153	-0.696533	0.236572	-0.322510	0.636701	-0.213342	-0.721679	-0.168156
23914		0.825884	-1.925396	-1.527965	-0.584090	-0.315747	1.020778	-0.686035	0.259766	-0.300293	0.634396	-0.228015	-0.720092	-0.164373
23915		3.185948	-4.246333	0.268101	0.058814	-0.070419	1.453632	-0.668457	0.294434	-0.318604	0.636838	-0.240912	-0.716445	-0.152006
23916		10.121175	-9.075796	-5.298692	0.308455	0.075816	2.939208	-0.625244	0.343750	-0.318115	0.643615	-0.264634	-0.707026	-0.125867
23917		11.602284	12.078282	0.664287	0.082977	-0.243227	3.147404	-0.580566	0.398682	-0.330322	0.646197	-0.292108	-0.698106	-0.098741
23918		14.974471	-7.186217	-2.407607	-2.543659	-0.937696	3.025878	-0.532959	0.472656	-0.292236	0.631636	-0.339992	-0.690518	-0.092878
23919		15.226180	-12.715998	-7.581492	-0.878437	-0.268890	0.834360	-0.522217	0.503906	-0.282471	0.626475	-0.354569	-0.687916	-0.092635
23920		37.337870	-5.974613	-1.494193	-0.516342	0.298334	-0.248577	-0.513916	0.501221	-0.288086	0.626438	-0.356276	-0.686005	-0.100197
23921		25.453148	-10.923182	-0.976071	0.609280	0.428426	-1.356607	-0.540527	0.471680	-0.297363	0.631016	-0.339441	-0.689249	-0.107404
23922		22.140286	-2.451066	-0.113256	1.617128	0.543538	-2.515452	-0.565918	0.413574	-0.312988	0.638743	-0.304220	-0.697228	-0.115458
23923		11.793838	2.556044	-1.938936	1.530943	0.512566	-3.086947	-0.612793	0.351318	-0.328857	0.643994	-0.264258	-0.706338	-0.128553
23924		4.994557	4.105797	-3.564558	0.327583	0.257260	-2.641977	-0.645508	0.303467	-0.337891	0.642769	-0.237926	-0.713041	-0.147687
23925		4.470588	-2.061393	-3.560905	-0.405264	-0.011260	-1.899064	-0.673584	0.263672	-0.324951	0.637794	-0.224401	-0.717737	-0.166482
23926		4.663760	-7.455528	-2.869000	-0.338931	-0.175191	-0.698512	-0.684570	0.254395	-0.320068	0.633814	-0.221377	-0.720275	-0.174573
23927		1.938997	-2.736255	-0.915817	-0.018627	-0.257613	0.280125	-0.696777	0.252197	-0.302979	0.632079	-0.224781	-0.721427	-0.171732
23928		-0.115817	1.166795	0.347683	-0.388122	-0.269823	0.750268	-0.695801	0.260254	-0.301758	0.630158	-0.235350	-0.720513	-0.168442
23929		-0.947319	1.304759	0.280530	-0.681969	-0.220351	0.620242	-0.698486	0.277588	-0.291016	0.627458	-0.246927	-0.718872	-0.168954
23930		-0.297177	0.101315	0.967903	-0.535353	-0.125396	0.257661	-0.684814	0.290527	-0.285156	0.625233	-0.253873	-0.717841	-0.171278
23931		0.176586	-0.132166	-0.076188	-0.585946	-0.002441	0.199144	-0.682617	0.303467	-0.292725	0.623788	-0.260412	-0.715881	-0.174896
23932		1.256496	-1.246582	-0.004013	-0.433001	-0.099287	0.330865	-0.656982	0.316895	-0.289062	0.622227	-0.267133	-0.714542	-0.175793
23933		8.253691	-15.234748	-2.985204	0.013129	-0.092674	1.791201	-0.644043	0.350830	-0.291260	0.625249	-0.283337	-0.709056	-0.161315
23934		10.764236	4.173887	5.144997	0.850169	-0.073067	2.883465	-0.595947	0.395020	-0.306641	0.633005	-0.302344	-0.700577	-0.130707
23935		12.554653	10.863598	0.996333	-1.859526	-0.626633	3.435733	-0.546143	0.466797	-0.279541	0.625348	-0.347944	-0.688582	-0.117173
23936		22.790930	-4.738546	-19.943744	-0.231817	-0.756332	2.545990	-0.510254	0.510010	-0.272705	0.621229	-0.372762	-0.682588	-0.095902
23937		22.256077	-9.745411	-3.128318	1.481669	-0.607699	1.209685	-0.491699	0.526367	-0.291016	0.624198	-0.372361	-0.683147	-0.070952
23938		15.604833	-13.664314	7.051447	-0.281224	0.177596	0.086748	-0.493896	0.533691	-0.284424	0.624472	-0.375308	-0.681017	-0.073449
23939		15.034044	-15.257459	-8.538600	0.485542	0.395747	-1.761508	-0.518066	0.497070	-0.283936	0.628339	-0.356234	-0.686359	-0.084845
23940		23.148943	-4.769087	0.359349	1.782240	0.561221	-3.090201	-0.551514	0.435303	-0.316162	0.637179	-0.314943	-0.696833	-0.096107
23941		19.260000	3.750419	0.231290	1.717395	0.519873	-3.475100	-0.599121	0.364258	-0.338379	0.643553	-0.270184	-0.707528	-0.110655
23942		9.328377	6.159599	-4.177604	0.430519	0.307733	-3.193339	-0.640137	0.294922	-0.322510	0.642810	-0.238023	-0.715774	-0.133447
23943		5.538090	-1.303975	-3.700055	-0.504521	0.051283	-2.070941	-0.659180	0.260986	-0.334961	0.638109	-0.223573	-0.720345	-0.154710
23944		4.466492	-6.565787	-2.205278	-0.298429	-0.109433	-0.987253	-0.683105	0.245605	-0.317871	0.634355	-0.217447	-0.723260	-0.164941
23945		0.161084	-1.629212	-1.295613	-0.141262	-0.137190	-0.497627	-0.688477	0.230469	-0.310791	0.631724	-0.214527	-0.725323	-0.169732
23946		-1.495299	1.000115	-0.937545	-0.590314	0.016757	-0.550357	-0.687744	0.221436	-0.311523	0.629128	-0.214330	-0.725312	-0.179396
23947		-0.601237	-1.911097	-1.781991	-0.338670	-0.009168	-0.607082	-0.699219	0.212158	-0.312500	0.626788	-0.211679	-0.726159	-0.187142
23948		0.574998	-2.439640	-0.759135	0.302816	-0.006988	-0.542002	-0.699951	0.205078	-0.310303	0.626277	-0.204570	-0.728275	-0.188532
23949		1.081378	0.216950	-0.016303	0.728723	0.007212	-0.467953	-0.699463	0.192871	-0.310303	0.627108	-0.194746	-0.731035	-0.185468
23950		0.940020	2.334343	0.878890	0.718453	0.185461	-0.213451	-0.693359	0.183105	-0.332275	0.630068	-0.186895	-0.731678	-0.180919
23951		4.028846	-8.952842	-0.181649	0.163617	0.156860	0.929154	-0.665527	0.217041	-0.337646	0.633978	-0.193910	-0.728531	-0.172376
23952		8.317543	-6.654204	-2.742957	0.614542	0.054475	2.450414	-0.633545	0.256104	-0.350586	0.640963	-0.211301	-0.723069	-0.147271
23953		14.219859	3.672792	-0.758955	0.725328	-0.500334	1.909445	-0.598633	0.282471	-0.348877	0.641682	-0.223747	-0.723077	-0.123862
23954		19.424827	12.954977	-10.695063	-0.214978	-0.971507	1.789460	-0.577148	0.322998	-0.337158	0.634883	-0.243235	-0.725244	-0.108546
23955		38.906272	14.196635	3.260727	-0.834345	-0.431573	2.009176	-0.555420	0.360596	-0.337158	0.630924	-0.268736	-0.721087	-0.098743
23956		6.688094	-17.413365	-4.590908	-2.004165	-0.692296	1.599378	-0.568115	0.414307	-0.307861	0.619592	-0.299872	-0.718191	-0.101904
23957		-0.845808	-20.889450	-1.089014	0.715334	0.047886	-0.641596	-0.572754	0.389893	-0.319092	0.621854	-0.288679	-0.720999	-0.100611
23958		16.929945	-2.019540	2.813768	-0.373449	-0.008898	-1.452706	-0.575439	0.375000	-0.309570	0.618507	-0.278611	-0.725659	-0.115079
23959		11.221293	-0.375591	-5.850848	-0.051879	0.109753	-1.632259	-0.572754	0.340332	-0.308594	0.616872	-0.264159	-0.730204	-0.128415
23960		6.357794	-0.998693	-3.048795	0.110530	0.272402	-1.611242	-0.589355	0.312500	-0.311035	0.617037	-0.248277	-0.733388	-0.140591
23961		8.039465	-2.544834	-1.969572	-0.156416	0.178633	-1.625705	-0.600830	0.285645	-0.314209	0.615235	-0.234381	-0.736571	-0.154971
23962		9.762656	1.055129	-0.368933	0.215158	0.154146	-1.568204	-0.600830	0.260986	-0.318848	0.614164	-0.218107	-0.740199	-0.165341
23963		9.124772	4.249150	-0.515795	0.195116	-0.025398	-1.108825	-0.599609	0.238525	-0.326172	0.612150	-0.206548	-0.743692	-0.171849
23964		9.608478	3.513116	-2.121705	0.008049	-0.110795	-0.566075	-0.600098	0.230225	-0.322754	0.609950	-0.201631	-0.745938	-0.175732
23965		10.065525	2.207114	-3.282579	-0.207423	-0.038822	-0.250499	-0.606445	0.223389	-0.317871	0.608549	-0.201141	-0.746338	-0.179415
23966		10.146237	0.811279	-2.866730	-0.045282	0.116851	-0.140540	-0.605957	0.222656	-0.315674	0.609245	-0.200093	-0.745633	-0.181146
23967		9.957245	0.763537	-0.794353	0.114209	0.147004	-0.073541	-0.608154	0.222900	-0.324219	0.610769	-0.198386	-0.744889	-0.180956
23968		9.705604	0.201578	-1.436795	-0.090383	0.037878	-0.009500	-0.600586	0.214844	-0.325928	0.610912	-0.199086	-0.744350	-0.181918
23969		9.527585	-0.237719	-2.566905	-0.036588	0.079570	-0.085964	-0.606689	0.221924	-0.326172	0.611402	-0.198568	-0.743805	-0.183066
23970		9.666314	0.753483	-1.908321	-0.053996	0.133548	-0.096063	-0.606689	0.209717	-0.325928	0.612326	-0.197963	-0.742831	-0.184582
23971		9.870763	1.566727	-1.605342	-0.051107	0.131223	0.008270	-0.599854	0.213867	-0.326660	0.613473	-0.198310	-0.741620	-0.185268
23972		10.089672	1.311603	-1.903858	0.007990	0.181169	0.141939	-0.603027	0.227051	-0.339111	0.615534	-0.199329	-0.739825	-0.184512
23973		10.284522	1.352402	-0.944972	0.053968	0.181476	0.272114	-0.602783	0.224365	-0.335938	0.618004	-0.201195	-0.737798	-0.182334
23974		10.172165	1.526064	-0.949670	-0.206528	0.079578	0.442838	-0.601074	0.231689	-0.333008	0.619249	-0.206876	-0.735511	-0.180986
23975		10.154531	1.484904	-1.865397	-0.428201	0.127291	0.642604	-0.598389	0.247314	-0.334961	0.620768	-0.215990	-0.731782	-0.180251
23976		10.108333	1.668005	0.915529	-0.663734	0.186789	0.759807	-0.588867	0.260010	-0.324219	0.622375	-0.227842	-0.726643	-0.180906
23977		8.432353	-0.152010	-0.634673	-1.526738	-0.057090	0.654911	-0.584473	0.289307	-0.311523	0.618884	-0.245940	-0.721521	-0.189483
23978		6.969846	-0.688254	-2.405224	-1.172188	0.047236	0.006590	-0.595215	0.296875	-0.303467	0.615686	-0.255123	-0.718184	-0.200138
23979		7.138438	-1.742393	-4.025468	-0.333567	0.117221	-0.616675	-0.600342	0.300293	-0.304443	0.614139	-0.252041	-0.718291	-0.208247
23980		11.387413	-8.257135	-5.535225	0.478257	0.087285	-0.337408	-0.605713	0.295898	-0.312256	0.615568	-0.245291	-0.719822	-0.206796
23981		8.813361	2.915383	-0.430049	0.515918	0.128212	-0.293082	-0.600830	0.276611	-0.309814	0.617568	-0.238518	-0.720978	-0.204719
23982		10.676915	-0.077546	0.921532	0.055939	-0.045277	-0.158155	-0.607666	0.278809	-0.313721	0.616958	-0.236952	-0.721867	-0.205243
23983		9.782403	-0.388001	-0.482994	-0.296378	-0.139470	-0.089805	-0.606201	0.284668	-0.314209	0.614624	-0.238962	-0.722364	-0.208146
23984		9.386482	-0.441601	-1.434636	-0.249572	-0.146216	-0.111081	-0.607910	0.287354	-0.302490	0.612304	-0.240435	-0.723085	-0.210767
23985		9.562513	-0.729226	-2.078863	-0.238998	-0.174916	-0.169412	-0.610596	0.285156	-0.310059	0.609593	-0.241370	-0.724218	-0.213647
23986		9.894545	0.349763	-2.431167	-0.262689	-0.166955	-0.247794	-0.604980	0.286377	-0.296631	0.606662	-0.241748	-0.725450	-0.217351
23987		9.702119	0.478463	-1.843448	-0.230523	-0.153919	-0.248251	-0.609863	0.277588	-0.286865	0.603930	-0.241837	-0.726657	-0.220800
23988		10.383655	0.880614	-1.980171	-0.179882	-0.101779	-0.195054	-0.613281	0.282227	-0.286133	0.601962	-0.241879	-0.727437	-0.223542
23989		10.430237	0.761832	-2.778399	-0.069698	-0.003131	-0.159355	-0.608887	0.280029	-0.293945	0.601319	-0.241140	-0.727669	-0.225313
23990		9.825155	0.860600	-2.597195	0.057519	0.070173	-0.125535	-0.614502	0.274902	-0.293213	0.601818	-0.239544	-0.727604	-0.225891
23991		9.389011	1.001553	-0.623018	0.096349	0.017909	-0.052041	-0.611572	0.273926	-0.286865	0.602163	-0.238471	-0.727821	-0.225406
23992		9.663753	0.531187	-0.746904	-0.041536	-0.121926	0.026980	-0.609619	0.274414	-0.291504	0.601046	-0.239550	-0.728463	-0.225170
23993		10.105739	-0.210375	-2.675214	0.023361	-0.091395	-0.011000	-0.616455	0.272461	-0.295410	0.600293	-0.239711	-0.729168	-0.224723
23994		9.754060	-0.355735	-3.256576	0.213527	0.052818	-0.132581	-0.614258	0.270752	-0.293213	0.601081	-0.236928	-0.729688	-0.223880
23995		9.619936	0.382434	-3.129628	0.324284	0.168907	-0.187427	-0.612549	0.265625	-0.295654	0.603091	-0.232481	-0.729799	-0.222769
23996		9.391823	1.004139	-1.393009	0.489208	0.183346	-0.193074	-0.623291	0.255371	-0.303955	0.605675	-0.226690	-0.730253	-0.220226
23997		9.890179	1.155820	0.470914	0.300132	0.080058	-0.097225	-0.614746	0.253906	-0.308594	0.607025	-0.223482	-0.730674	-0.218386
23998		9.714610	0.418294	-0.863525	0.055819	0.003195	-0.027932	-0.618164	0.240723	-0.308594	0.607175	-0.222973	-0.730806	-0.218047
23999		9.637636	-0.261154	-2.886306	0.113138	0.044960	-0.080396	-0.615967	0.250488	-0.303223	0.607722	-0.221435	-0.730922	-0.217700
24000		9.138261	-0.141602	-3.155447	0.433303	0.143653	-0.209494	-0.626221	0.241211	-0.319580	0.609693	-0.216013	-0.731504	-0.215672
24001		8.595890	0.502339	-2.541968	0.750520	0.037764	-0.340778	-0.622803	0.228027	-0.321289	0.611157	-0.207238	-0.734055	-0.211430
24002		9.563802	1.034385	-0.877372	0.909867	0.046237	-0.349166	-0.618408	0.221924	-0.327393	0.613012	-0.197119	-0.736894	-0.205783
24003		10.164275	1.390648	0.608279	0.391307	0.012915	-0.161209	-0.617676	0.216553	-0.322510	0.613714	-0.192779	-0.738125	-0.203380
24004		9.769535	0.646012	-0.136080	-0.092347	-0.037438	-0.020066	-0.619385	0.216309	-0.328125	0.613134	-0.193580	-0.738158	-0.204245
24005		9.512290	0.712404	-1.490164	-0.117518	-0.084711	0.000775	-0.629150	0.218506	-0.327881	0.612111	-0.194886	-0.738434	-0.205071
24006		9.478505	1.344735	-1.970127	-0.169327	-0.089308	0.062025	-0.614258	0.216064	-0.321777	0.611073	-0.197164	-0.738461	-0.205894
24007		9.690920	1.000273	-1.844393	-0.221938	-0.121314	0.112689	-0.621338	0.229004	-0.310791	0.609734	-0.200393	-0.738463	-0.206737
24008		9.799296	0.610947	-1.595165	-0.219959	-0.131182	0.127749	-0.623535	0.229492	-0.315674	0.608336	-0.203772	-0.738498	-0.207425
24009		9.653872	0.426964	-1.420783	-0.148015	-0.124724	0.126946	-0.620605	0.232910	-0.308838	0.607174	-0.206575	-0.738664	-0.207467
24010		9.678740	0.677862	-1.749739	-0.157838	-0.126368	0.143395	-0.618408	0.235596	-0.305908	0.606008	-0.209607	-0.738766	-0.207468
24011		9.707690	0.592501	-2.090306	-0.154301	-0.129631	0.147266	-0.621338	0.241699	-0.307373	0.604825	-0.212655	-0.738885	-0.207397
24012		9.619039	-0.032510	-1.897432	-0.061234	-0.108309	0.101347	-0.619385	0.238770	-0.296631	0.603964	-0.214518	-0.739199	-0.206869
24013		9.575138	0.025634	-1.573814	-0.034051	-0.100308	0.051877	-0.619629	0.244629	-0.304199	0.603118	-0.215693	-0.739657	-0.206479
24014		9.705320	0.219521	-1.804996	-0.045973	-0.109257	0.016202	-0.624023	0.248779	-0.298828	0.602066	-0.216654	-0.740243	-0.206442
24015		9.662447	0.230359	-2.095227	-0.024847	-0.092267	-0.020317	-0.627197	0.243164	-0.302002	0.601131	-0.217075	-0.740854	-0.206531
24016		9.507369	0.506472	-1.998212	0.024068	-0.069406	-0.035759	-0.626709	0.246826	-0.294678	0.600503	-0.216920	-0.741463	-0.206338
24017		9.505704	0.782762	-1.775837	-0.026194	-0.078763	0.002129	-0.621338	0.249512	-0.291748	0.599746	-0.217521	-0.741908	-0.206306
24018		9.669147	0.519364	-1.943309	-0.072517	-0.083997	0.033377	-0.621094	0.240723	-0.300049	0.598894	-0.218777	-0.742184	-0.206459
24019		9.530647	0.460601	-2.123753	-0.041222	-0.078289	0.039594	-0.622559	0.256836	-0.304688	0.598200	-0.219831	-0.742482	-0.206280
24020		9.649730	0.623397	-1.966381	-0.029153	-0.075027	0.051261	-0.626221	0.261719	-0.286865	0.597598	-0.220905	-0.742749	-0.205915
24021		9.777195	0.544620	-1.967824	-0.082885	-0.090235	0.065270	-0.621094	0.258789	-0.296875	0.596735	-0.222551	-0.742953	-0.205912
24022		9.659132	0.073575	-2.116133	-0.075458	-0.077266	0.037509	-0.629395	0.252197	-0.292480	0.595944	-0.223845	-0.743153	-0.206075
24023		9.657207	0.153037	-1.972906	-0.042687	-0.055716	-0.001191	-0.625488	0.258057	-0.284668	0.595344	-0.224472	-0.743389	-0.206277
24024		9.623536	0.453031	-1.900820	-0.034305	-0.058264	-0.011699	-0.630371	0.256104	-0.283691	0.594714	-0.224951	-0.743694	-0.206477
24025		9.607505	0.535173	-2.041083	-0.065210	-0.076310	0.005011	-0.632568	0.251465	-0.281250	0.593871	-0.225860	-0.744005	-0.206788
24026		9.547482	0.307347	-2.189077	-0.042278	-0.064458	0.000325	-0.618896	0.259521	-0.276855	0.593190	-0.226520	-0.744301	-0.206953
24027		9.523288	0.535365	-2.034056	-0.058499	-0.063576	0.004581	-0.621582	0.252686	-0.272705	0.592483	-0.227346	-0.744532	-0.207242
24028		9.625245	0.441802	-2.083279	-0.087060	-0.070841	0.018833	-0.630859	0.263184	-0.276367	0.591662	-0.228529	-0.744704	-0.207670
24029		9.646731	0.334876	-2.089722	-0.053962	-0.065217	0.020092	-0.624512	0.265137	-0.268799	0.590990	-0.229468	-0.744913	-0.207798
24030		9.575021	0.367202	-2.129199	-0.035869	-0.055304	0.020627	-0.627686	0.262207	-0.267090	0.590461	-0.230256	-0.745093	-0.207785
24031		9.598382	0.425614	-2.200039	-0.050450	-0.056588	0.025019	-0.626953	0.265137	-0.273926	0.589889	-0.231192	-0.745232	-0.207870
24032		9.580929	0.145218	-2.198698	-0.028873	-0.044894	0.008166	-0.630859	0.266357	-0.280273	0.589448	-0.231780	-0.745388	-0.207906
24033		9.575753	0.278326	-2.118701	-0.015382	-0.035847	-0.010104	-0.623047	0.263672	-0.276855	0.589086	-0.232073	-0.745566	-0.207971
24034		9.623752	0.292755	-2.189243	-0.010943	-0.033445	-0.019148	-0.622314	0.269531	-0.272461	0.588736	-0.232241	-0.745763	-0.208067
24035		9.526377	0.351375	-2.193275	0.017374	-0.021038	-0.025954	-0.625977	0.265869	-0.267578	0.588563	-0.232113	-0.745961	-0.207990
24036		9.555252	0.480725	-2.169708	-0.001690	-0.028541	-0.016430	-0.631348	0.259521	-0.265137	0.588287	-0.232230	-0.746139	-0.208003
24037		9.602722	0.336912	-2.261560	0.002825	-0.020060	-0.014938	-0.632080	0.270508	-0.272949	0.588104	-0.232298	-0.746265	-0.207989
24038		9.571287	0.380215	-2.227646	0.025174	-0.006323	-0.019861	-0.620361	0.258301	-0.274902	0.588106	-0.232130	-0.746358	-0.207838
24039		9.562850	0.429265	-2.188547	0.013842	-0.008518	-0.010567	-0.633057	0.258789	-0.266113	0.588084	-0.232125	-0.746414	-0.207706
24040		9.566143	0.345746	-2.216928	0.024622	-0.008660	-0.010294	-0.624512	0.255859	-0.270264	0.588082	-0.232046	-0.746500	-0.207488
24041		9.554661	0.364235	-2.132857	0.018445	-0.001814	-0.011960	-0.629883	0.266357	-0.269287	0.588129	-0.231975	-0.746524	-0.207349
24042		9.550410	0.374998	-2.174946	0.017035	-0.002757	-0.009663	-0.623047	0.266357	-0.274658	0.588165	-0.231952	-0.746541	-0.207213
24043		9.576894	0.396302	-2.170206	0.008386	-0.009150	-0.011064	-0.627930	0.263184	-0.269043	0.588119	-0.231994	-0.746585	-0.207137
24044		9.537988	0.345462	-2.177852	0.008395	-0.007577	-0.009268	-0.631104	0.272217	-0.275146	0.588086	-0.232046	-0.746615	-0.207063
24045		9.538053	0.456836	-2.100593	0.001534	-0.010903	-0.001482	-0.628662	0.259766	-0.272461	0.588026	-0.232238	-0.746625	-0.206982
24046		9.610698	0.305577	-2.249558	-0.005403	-0.009787	0.000211	-0.627441	0.262207	-0.279053	0.587961	-0.232478	-0.746610	-0.206954
24047		9.541502	0.293305	-2.219109	0.010673	0.000266	-0.006433	-0.624023	0.259277	-0.269043	0.588025	-0.232510	-0.746580	-0.206843
24048		9.555995	0.335707	-2.224821	0.006090	0.005176	-0.011361	-0.625244	0.268799	-0.269287	0.588100	-0.232521	-0.746518	-0.206839
24049		9.570217	0.297536	-2.185686	0.008312	0.005135	-0.017508	-0.625244	0.258789	-0.272461	0.588165	-0.232473	-0.746475	-0.206864
24050		9.570614	0.361345	-2.189427	0.017085	0.008847	-0.020432	-0.626221	0.270264	-0.260986	0.588286	-0.232305	-0.746442	-0.206829
24051		9.582145	0.376304	-2.149345	0.012517	0.007743	-0.016636	-0.630859	0.261963	-0.280762	0.588380	-0.232238	-0.746388	-0.206834
24052		9.560676	0.365931	-2.194661	0.001682	0.006305	-0.014271	-0.629639	0.263672	-0.280029	0.588455	-0.232243	-0.746314	-0.206879
24053		9.533927	0.336953	-2.249812	0.006944	0.012260	-0.014012	-0.624512	0.258789	-0.263184	0.588601	-0.232201	-0.746209	-0.206892
24054		9.598476	0.397212	-2.152868	0.015551	0.014616	-0.013222	-0.621094	0.265381	-0.267578	0.588778	-0.232106	-0.746109	-0.206856
24055		9.602426	0.321728	-2.132006	0.003799	0.016125	-0.011919	-0.629639	0.269531	-0.275879	0.588945	-0.232116	-0.745957	-0.206917
24056		9.543268	0.356015	-2.152547	0.005031	0.015000	-0.015297	-0.628662	0.265869	-0.272949	0.589101	-0.232084	-0.745826	-0.206979
24057		9.554530	0.323785	-2.173959	0.003472	0.014467	-0.015269	-0.631836	0.269043	-0.273682	0.589245	-0.232061	-0.745698	-0.207058
24058		9.580144	0.405142	-2.156492	0.005267	0.011219	-0.017700	-0.622559	0.269287	-0.275635	0.589356	-0.232015	-0.745604	-0.207131
24059		9.572162	0.310694	-2.204145	0.000401	0.012505	-0.016653	-0.628662	0.260986	-0.267822	0.589475	-0.232015	-0.745481	-0.207236
24060		9.576225	0.381646	-2.092552	0.020128	0.013217	-0.020255	-0.626709	0.265869	-0.280518	0.589634	-0.231821	-0.745425	-0.207203
24061		9.591329	0.327744	-2.123996	0.014584	0.013502	-0.014887	-0.628906	0.258301	-0.271973	0.589812	-0.231716	-0.745329	-0.207155
24062		9.576664	0.366537	-2.166649	0.011946	0.016310	-0.018197	-0.622314	0.261963	-0.276367	0.589987	-0.231584	-0.745225	-0.207182
24063		9.577139	0.348650	-2.123968	0.018148	0.015256	-0.021906	-0.622559	0.265381	-0.275391	0.590170	-0.231381	-0.745148	-0.207163
24064		9.569469	0.327059	-2.125336	0.018088	0.014561	-0.022268	-0.629150	0.265869	-0.278809	0.590342	-0.231188	-0.745075	-0.207152
24065		9.519759	0.334209	-2.128153	0.017511	0.015086	-0.025018	-0.631592	0.261475	-0.268066	0.590511	-0.230966	-0.745005	-0.207166
24066		9.575596	0.380689	-2.125403	0.012693	0.017049	-0.023622	-0.626221	0.257812	-0.279541	0.590669	-0.230791	-0.744912	-0.207250
24067		9.597939	0.361746	-2.108652	0.008956	0.010929	-0.024266	-0.626953	0.255859	-0.280273	0.590780	-0.230631	-0.744855	-0.207315
24068		9.560510	0.314336	-2.111370	0.008174	0.012745	-0.027855	-0.626465	0.263428	-0.283447	0.590897	-0.230434	-0.744795	-0.207416
24069		9.565827	0.364615	-2.115315	0.016287	0.015427	-0.030885	-0.629150	0.268066	-0.277100	0.591059	-0.230157	-0.744737	-0.207470
24070		9.593516	0.434277	-2.064333	0.008883	0.012663	-0.025839	-0.625977	0.258789	-0.268311	0.591172	-0.230011	-0.744663	-0.207576
24071		9.564401	0.364998	-2.125367	0.005053	0.009929	-0.021813	-0.625244	0.267334	-0.276367	0.591246	-0.229930	-0.744595	-0.207698
24072		9.552649	0.399507	-2.106055	0.014925	0.012583	-0.019236	-0.637451	0.261475	-0.279785	0.591394	-0.229806	-0.744516	-0.207699
24073		9.577929	0.317741	-2.119099	0.010319	0.011668	-0.018798	-0.618896	0.260498	-0.277832	0.591519	-0.229692	-0.744443	-0.207731
24074		9.549970	0.403421	-2.073282	0.015534	0.013588	-0.019136	-0.625488	0.264648	-0.280273	0.591686	-0.229544	-0.744361	-0.207713
24075		9.614256	0.389971	-2.044367	0.002111	0.001973	-0.018869	-0.622803	0.257324	-0.277588	0.591705	-0.229534	-0.744327	-0.207788
24076		9.585031	0.319852	-2.107291	0.006186	0.004087	-0.021706	-0.623047	0.261719	-0.281006	0.591746	-0.229445	-0.744305	-0.207850
24077		9.583271	0.413464	-2.108264	0.008925	0.003523	-0.020673	-0.624512	0.262939	-0.280762	0.591799	-0.229355	-0.744285	-0.207871
24078		9.623146	0.357435	-2.082376	0.003486	0.005319	-0.022389	-0.620361	0.253174	-0.279297	0.591845	-0.229289	-0.744242	-0.207966
24079		9.570976	0.397136	-2.062239	0.009224	0.004451	-0.022125	-0.624512	0.259521	-0.278809	0.591903	-0.229158	-0.744229	-0.207991
24080		9.600955	0.404139	-2.042944	0.003690	0.004019	-0.021553	-0.630371	0.264160	-0.282959	0.591936	-0.229095	-0.744198	-0.208078
24081		9.559612	0.363992	-2.089277	0.007008	0.001352	-0.019560	-0.629395	0.259277	-0.278320	0.591963	-0.229037	-0.744186	-0.208108
24082		9.575453	0.420138	-2.079760	0.010680	0.000307	-0.018659	-0.631104	0.264404	-0.275635	0.591983	-0.228956	-0.744196	-0.208105
24083		9.610600	0.431420	-2.102456	0.011830	-0.002320	-0.014949	-0.628418	0.260254	-0.284668	0.591983	-0.228931	-0.744212	-0.208076
24084		9.596346	0.328044	-2.098393	0.015843	0.000697	-0.016352	-0.629150	0.263428	-0.278564	0.592043	-0.228824	-0.744222	-0.207985
24085		9.550894	0.330685	-2.055234	0.015207	0.001367	-0.022468	-0.629395	0.260254	-0.280273	0.592076	-0.228688	-0.744240	-0.207977
24086		9.587452	0.314964	-2.081198	0.018649	0.001707	-0.030214	-0.626709	0.256836	-0.273193	0.592106	-0.228438	-0.744291	-0.207984
24087		9.566518	0.416513	-2.084462	0.017282	0.003157	-0.033565	-0.628906	0.268311	-0.284424	0.592122	-0.228169	-0.744342	-0.208054
24088		9.602014	0.440446	-2.076975	0.009545	0.001223	-0.028625	-0.627930	0.259521	-0.278320	0.592134	-0.228029	-0.744353	-0.208132
24089		9.594971	0.425588	-2.073566	0.010176	0.000552	-0.022512	-0.624512	0.264893	-0.284424	0.592145	-0.227923	-0.744367	-0.208165
24090		9.583276	0.400223	-2.051266	0.006425	-0.001476	-0.018115	-0.621094	0.261719	-0.277588	0.592155	-0.227905	-0.744361	-0.208178
24091		9.574424	0.360170	-2.115390	-0.008341	-0.003600	-0.020012	-0.622070	0.266113	-0.281738	0.592085	-0.227989	-0.744342	-0.208356
24092		9.594350	0.405561	-2.086896	-0.000970	-0.003299	-0.023866	-0.623291	0.257812	-0.284668	0.592038	-0.227990	-0.744342	-0.208486
24093		9.576824	0.453328	-2.090934	0.000416	-0.001636	-0.021379	-0.635254	0.260986	-0.287109	0.592025	-0.227957	-0.744341	-0.208562
24094		9.595033	0.451869	-2.089960	-0.003165	-0.004038	-0.014699	-0.622559	0.256104	-0.289795	0.591990	-0.228018	-0.744333	-0.208624
24095		9.582767	0.385324	-2.087581	0.001244	0.000453	-0.013840	-0.624512	0.264160	-0.276855	0.592034	-0.228025	-0.744298	-0.208615
24096		9.575071	0.436913	-2.060639	-0.000607	0.000582	-0.010565	-0.622559	0.256104	-0.275879	0.592043	-0.228138	-0.744239	-0.208675
24097		9.607544	0.374398	-2.079598	-0.009816	-0.002796	-0.007024	-0.631592	0.262939	-0.278320	0.592005	-0.228327	-0.744185	-0.208770
24098		9.585152	0.400966	-2.093752	-0.002878	-0.001517	-0.014360	-0.623047	0.257812	-0.275146	0.591975	-0.228410	-0.744156	-0.208870
24099		9.556838	0.382181	-2.086667	-0.001953	-0.000404	-0.012701	-0.621338	0.256836	-0.274658	0.591964	-0.228489	-0.744119	-0.208946
24100		9.618596	0.423132	-2.073639	0.001465	-0.002433	-0.014793	-0.628906	0.253906	-0.281006	0.591940	-0.228526	-0.744112	-0.208998
24101		9.615294	0.409381	-2.097577	-0.000001	0.001599	-0.010464	-0.620850	0.266357	-0.281738	0.591971	-0.228566	-0.744071	-0.209013
24102		9.590983	0.402666	-2.087849	0.004149	-0.000465	-0.010525	-0.627930	0.263916	-0.284424	0.592003	-0.228649	-0.744022	-0.209004
24103		9.568446	0.376412	-2.052872	0.002805	-0.001453	-0.012660	-0.624268	0.259521	-0.276123	0.592016	-0.228699	-0.743995	-0.209009
24104		9.578720	0.412718	-2.054676	0.006196	-0.005005	-0.012099	-0.623779	0.259033	-0.282227	0.591988	-0.228738	-0.744011	-0.208992
24105		9.586220	0.472168	-2.061356	0.001682	-0.007684	-0.010083	-0.626221	0.265137	-0.271973	0.591947	-0.228820	-0.744026	-0.208963
24106		9.605070	0.390114	-2.114353	0.004817	-0.005918	-0.009788	-0.625000	0.250977	-0.284180	0.591895	-0.228930	-0.744030	-0.208976
24107		9.571567	0.394897	-2.077187	0.013982	-0.002456	-0.008889	-0.631104	0.262207	-0.278564	0.591950	-0.228865	-0.744054	-0.208806
24108		9.568719	0.419328	-2.082164	0.011940	-0.003478	-0.005241	-0.625977	0.259521	-0.276855	0.591969	-0.228921	-0.744054	-0.208691
24109		9.578069	0.351777	-2.084521	0.010818	-0.005751	-0.006531	-0.620605	0.258057	-0.283447	0.591961	-0.228974	-0.744073	-0.208586
24110		9.588813	0.405569	-2.028328	0.009674	-0.007192	-0.010831	-0.623779	0.257812	-0.274170	0.591956	-0.228980	-0.744107	-0.208474
24111		9.589259	0.360246	-2.092872	0.003273	-0.008072	-0.011552	-0.628906	0.256592	-0.272949	0.591887	-0.229049	-0.744140	-0.208476
24112		9.569385	0.393804	-2.113574	0.014001	-0.002548	-0.013346	-0.629395	0.263184	-0.282959	0.591885	-0.228996	-0.744175	-0.208414
24113		9.577602	0.397160	-2.092455	0.008982	-0.006477	-0.012509	-0.630127	0.261963	-0.280762	0.591866	-0.229007	-0.744206	-0.208347
24114		9.609308	0.413123	-2.059528	0.007054	-0.002994	-0.009009	-0.626221	0.264893	-0.274170	0.591875	-0.229054	-0.744200	-0.208291
24115		9.585241	0.392573	-2.101661	0.003867	-0.003850	-0.007863	-0.630859	0.258301	-0.279785	0.591851	-0.229179	-0.744179	-0.208295
24116		9.582462	0.343453	-2.137851	0.001240	-0.002024	-0.012637	-0.628174	0.256104	-0.277832	0.591840	-0.229210	-0.744172	-0.208316
24117		9.572104	0.427513	-2.086235	0.008099	-0.000583	-0.011091	-0.629150	0.258545	-0.283203	0.591864	-0.229196	-0.744172	-0.208265
24118		9.610412	0.432835	-2.046486	0.000905	-0.005989	-0.005871	-0.631836	0.260742	-0.275879	0.591849	-0.229295	-0.744170	-0.208205
24119		9.561547	0.331624	-2.089281	-0.000075	-0.006196	-0.006092	-0.631836	0.254395	-0.281250	0.591796	-0.229431	-0.744170	-0.208208
24120		9.569416	0.377382	-2.146273	0.002626	-0.000346	-0.010150	-0.621826	0.262939	-0.281738	0.591818	-0.229434	-0.744160	-0.208177
24121		9.598211	0.429740	-2.065888	-0.007219	-0.003840	-0.005252	-0.632080	0.260254	-0.279541	0.591805	-0.229633	-0.744100	-0.208207
24122		9.578357	0.430688	-2.076216	-0.014037	-0.003732	0.002814	-0.630615	0.260742	-0.284424	0.591773	-0.229928	-0.744021	-0.208254
24123		9.567149	0.377850	-2.134629	-0.007422	-0.002523	0.006169	-0.628174	0.260254	-0.279541	0.591802	-0.230186	-0.743938	-0.208185
24124		9.608480	0.387465	-2.100133	0.002015	-0.001244	0.006465	-0.631592	0.265137	-0.278809	0.591854	-0.230390	-0.743869	-0.208055
24125		9.632078	0.241493	-2.061561	0.002322	-0.005134	-0.000373	-0.627197	0.259521	-0.279297	0.591845	-0.230564	-0.743843	-0.207984
24126		9.569061	0.230598	-2.093389	0.007560	-0.002609	-0.017086	-0.627930	0.259521	-0.289551	0.591840	-0.230505	-0.743869	-0.207969
24127		9.564913	0.327814	-2.074424	0.018550	0.001463	-0.026947	-0.623291	0.255859	-0.271240	0.591923	-0.230215	-0.743922	-0.207864
24128		9.596459	0.452143	-2.019441	0.019475	-0.004495	-0.020553	-0.633301	0.261475	-0.275635	0.591896	-0.230070	-0.744005	-0.207806
24129		9.589127	0.402926	-2.127267	0.011025	-0.006309	-0.013163	-0.632324	0.265381	-0.279297	0.591851	-0.230054	-0.744059	-0.207760
24130		9.590845	0.415788	-2.112690	0.020572	-0.002865	-0.007357	-0.624268	0.260254	-0.274414	0.591898	-0.230021	-0.744083	-0.207576
24131		9.613280	0.371584	-2.060848	0.013180	-0.005478	-0.005632	-0.623291	0.265137	-0.281738	0.591894	-0.230074	-0.744104	-0.207455
24132		9.575346	0.313104	-2.075065	0.011848	-0.004966	-0.010424	-0.623779	0.262451	-0.276123	0.591912	-0.230088	-0.744116	-0.207344
24133		9.535650	0.346384	-2.105397	0.010181	-0.006071	-0.014114	-0.630859	0.259033	-0.277588	0.591880	-0.230091	-0.744151	-0.207306
24134		9.583541	0.336996	-2.116268	0.007523	-0.004163	-0.014439	-0.632080	0.264160	-0.270996	0.591855	-0.230060	-0.744188	-0.207280
24135		9.608688	0.364620	-2.089759	0.009257	-0.004082	-0.016641	-0.625488	0.267334	-0.276855	0.591795	-0.230061	-0.744222	-0.207325
24136		9.586626	0.356688	-2.116102	0.010136	-0.003648	-0.015340	-0.630615	0.271973	-0.272949	0.591782	-0.230075	-0.744231	-0.207317
24137		9.585634	0.363645	-2.095445	0.012797	-0.002440	-0.015886	-0.626465	0.264648	-0.279785	0.591757	-0.230104	-0.744234	-0.207344
24138		9.579877	0.382055	-2.094537	0.017398	-0.000712	-0.011541	-0.616699	0.259766	-0.281250	0.591815	-0.230058	-0.744237	-0.207217
24139		9.606644	0.369929	-2.100410	0.015437	-0.001133	-0.011981	-0.623291	0.260498	-0.281982	0.591887	-0.230000	-0.744238	-0.207073
24140		9.576534	0.337842	-2.109265	0.014766	-0.002747	-0.007982	-0.628662	0.262695	-0.284912	0.591944	-0.229977	-0.744247	-0.206904
24141		9.570931	0.324799	-2.098195	0.013994	0.001207	-0.013901	-0.628174	0.257812	-0.281006	0.592024	-0.229887	-0.744243	-0.206790
24142		9.594433	0.380836	-2.067292	0.006988	-0.002221	-0.012044	-0.627197	0.270264	-0.283203	0.592041	-0.229856	-0.744257	-0.206725
24143		9.576844	0.411396	-2.122536	0.004216	-0.003092	-0.005959	-0.632812	0.259766	-0.277832	0.592064	-0.229991	-0.744211	-0.206674
24144		9.583394	0.370729	-2.106673	0.006107	-0.001641	0.000370	-0.636230	0.264160	-0.278320	0.592091	-0.230099	-0.744187	-0.206562
24145		9.553799	0.315270	-2.076273	0.010771	-0.004059	-0.000307	-0.624268	0.260254	-0.281006	0.592103	-0.230194	-0.744188	-0.206422
24146		9.601846	0.303061	-2.087074	0.004017	-0.005752	-0.002921	-0.629395	0.265869	-0.281494	0.592108	-0.230300	-0.744181	-0.206311
24147		9.599538	0.293066	-2.103891	0.010291	-0.002422	-0.011271	-0.626953	0.256836	-0.282471	0.592132	-0.230301	-0.744183	-0.206236
24148		9.574669	0.330559	-2.054237	0.005820	-0.005210	-0.013681	-0.625488	0.267090	-0.282715	0.592124	-0.230250	-0.744225	-0.206163
24149		9.564029	0.370733	-2.045415	0.006464	-0.009735	-0.011487	-0.627441	0.262451	-0.276611	0.592081	-0.230307	-0.744261	-0.206096
24150		9.581266	0.348004	-2.105585	-0.001244	-0.015460	-0.005973	-0.625000	0.259521	-0.277344	0.591944	-0.230479	-0.744322	-0.206074
24151		9.568029	0.335433	-2.133616	0.003561	-0.014299	-0.008255	-0.630615	0.265869	-0.276123	0.591837	-0.230567	-0.744399	-0.206005
24152		9.576662	0.334247	-2.135676	0.009060	-0.009107	-0.007940	-0.622803	0.269287	-0.276367	0.591777	-0.230646	-0.744441	-0.205935
24153		9.598224	0.286078	-2.092439	0.012844	-0.007346	-0.013460	-0.625732	0.262939	-0.285400	0.591744	-0.230686	-0.744469	-0.205885
24154		9.575456	0.322210	-2.078950	0.008329	-0.009332	-0.018886	-0.622803	0.260742	-0.285645	0.591712	-0.230605	-0.744541	-0.205808
24155		9.570423	0.334553	-2.123215	0.009074	-0.012594	-0.020440	-0.633301	0.258057	-0.275879	0.591655	-0.230500	-0.744646	-0.205712
24156		9.561244	0.306967	-2.138028	0.009021	-0.008550	-0.019878	-0.622314	0.256592	-0.277100	0.591568	-0.230399	-0.744749	-0.205701
24157		9.581087	0.347898	-2.132872	0.006547	-0.008617	-0.019704	-0.630859	0.259033	-0.276123	0.591501	-0.230327	-0.744828	-0.205688
24158		9.602367	0.333091	-2.100095	0.004729	-0.011706	-0.019997	-0.625977	0.269043	-0.275146	0.591378	-0.230278	-0.744935	-0.205708
24159		9.556497	0.312774	-2.139608	0.005330	-0.010683	-0.019902	-0.624512	0.268311	-0.270508	0.591267	-0.230324	-0.744991	-0.205775
24160		9.568486	0.358484	-2.149350	0.006397	-0.010714	-0.020773	-0.618408	0.262207	-0.276611	0.591135	-0.230380	-0.745051	-0.205875
24161		9.597258	0.369747	-2.111969	0.005458	-0.006987	-0.017053	-0.620117	0.266357	-0.273682	0.591093	-0.230394	-0.745078	-0.205879
24162		9.602262	0.317754	-2.134635	0.000565	-0.009673	-0.019929	-0.623535	0.264160	-0.282471	0.590983	-0.230474	-0.745110	-0.205989
24163		9.586748	0.341251	-2.135557	0.004556	-0.002823	-0.021899	-0.627197	0.261719	-0.274414	0.590989	-0.230410	-0.745120	-0.206010
24164		9.574448	0.381445	-2.112019	0.008654	-0.002323	-0.018746	-0.626465	0.264160	-0.277588	0.590969	-0.230357	-0.745147	-0.206029
24165		9.574752	0.381124	-2.134312	0.005538	-0.003984	-0.014559	-0.630371	0.262207	-0.281250	0.590953	-0.230378	-0.745154	-0.206027
24166		9.599340	0.399271	-2.137638	-0.006006	-0.006746	-0.010404	-0.627686	0.257568	-0.281982	0.590903	-0.230481	-0.745154	-0.206055
24167		9.651101	0.362805	-2.165281	-0.005369	-0.000273	-0.009037	-0.627441	0.255615	-0.273193	0.590932	-0.230533	-0.745116	-0.206050
24168		9.641440	0.429533	-2.183545	0.005983	0.022522	-0.011457	-0.628662	0.270020	-0.271240	0.591150	-0.230454	-0.744955	-0.206091
24169		9.637804	0.399747	-2.103874	-0.010696	0.038020	-0.007009	-0.617920	0.260986	-0.274902	0.591452	-0.230642	-0.744573	-0.206396
24170		9.578542	0.315366	-2.037785	-0.000929	0.025070	-0.012413	-0.621338	0.265869	-0.277344	0.591692	-0.230662	-0.744340	-0.206528
24171		9.489806	0.400772	-1.901687	-0.020409	-0.000901	-0.006170	-0.624756	0.261963	-0.277832	0.591652	-0.230976	-0.744218	-0.206731
24172		9.491134	0.293952	-1.947983	-0.066944	-0.037375	-0.000930	-0.625977	0.265381	-0.273193	0.591151	-0.231721	-0.744256	-0.207194
24173		9.479071	0.202285	-2.056060	-0.083754	-0.049672	-0.012903	-0.627686	0.264893	-0.282227	0.590431	-0.232556	-0.744366	-0.207915
24174		9.533310	0.161011	-2.075778	-0.090546	-0.060699	-0.030447	-0.629395	0.270752	-0.276367	0.589600	-0.233230	-0.744594	-0.208698
24175		9.615161	0.179104	-1.996487	-0.073906	-0.072250	-0.053015	-0.633545	0.267578	-0.272949	0.588619	-0.233676	-0.744998	-0.209527
24176		9.557627	0.311528	-2.089856	-0.069626	-0.088708	-0.066740	-0.625488	0.272949	-0.275391	0.587446	-0.233975	-0.745593	-0.210369
24177		9.538341	0.343477	-2.152224	-0.059129	-0.085086	-0.079400	-0.622803	0.270752	-0.270996	0.586341	-0.234125	-0.746179	-0.211205
24178		9.469614	0.600455	-1.923077	-0.090807	-0.106521	-0.074055	-0.624512	0.269775	-0.262939	0.584948	-0.234624	-0.746819	-0.212246
24179		9.515879	0.236107	-1.936885	-0.115417	-0.127270	-0.070509	-0.626465	0.260498	-0.266113	0.583261	-0.235413	-0.747540	-0.213476
24180		9.454549	0.625213	-1.417925	-0.144358	-0.179427	-0.072649	-0.635742	0.264404	-0.258789	0.581032	-0.236401	-0.748602	-0.214735
24181		9.580915	-0.007168	-2.244105	-0.227614	-0.208239	-0.073992	-0.631836	0.267090	-0.244873	0.578239	-0.238095	-0.749646	-0.216753
24182		9.110316	0.141798	-3.030074	-0.111972	-0.169838	-0.142052	-0.630127	0.261230	-0.247803	0.575913	-0.238296	-0.750901	-0.218375
24183		9.341469	0.292199	-3.087191	-0.103121	-0.122476	-0.163209	-0.629150	0.262939	-0.244873	0.574044	-0.238025	-0.751908	-0.220117
24184		9.709423	0.475124	-3.024439	-0.028208	-0.048960	-0.213420	-0.635010	0.254395	-0.248047	0.572947	-0.236586	-0.752718	-0.221751
24185		9.685123	0.631659	-2.420300	-0.059140	-0.020729	-0.223445	-0.633789	0.255127	-0.239746	0.572015	-0.235097	-0.753299	-0.223761
24186		9.609520	0.638500	-2.967357	-0.074031	0.025204	-0.232106	-0.634766	0.259766	-0.242188	0.571398	-0.233591	-0.753510	-0.226190
24187		9.619824	0.867556	-2.678975	-0.031318	0.074175	-0.235223	-0.636475	0.252197	-0.250000	0.571361	-0.231684	-0.753459	-0.228405
24188		9.627919	0.881155	-2.592697	-0.005714	0.110937	-0.222107	-0.633301	0.245117	-0.256348	0.571821	-0.229523	-0.753192	-0.230307
24189		9.449405	1.153674	-2.491457	0.025904	0.138111	-0.200742	-0.636963	0.240234	-0.252930	0.572725	-0.227198	-0.752761	-0.231772
24190		9.497346	1.222349	-2.211812	0.001953	0.132560	-0.142325	-0.627930	0.241455	-0.250977	0.573633	-0.225606	-0.752150	-0.233064
24191		9.456716	1.278310	-2.536451	-0.002848	0.149190	-0.091802	-0.640625	0.231445	-0.252930	0.574818	-0.224553	-0.751228	-0.234129
24192		9.548822	0.873610	-2.666604	-0.024363	0.187784	-0.062597	-0.629639	0.237549	-0.257568	0.576366	-0.223681	-0.749950	-0.235254
24193		9.648931	0.733698	-2.491598	0.054269	0.253469	-0.091303	-0.631104	0.233154	-0.271484	0.578685	-0.221873	-0.748450	-0.236049
24194		9.764806	0.900768	-2.661250	0.037090	0.325576	-0.094182	-0.623535	0.243408	-0.271729	0.581673	-0.219855	-0.746385	-0.237127
24195		9.904777	1.178958	-2.815153	0.103285	0.434534	-0.089502	-0.631592	0.236816	-0.282227	0.585827	-0.217248	-0.743631	-0.237955
24196		10.087012	1.806785	-2.930734	0.205419	0.578254	-0.020014	-0.625732	0.232178	-0.294922	0.591772	-0.214008	-0.739948	-0.237664
24197		9.952119	2.632450	-2.493972	0.382363	0.712489	0.152136	-0.621094	0.230713	-0.306152	0.599915	-0.210590	-0.735283	-0.234761
24198		9.693583	3.239565	-2.280939	0.461519	0.752698	0.437447	-0.617432	0.222656	-0.322510	0.609376	-0.209050	-0.729712	-0.229082
24199		9.530560	3.077425	-1.892297	0.475451	0.673098	0.764401	-0.607422	0.234375	-0.326660	0.618982	-0.210431	-0.723864	-0.220458
24200		9.658628	1.662284	-2.409718	0.440018	0.419331	0.970490	-0.612061	0.243164	-0.348145	0.626574	-0.214706	-0.719183	-0.209956
24201		8.552322	-2.396716	-6.554068	0.672294	-0.027197	0.898221	-0.604004	0.258545	-0.356689	0.630494	-0.217504	-0.718698	-0.196578
24202		9.419825	-3.493461	-7.106110	1.892990	-0.296196	0.520754	-0.614990	0.251221	-0.352295	0.634155	-0.207900	-0.724032	-0.174364
24203		9.184039	-0.913102	-4.480162	1.894718	-0.361833	0.536848	-0.624268	0.241455	-0.373291	0.636746	-0.198511	-0.729447	-0.151842
24204		8.662690	-0.001762	-2.372869	0.850234	-0.766047	0.633767	-0.627441	0.242188	-0.367188	0.633014	-0.198883	-0.735532	-0.136863
24205		8.699464	-0.443723	-1.162903	-0.212412	-1.030329	0.692838	-0.641846	0.260254	-0.351074	0.624138	-0.208721	-0.741511	-0.130574
24206		8.743892	-1.499553	-0.601867	-0.822496	-0.989509	0.557220	-0.651367	0.266113	-0.345215	0.613643	-0.222038	-0.746286	-0.131143
24207		8.562918	-1.089291	-0.443291	-0.842244	-0.716753	0.286847	-0.655518	0.279785	-0.330811	0.605037	-0.232491	-0.749489	-0.134701
24208		8.392117	-0.934453	-0.460802	-0.834567	-0.605848	0.002053	-0.668457	0.280762	-0.312500	0.596901	-0.239988	-0.752552	-0.140641
24209		8.757515	-1.234136	-0.364432	-0.544752	-0.548095	-0.345394	-0.685547	0.295410	-0.312988	0.589485	-0.241920	-0.756630	-0.146604
24210		9.213379	-0.593135	-0.338608	-0.191156	-0.426871	-0.618127	-0.679443	0.281494	-0.306885	0.583728	-0.238421	-0.761209	-0.151586
24211		9.659160	-0.244425	-0.142431	-0.073555	-0.318658	-0.776601	-0.697510	0.273682	-0.307861	0.578994	-0.232329	-0.765615	-0.156916
24212		9.894240	-0.010258	-1.053270	0.031131	-0.281921	-0.883028	-0.703125	0.260986	-0.303467	0.574641	-0.224362	-0.770175	-0.162109
24213		12.022475	-2.973336	0.350825	0.541381	-0.046196	-0.861956	-0.705078	0.231201	-0.307861	0.573951	-0.212425	-0.773903	-0.162881
24214		12.495868	0.285595	2.276044	0.983367	0.357624	-0.668503	-0.711914	0.215576	-0.321289	0.578626	-0.198324	-0.774965	-0.159024
24215		10.670329	3.800073	0.033565	-0.309580	-0.031224	-0.281782	-0.710693	0.210205	-0.320312	0.577026	-0.198071	-0.775202	-0.163922
24216		9.917966	-0.371629	-4.198879	-0.324825	-0.104150	-0.203772	-0.709961	0.211670	-0.308105	0.574827	-0.198836	-0.775715	-0.168240
24217		8.155999	0.582904	-4.065182	0.412744	0.085891	-0.301193	-0.715820	0.207764	-0.311523	0.576079	-0.192949	-0.776633	-0.166569
24218		8.306044	0.409946	-2.479245	-0.069093	-0.070573	-0.189794	-0.713623	0.207275	-0.324219	0.574868	-0.191933	-0.777389	-0.168390
24219		9.475371	1.118127	-2.240824	-0.166362	-0.184724	-0.174631	-0.708984	0.200928	-0.325928	0.572341	-0.192002	-0.778716	-0.170771
24220		10.278309	0.797571	-2.854807	-0.272034	-0.222936	-0.132696	-0.712402	0.209717	-0.316162	0.569267	-0.193315	-0.779975	-0.173791
24221		9.626636	1.315840	-3.266962	-0.129181	-0.170048	-0.067470	-0.705566	0.200684	-0.308594	0.567187	-0.194130	-0.780999	-0.175080
24222		9.897906	0.476390	-3.700301	-0.108683	-0.113490	0.007359	-0.714355	0.208008	-0.305908	0.565868	-0.195406	-0.781481	-0.175778
24223		9.830190	0.437517	-3.216975	-0.011989	-0.036077	-0.012271	-0.711182	0.205078	-0.310791	0.565498	-0.195635	-0.781674	-0.175857
24224		9.883212	0.209024	-3.010752	-0.088722	0.031065	-0.051196	-0.703857	0.206543	-0.305420	0.565509	-0.195878	-0.781318	-0.177124
24225		9.367943	0.126055	-3.437740	-0.024905	0.154299	-0.112242	-0.714600	0.198975	-0.307129	0.566744	-0.194800	-0.780380	-0.178499
24226		9.098163	0.381975	-2.982706	0.006946	0.196693	-0.167492	-0.702148	0.202881	-0.311279	0.568342	-0.192860	-0.779342	-0.180054
24227		9.009313	0.897307	-2.885456	-0.139694	0.265682	-0.182783	-0.708252	0.204102	-0.317139	0.570215	-0.191654	-0.777510	-0.183308
24228		9.332384	0.665573	-2.860561	-0.264402	0.152977	-0.173092	-0.709473	0.195312	-0.322510	0.570706	-0.191686	-0.776157	-0.187433
24229		9.319394	1.075367	-2.804565	-0.233389	0.129210	-0.143156	-0.705566	0.197510	-0.322266	0.571101	-0.191840	-0.774962	-0.190983
24230		9.478824	1.434071	-2.580680	-0.315175	0.118690	-0.056417	-0.710205	0.195312	-0.325439	0.571396	-0.193440	-0.773426	-0.194679
24231		9.377666	0.953023	-2.805635	-0.315603	0.113230	-0.001121	-0.712158	0.199463	-0.321289	0.571760	-0.195589	-0.771780	-0.197970
24232		9.547638	0.934245	-2.314154	-0.291033	0.111919	0.028197	-0.713867	0.205078	-0.330322	0.572234	-0.197844	-0.770118	-0.200808
24233		9.615379	0.671608	-2.600403	-0.289430	0.096323	0.046979	-0.706299	0.204590	-0.323242	0.572600	-0.200306	-0.768513	-0.203455
24234		9.373066	1.200970	-2.263815	-0.220013	0.088572	0.052983	-0.704834	0.212402	-0.326416	0.573074	-0.202344	-0.767116	-0.205371
24235		9.578225	0.312238	-2.416992	-0.250522	0.062501	0.052949	-0.708740	0.214600	-0.325439	0.573213	-0.204667	-0.765817	-0.207512
24236		9.379281	0.527295	-2.281979	-0.128538	0.059080	-0.000090	-0.711182	0.221680	-0.325684	0.573491	-0.205615	-0.764990	-0.208854
24237		9.590536	0.805081	-2.549460	-0.151604	0.066018	-0.000790	-0.714111	0.218262	-0.323486	0.573772	-0.206702	-0.764052	-0.210438
24238		9.398204	0.605644	-2.419247	-0.016941	0.092990	-0.032920	-0.700439	0.213135	-0.332764	0.574573	-0.206445	-0.763355	-0.211035
24239		9.481638	1.246085	-2.427849	-0.083769	0.076481	-0.002903	-0.703125	0.214355	-0.325928	0.575121	-0.206997	-0.762522	-0.212010
24240		9.360386	0.629448	-2.742454	-0.038929	0.091244	0.000362	-0.710693	0.217041	-0.334229	0.575934	-0.207219	-0.761691	-0.212574
24241		9.584799	0.772162	-2.035485	-0.023903	0.067632	-0.008996	-0.706543	0.222900	-0.332031	0.576535	-0.207305	-0.761094	-0.212998
24242		9.519604	0.744549	-2.668179	-0.021191	0.075727	-0.010638	-0.707275	0.224121	-0.334961	0.577216	-0.207335	-0.760448	-0.213431
24243		9.404442	1.472726	-2.502069	0.001219	0.126709	0.016862	-0.702637	0.218018	-0.339844	0.578511	-0.207328	-0.759423	-0.213582
24244		9.613048	0.849092	-2.666277	-0.026307	0.164685	0.062151	-0.704590	0.216797	-0.341309	0.580214	-0.207847	-0.757928	-0.213767
24245		9.369464	1.169887	-1.964795	0.053091	0.149818	0.083107	-0.708740	0.221924	-0.344238	0.582034	-0.208028	-0.756696	-0.213007
24246		9.684071	0.443388	-2.221039	-0.015530	0.120161	0.104001	-0.694824	0.219482	-0.347900	0.583448	-0.208985	-0.755437	-0.212669
24247		9.672370	0.332485	-2.585063	0.039248	0.147287	0.036468	-0.699219	0.218262	-0.331543	0.585080	-0.208830	-0.754300	-0.212374
24248		9.685808	0.877502	-2.268972	-0.039615	0.164605	0.020131	-0.694580	0.219727	-0.340576	0.586623	-0.209051	-0.752867	-0.212984
24249		9.498235	0.540447	-2.491831	-0.019637	0.207142	-0.003673	-0.699707	0.225098	-0.350586	0.588552	-0.208787	-0.751233	-0.213691
24250		9.357606	0.900901	-2.123606	-0.012177	0.224746	-0.019469	-0.697998	0.224854	-0.345947	0.590619	-0.208271	-0.749525	-0.214486
24251		9.606003	0.445784	-2.103738	0.005725	0.211232	-0.029151	-0.698242	0.220215	-0.360596	0.592576	-0.207566	-0.747985	-0.215150
24252		9.542302	0.587074	-1.636997	0.044514	0.187311	-0.037494	-0.690918	0.227539	-0.363037	0.594383	-0.206559	-0.746743	-0.215447
24253		10.069832	0.261123	-1.492297	0.184708	0.149507	-0.069941	-0.695557	0.219727	-0.364990	0.596108	-0.204307	-0.746237	-0.214578
24254		9.657397	1.303211	-2.147266	0.171467	0.114263	-0.054555	-0.697266	0.207764	-0.365723	0.597508	-0.202391	-0.745913	-0.213625
24255		9.460738	2.027056	-2.898085	0.062350	0.208216	0.029897	-0.692139	0.217529	-0.367432	0.599728	-0.201825	-0.744377	-0.213297
24256		9.782322	0.887428	-2.727845	0.058529	0.317474	0.104997	-0.690918	0.216553	-0.375977	0.603146	-0.201693	-0.741813	-0.212717
24257		10.391954	-0.364345	-1.551430	0.568248	0.447365	0.039738	-0.687988	0.207031	-0.387939	0.608849	-0.196756	-0.739754	-0.208218
24258		10.270877	1.560481	-1.463574	0.655662	0.483471	-0.000806	-0.685059	0.202637	-0.396484	0.614940	-0.190667	-0.737679	-0.203285
24259		9.967987	0.393812	-3.086825	0.398621	0.641333	-0.033182	-0.681152	0.203857	-0.416748	0.621733	-0.185837	-0.733743	-0.201332
24260		10.243249	-0.037062	-2.694446	0.424795	0.679006	-0.196419	-0.678711	0.189209	-0.423828	0.628460	-0.179191	-0.729890	-0.200471
24261		10.486840	-0.901330	-2.396093	0.563892	0.532136	-0.474142	-0.676514	0.176514	-0.433594	0.633390	-0.169266	-0.728079	-0.200166
24262		9.635427	-1.073498	-2.621324	0.861435	0.258629	-0.837271	-0.687988	0.149170	-0.447510	0.635440	-0.154332	-0.729819	-0.199404
24263		8.865769	0.027910	-2.547297	1.217920	0.009893	-1.059525	-0.687500	0.109863	-0.451416	0.635155	-0.135108	-0.734623	-0.196603
24264		8.806553	1.377398	-2.381000	1.490954	-0.143354	-0.889199	-0.694092	0.070068	-0.450684	0.634068	-0.115597	-0.740709	-0.189593
24265		8.459761	2.208081	-2.186860	1.430288	-0.186176	-0.517066	-0.698730	0.043945	-0.444824	0.633114	-0.100065	-0.746146	-0.180053
24266		8.865884	1.069259	-0.150999	0.828735	-0.215144	-0.012684	-0.707764	0.043457	-0.445312	0.632121	-0.094038	-0.749651	-0.172055
24267		8.044673	2.558398	0.327950	-0.628447	-0.449230	0.441379	-0.709473	0.051514	-0.442871	0.628123	-0.104272	-0.751247	-0.173829
24268		7.675594	2.262182	-0.371482	-1.331869	-0.538815	0.393656	-0.713623	0.057861	-0.429932	0.622114	-0.119753	-0.751899	-0.182433
24269		7.608192	1.839848	-1.447950	-1.333666	-0.452688	0.217360	-0.722656	0.083740	-0.410889	0.616300	-0.133355	-0.751887	-0.192500
24270		6.978448	1.962664	-3.633509	-1.065882	-0.413720	0.090886	-0.727783	0.101807	-0.411865	0.610830	-0.143578	-0.752232	-0.201042
24271		9.666847	0.496844	-1.709047	0.005111	-0.314185	-0.137333	-0.733154	0.100830	-0.402100	0.607574	-0.143211	-0.754836	-0.201413
24272		13.043021	2.780636	4.678841	1.064535	0.260057	-0.371510	-0.735596	0.086182	-0.427490	0.610976	-0.131127	-0.756080	-0.194569
24273		13.317652	3.156044	4.678904	-0.571786	-0.075148	0.371233	-0.728516	0.095459	-0.426270	0.610251	-0.139361	-0.754573	-0.196956
24274		11.048040	1.110693	-3.596124	-0.154344	-0.116809	0.272778	-0.733643	0.111084	-0.420898	0.609593	-0.143584	-0.754538	-0.196091
24275		9.610292	0.777116	-4.321419	0.034077	0.107821	0.162397	-0.731934	0.107910	-0.408203	0.611113	-0.144777	-0.753444	-0.194686
24276		9.390737	-0.009864	-1.663932	0.037593	0.064697	0.012767	-0.731201	0.114014	-0.418945	0.611865	-0.144636	-0.752959	-0.194307
24277		9.223086	-0.263736	-0.521587	0.021402	-0.044333	-0.096985	-0.727783	0.108154	-0.414551	0.611295	-0.143849	-0.753466	-0.194718
24278		9.132814	0.694418	-0.363835	0.118435	-0.127299	-0.148501	-0.734619	0.097656	-0.420410	0.609992	-0.142036	-0.754932	-0.194456
24279		9.340828	1.612935	-1.100666	0.063132	-0.234247	-0.093525	-0.725098	0.095703	-0.413574	0.607711	-0.141423	-0.756975	-0.194104
24280		9.115156	1.667290	-2.817214	-0.039061	-0.281267	-0.012973	-0.739258	0.100586	-0.403809	0.604993	-0.142462	-0.758974	-0.194026
24281		9.504407	1.393302	-2.676201	0.057797	-0.247872	-0.008884	-0.740967	0.104980	-0.394775	0.602767	-0.142724	-0.760941	-0.193055
24282		10.147785	1.849123	-1.473843	0.034434	-0.238113	0.031652	-0.741455	0.109375	-0.398193	0.600683	-0.143523	-0.762700	-0.192016
24283		9.985715	1.563946	-1.957682	-0.041768	-0.247108	0.092741	-0.740723	0.106934	-0.392822	0.598517	-0.145498	-0.764224	-0.191229
24284		9.655783	1.261193	-3.293604	-0.019260	-0.131254	0.092809	-0.730713	0.109619	-0.391602	0.597494	-0.147027	-0.764929	-0.190438
24285		9.349420	1.117307	-2.725933	-0.010943	-0.064554	0.062236	-0.736328	0.109619	-0.388428	0.597049	-0.148041	-0.765211	-0.189916
24286		9.701153	0.859945	-1.851486	-0.025798	-0.060013	0.038528	-0.732422	0.112305	-0.390137	0.596562	-0.148929	-0.765467	-0.189720
24287		9.630780	0.880299	-2.272664	0.082016	-0.019682	0.004483	-0.739502	0.113525	-0.390137	0.596581	-0.148590	-0.765741	-0.188820
24288		9.567794	1.151885	-2.220677	0.085197	0.013062	0.007606	-0.743164	0.115479	-0.388428	0.596926	-0.148180	-0.765771	-0.187926
24289		9.501778	0.955225	-2.424143	0.078620	0.047245	-0.007314	-0.741455	0.111816	-0.386475	0.597550	-0.147596	-0.765558	-0.187270
24290		9.350098	1.183587	-2.032530	0.073788	0.094151	-0.009816	-0.738281	0.110107	-0.390869	0.598608	-0.146914	-0.764987	-0.186764
24291		9.549530	1.126647	-2.287017	-0.025615	0.092415	0.012220	-0.736328	0.107910	-0.388672	0.599516	-0.147190	-0.764154	-0.187040
24292		9.460403	0.709661	-2.451880	-0.003661	0.109104	-0.020279	-0.738281	0.114746	-0.392578	0.600547	-0.146951	-0.763307	-0.187380
24293		9.657894	0.937172	-1.853900	-0.030017	0.108605	-0.058810	-0.739258	0.110107	-0.404541	0.601433	-0.146543	-0.762471	-0.188258
24294		9.488591	1.126577	-2.342809	-0.125432	0.106531	-0.069259	-0.731934	0.113281	-0.405273	0.602098	-0.146757	-0.761443	-0.190118
24295		9.304935	1.148406	-2.163590	-0.111869	0.112922	-0.073852	-0.737793	0.110596	-0.408447	0.602834	-0.146809	-0.760404	-0.191895
24296		9.483991	0.966186	-2.131588	-0.121089	0.117629	-0.081602	-0.738770	0.113770	-0.411377	0.603577	-0.146845	-0.759318	-0.193825
24297		9.398417	0.912900	-1.792705	-0.062626	0.123467	-0.099781	-0.737305	0.107666	-0.395264	0.604435	-0.146252	-0.758359	-0.195346
24298		9.819966	1.582965	-1.700344	-0.009761	0.131974	-0.059462	-0.741211	0.111816	-0.409912	0.605567	-0.145620	-0.757389	-0.196075
24299		9.727433	1.565343	-2.256422	-0.061239	0.156594	0.004538	-0.740234	0.102783	-0.410156	0.606993	-0.145923	-0.755986	-0.196853
24300		9.632074	1.229823	-2.269084	-0.009899	0.221357	0.017448	-0.734131	0.111084	-0.422363	0.609151	-0.145799	-0.754190	-0.197166
24301		9.719228	1.124075	-1.780353	0.021165	0.271252	0.020398	-0.726562	0.103760	-0.417969	0.611838	-0.145341	-0.752078	-0.197252
24302		10.018641	1.577601	-1.464796	-0.031896	0.248975	0.010874	-0.725098	0.109131	-0.424316	0.614189	-0.145253	-0.750015	-0.197866
24303		10.504737	0.866566	-1.629702	0.008101	0.244962	-0.056861	-0.732422	0.110840	-0.429443	0.616401	-0.144231	-0.748197	-0.198618
24304		10.697781	1.257620	-1.659607	0.202115	0.299330	-0.168716	-0.722656	0.108398	-0.439697	0.619183	-0.140531	-0.746631	-0.198510
24305		10.823806	2.010199	-1.744291	0.151623	0.301114	-0.179069	-0.718506	0.095703	-0.446289	0.621853	-0.137117	-0.744926	-0.198953
24306		11.673126	1.591305	-2.179218	0.369736	0.423020	-0.238163	-0.712891	0.084961	-0.445801	0.625861	-0.131150	-0.742888	-0.198027
24307		12.380891	3.338190	-1.457629	0.604429	0.808421	-0.297428	-0.715088	0.070557	-0.463623	0.633614	-0.121827	-0.738430	-0.195994
24308		12.346986	3.897067	0.414056	0.422806	0.715259	-0.274363	-0.709717	0.059326	-0.474365	0.640193	-0.114367	-0.734121	-0.195291
24309		11.218939	3.360956	-0.338648	0.399073	0.595840	-0.221519	-0.714355	0.047363	-0.469482	0.645706	-0.107865	-0.730557	-0.194203
24310		10.681382	4.838947	-0.883840	0.272809	0.632907	-0.192435	-0.708496	0.038086	-0.482910	0.651404	-0.102549	-0.726286	-0.194074
24311		10.491352	3.727848	-1.195797	-0.117594	0.436538	-0.105074	-0.715088	0.035889	-0.482666	0.654990	-0.101679	-0.722513	-0.196529
24312		9.593044	2.656660	-1.807854	-0.445713	0.235952	-0.061862	-0.710693	0.033691	-0.479980	0.656428	-0.104375	-0.719494	-0.201337
24313		9.179652	2.165528	-2.010324	-0.522817	0.148646	-0.090951	-0.719727	0.043945	-0.475098	0.656876	-0.107657	-0.717003	-0.206957
24314		9.300314	1.409896	-1.774860	-0.380578	0.045473	-0.187714	-0.724121	0.051270	-0.476562	0.656313	-0.109165	-0.715831	-0.211949
24315		9.163323	-0.355912	-1.677874	-0.155148	0.007524	-0.175316	-0.727295	0.039551	-0.465332	0.655738	-0.109033	-0.715538	-0.214765
24316		9.238722	-1.497171	-1.806334	0.211549	0.043281	-0.147434	-0.732422	0.037109	-0.465332	0.656053	-0.106046	-0.715895	-0.214109
24317		9.238767	-0.643988	-1.807642	0.422540	0.052112	-0.178050	-0.736084	0.027588	-0.462646	0.656633	-0.101025	-0.716773	-0.211810
24318		9.295364	0.035211	-0.940652	0.398140	-0.058246	-0.265301	-0.744873	0.012695	-0.458740	0.655942	-0.095709	-0.718581	-0.210289
24319		9.407953	0.162462	-0.716613	0.399582	-0.077041	-0.252116	-0.745117	0.006592	-0.459473	0.655097	-0.090545	-0.720508	-0.208610
24320		9.569035	0.447434	-0.654312	0.306857	-0.081807	-0.127403	-0.751465	-0.003174	-0.458496	0.654413	-0.087272	-0.722073	-0.206729
24321		9.359502	0.414554	-0.771421	0.189615	-0.087191	-0.021454	-0.761475	-0.009277	-0.451660	0.653821	-0.085926	-0.723256	-0.205025
24322		9.418450	-0.233542	-0.395038	0.401180	-0.086355	-0.096597	-0.758301	-0.019775	-0.454346	0.653261	-0.082167	-0.725044	-0.202015
24323		9.437092	0.442255	-0.179136	0.709330	-0.028589	-0.186888	-0.769043	-0.027344	-0.446289	0.653279	-0.074922	-0.727192	-0.196991
24324		9.514299	1.032464	-0.126071	0.660882	-0.026263	-0.117652	-0.760986	-0.036621	-0.440674	0.653395	-0.068690	-0.729081	-0.191825
24325		9.575078	1.867050	0.107458	0.372780	-0.038946	0.074588	-0.763428	-0.046387	-0.438477	0.653581	-0.066590	-0.730185	-0.187693
24326		9.119997	2.670115	0.359844	0.019166	-0.076099	0.147449	-0.772705	-0.041748	-0.440918	0.653295	-0.068130	-0.730690	-0.186160
24327		9.089663	2.309543	0.304377	-0.135491	-0.115869	0.069719	-0.768311	-0.032715	-0.432129	0.652330	-0.070317	-0.731221	-0.186645
24328		9.271267	1.770004	-0.202166	-0.239945	-0.144986	0.073181	-0.778564	-0.031250	-0.430908	0.651009	-0.073455	-0.731735	-0.188033
24329		8.781367	2.168116	-0.646434	-0.343657	-0.185678	0.092925	-0.781982	-0.032227	-0.435303	0.649254	-0.077713	-0.732302	-0.190169
24330		8.333299	0.850021	-0.534063	-0.356708	-0.238528	0.105810	-0.783203	-0.034668	-0.418701	0.647013	-0.082318	-0.733234	-0.192265
24331		7.982392	1.833950	0.215220	-0.063998	-0.163896	-0.078006	-0.796387	-0.019043	-0.416992	0.645305	-0.082690	-0.734441	-0.193237
24332		7.910228	2.245929	0.023309	-0.063152	-0.148743	-0.185673	-0.795166	-0.020020	-0.415283	0.643473	-0.082031	-0.735632	-0.195086
24333		8.384783	1.993899	0.008694	-0.265913	-0.122805	-0.076295	-0.797852	-0.025146	-0.414795	0.641930	-0.083945	-0.735999	-0.197948
24334		8.055515	1.333309	-0.311069	-0.365202	-0.112286	0.021026	-0.791992	-0.022705	-0.406494	0.640609	-0.087524	-0.735919	-0.200953
24335		8.578621	1.366358	-0.896861	-0.287082	-0.146898	0.049344	-0.792480	-0.022217	-0.411621	0.639114	-0.090823	-0.736266	-0.202970
24336		9.126059	2.264162	-1.030062	-0.352179	-0.087701	-0.035846	-0.794678	-0.017334	-0.410645	0.637861	-0.093707	-0.736058	-0.206330
24337		9.423745	1.377936	-1.454612	-0.409211	-0.121729	-0.046066	-0.800781	-0.007080	-0.401367	0.636185	-0.097037	-0.735966	-0.210252
24338		9.753303	1.693437	-1.516073	-0.344059	-0.120596	-0.041632	-0.797852	-0.011719	-0.403809	0.634594	-0.099883	-0.736014	-0.213534
24339		9.491274	1.687727	-1.344251	-0.195642	-0.113727	-0.072910	-0.795898	-0.005859	-0.401855	0.633158	-0.101245	-0.736432	-0.215703
24340		9.562492	1.704340	-1.224256	-0.035114	-0.084277	-0.096067	-0.802002	-0.004639	-0.397461	0.632131	-0.101042	-0.737076	-0.216612
24341		9.567779	1.790440	-1.204193	0.179974	-0.037213	-0.122342	-0.796387	-0.019775	-0.402588	0.631735	-0.098769	-0.737959	-0.215805
24342		9.755324	1.940207	-1.109294	0.416806	-0.007321	-0.162463	-0.801025	-0.024902	-0.405273	0.631787	-0.094174	-0.739282	-0.213162
24343		9.706499	2.400260	-0.788065	0.538246	0.032144	-0.195760	-0.788330	-0.038574	-0.403320	0.632233	-0.088203	-0.740627	-0.209698
24344		9.756526	2.756663	-0.174768	0.363554	0.023021	-0.177900	-0.797119	-0.045166	-0.398438	0.632425	-0.083799	-0.741538	-0.207695
24345		9.650064	2.182510	-0.375856	0.162243	0.026849	-0.126894	-0.802246	-0.038574	-0.399414	0.632565	-0.081449	-0.741831	-0.207159
24346		9.344840	1.964408	-0.532944	0.094270	0.040599	-0.110406	-0.795654	-0.046631	-0.402100	0.632804	-0.079754	-0.741817	-0.207138
24347		9.231275	1.929309	-0.698765	0.050354	0.042329	-0.094074	-0.798828	-0.049316	-0.399414	0.633055	-0.078554	-0.741658	-0.207396
24348		8.954211	1.661007	-0.990986	0.070208	0.046740	-0.091124	-0.798096	-0.049561	-0.405273	0.633374	-0.077213	-0.741511	-0.207452
24349		8.492870	1.366239	-0.871925	0.218186	0.063009	-0.108641	-0.795654	-0.050781	-0.405518	0.633938	-0.074495	-0.741632	-0.206289
24350		8.555209	1.933560	-0.454084	0.299478	0.076746	-0.093095	-0.795410	-0.059814	-0.405518	0.634738	-0.071240	-0.741830	-0.204257
24351		8.991123	2.251669	-0.481818	0.153971	0.080911	-0.051825	-0.786377	-0.052490	-0.415039	0.635546	-0.069512	-0.741579	-0.203250
24352		8.828426	2.091853	-0.744397	0.067317	0.039400	-0.089643	-0.794922	-0.068848	-0.413086	0.635796	-0.068227	-0.741467	-0.203311
24353		8.673358	2.037010	-0.234879	0.085543	-0.005896	-0.144631	-0.791016	-0.064941	-0.412109	0.635500	-0.066402	-0.741806	-0.203603
24354		8.791849	2.281353	0.292572	-0.034563	0.004820	-0.073034	-0.791504	-0.070557	-0.417236	0.635385	-0.066169	-0.741693	-0.204449
24355		8.693793	2.107884	0.361350	-0.171836	0.034661	0.015998	-0.785889	-0.055664	-0.418945	0.635659	-0.067776	-0.740914	-0.205887
24356		8.741678	1.963661	0.216733	-0.276890	0.057510	0.062729	-0.782471	-0.058105	-0.412354	0.636171	-0.070593	-0.739636	-0.207946
24357		9.221312	2.095469	-0.161153	-0.360235	0.088242	0.085539	-0.777832	-0.042480	-0.422363	0.636942	-0.074202	-0.737861	-0.210619
24358		9.602678	1.741119	-0.773026	-0.375154	0.124015	0.123674	-0.782471	-0.042969	-0.420898	0.638112	-0.078186	-0.735707	-0.213155
24359		9.328498	1.766783	-0.972888	-0.284696	0.125262	0.166353	-0.774658	-0.032715	-0.430664	0.639481	-0.081836	-0.733724	-0.214513
24360		8.924621	1.942753	-0.675521	-0.225033	0.102578	0.163934	-0.767578	-0.027344	-0.436279	0.640686	-0.085046	-0.732071	-0.215315
24361		9.457381	2.099760	-0.651626	-0.279005	0.105735	0.132321	-0.767090	-0.013916	-0.441162	0.641766	-0.088389	-0.730270	-0.216864
24362		9.969673	1.905035	-1.372901	-0.253370	0.145731	0.076492	-0.760254	-0.013184	-0.447998	0.643077	-0.090907	-0.728266	-0.218668
24363		9.241653	1.812476	-1.378156	-0.203985	0.071721	0.066708	-0.759766	-0.009033	-0.450439	0.643736	-0.093139	-0.726996	-0.220013
24364		8.802377	1.954500	-0.798687	-0.216250	0.009238	0.027300	-0.760010	-0.006348	-0.449463	0.643699	-0.095283	-0.726235	-0.221710
24365		10.494694	1.389292	-1.695467	-0.035462	0.083896	-0.109801	-0.750244	-0.000732	-0.450195	0.644171	-0.094519	-0.725534	-0.222958
24366		11.511996	1.800628	-2.911813	0.273556	0.153216	-0.192447	-0.755127	-0.007568	-0.460449	0.645400	-0.090324	-0.725226	-0.222145
24367		11.017426	1.810199	-2.569045	0.375321	0.032486	-0.104562	-0.744873	-0.010498	-0.461182	0.645878	-0.086435	-0.726062	-0.219554
24368		9.702981	1.810259	-1.413047	0.474199	-0.030102	-0.042557	-0.747314	-0.016602	-0.469482	0.646046	-0.082480	-0.727589	-0.215488
24369		9.285808	2.088169	-0.025871	0.446173	-0.059322	-0.139468	-0.740723	-0.021973	-0.463867	0.645637	-0.077945	-0.729353	-0.212421
24370		10.625334	2.449885	-0.026429	0.233301	0.010664	-0.193250	-0.739258	-0.024170	-0.469482	0.645500	-0.074450	-0.730021	-0.211793
24371		10.675573	1.951981	-1.100587	-0.041101	0.025347	-0.025648	-0.737549	-0.027588	-0.474609	0.645682	-0.074660	-0.729682	-0.212331
24372		9.524168	1.386621	-1.917267	0.054033	0.007123	0.120245	-0.747803	-0.019531	-0.470947	0.646173	-0.075479	-0.729607	-0.210802
24373		8.661863	1.700345	-1.504345	0.312084	-0.034144	0.097830	-0.735107	-0.032471	-0.473145	0.646464	-0.074116	-0.730560	-0.207056
24374		9.258838	2.464959	-0.960983	0.332627	-0.078062	0.001877	-0.735840	-0.021729	-0.479004	0.646114	-0.071822	-0.731999	-0.203852
24375		9.700718	2.798032	-1.083014	0.110682	-0.102496	-0.021852	-0.733398	-0.031006	-0.470215	0.645274	-0.071166	-0.733083	-0.202848
24376		9.152181	2.041652	-1.432239	-0.010675	-0.174540	0.039878	-0.738037	-0.026855	-0.471680	0.643818	-0.072236	-0.734382	-0.202395
24377		8.764531	1.507038	-0.964953	0.126582	-0.194140	0.071725	-0.743164	-0.027344	-0.476562	0.642381	-0.072544	-0.736153	-0.200407
24378		9.255707	2.129012	-0.462077	0.243872	-0.136867	0.035425	-0.741455	-0.025146	-0.477783	0.641481	-0.071430	-0.737783	-0.197679
24379		9.227341	2.129203	-0.589139	0.133247	-0.124188	0.059746	-0.745117	-0.023926	-0.472656	0.640653	-0.071397	-0.739009	-0.195788
24380		9.064152	1.628055	-0.775993	0.137763	-0.098273	0.109683	-0.737793	-0.030518	-0.479980	0.640186	-0.071726	-0.739989	-0.193478
24381		9.264310	2.638133	-0.598662	0.164872	-0.040707	0.115363	-0.742920	-0.021973	-0.471924	0.640286	-0.071750	-0.740563	-0.190922
24382		9.671029	7.028915	0.517971	0.165515	0.006015	-0.186861	-0.734619	-0.025391	-0.479980	0.640093	-0.068860	-0.741030	-0.190823
24383		11.983062	4.169376	-0.126758	-0.023858	-0.071439	-0.164142	-0.737061	-0.015869	-0.478516	0.639067	-0.067885	-0.741638	-0.192247
24384		13.144779	2.148820	-1.979943	-0.094925	-0.136759	0.129845	-0.740967	-0.023682	-0.485352	0.638077	-0.070363	-0.742340	-0.191932
24385		11.860837	0.765623	-2.232039	0.028833	-0.131213	0.302679	-0.736816	-0.016602	-0.485352	0.637654	-0.073441	-0.743135	-0.189090
24386		9.962169	0.001548	-1.530403	-0.015670	-0.123693	0.220032	-0.743896	0.000488	-0.475586	0.637056	-0.076087	-0.743830	-0.187317
24387		9.969841	0.270765	-1.482907	-0.238159	-0.169118	0.108978	-0.736572	-0.001465	-0.475586	0.635556	-0.079574	-0.744463	-0.188445
24388		9.988511	0.869115	-1.459866	-0.147806	-0.114198	-0.033757	-0.742188	-0.006104	-0.475098	0.634315	-0.080885	-0.745007	-0.189914
24389		9.430327	1.703771	-0.655793	-0.053920	-0.100077	-0.084801	-0.744385	0.001709	-0.475098	0.633177	-0.080940	-0.745711	-0.190922
24390		8.880550	1.886881	-0.816157	0.115073	-0.065373	-0.139050	-0.754395	-0.008789	-0.468018	0.632402	-0.079070	-0.746595	-0.190820
24391		8.954460	2.751650	-1.007490	0.170705	-0.071065	-0.116487	-0.748291	-0.010254	-0.466064	0.631679	-0.076984	-0.747629	-0.190015
24392		9.038364	3.058466	-1.364034	-0.036086	-0.126275	-0.027290	-0.745850	-0.003662	-0.463623	0.630449	-0.077496	-0.748519	-0.190387
24393		9.321760	2.454563	-1.753712	-0.131060	-0.140068	0.078387	-0.749268	-0.005615	-0.464111	0.629246	-0.079778	-0.749185	-0.190805
24394		9.836282	2.305538	-1.494714	-0.117530	-0.113292	0.121944	-0.747803	0.009766	-0.459961	0.628406	-0.082298	-0.749624	-0.190781
24395		9.905471	1.837947	-1.727666	-0.170026	-0.090875	0.162111	-0.757080	0.004395	-0.455811	0.627811	-0.085553	-0.749713	-0.190955
24396		9.918253	1.279295	-1.924981	-0.144502	-0.045631	0.160124	-0.754639	0.018799	-0.451172	0.627657	-0.088480	-0.749504	-0.190952
24397		9.802917	1.187308	-1.439186	-0.134797	-0.013272	0.119434	-0.752930	0.019043	-0.458984	0.627715	-0.090871	-0.749103	-0.191209
24398		9.852110	1.042391	-1.460148	-0.083208	0.017589	0.065186	-0.744873	0.027588	-0.455078	0.627988	-0.092274	-0.748643	-0.191441
24399		9.602726	1.388541	-1.550730	0.016031	0.074084	0.006816	-0.749268	0.020508	-0.459473	0.628765	-0.092216	-0.748043	-0.191265
24400		9.779693	1.145875	-1.429122	0.158365	0.175948	-0.039357	-0.742188	0.017090	-0.455566	0.630544	-0.090363	-0.747033	-0.190236
24401		9.811748	1.808344	-1.272445	0.234351	0.215625	-0.046933	-0.747803	0.011230	-0.468262	0.632755	-0.087745	-0.745891	-0.188599
24402		9.828343	1.330527	-1.426380	0.267442	0.259011	-0.087646	-0.744141	0.003662	-0.471680	0.635298	-0.084382	-0.744514	-0.187019
24403		9.960733	1.051915	-1.857326	0.311596	0.275000	-0.091047	-0.743896	0.005615	-0.473877	0.638013	-0.080596	-0.743098	-0.185065
24404		10.279941	1.280964	-1.463212	0.344329	0.306260	-0.109521	-0.747314	-0.005127	-0.472900	0.640989	-0.076302	-0.741505	-0.182978
24405		10.407679	1.403969	-1.240751	0.279616	0.300746	-0.105967	-0.745117	-0.006592	-0.491455	0.643840	-0.072569	-0.739783	-0.181450
24406		10.506525	1.639337	-1.291825	0.273805	0.312758	-0.100659	-0.740234	-0.016602	-0.487061	0.646792	-0.068902	-0.737926	-0.179936
24407		10.511872	2.336361	-1.006295	0.130359	0.263500	-0.040518	-0.730469	-0.021484	-0.500244	0.649288	-0.067059	-0.736078	-0.179213
24408		10.724195	2.506440	-1.339253	-0.024121	0.182190	0.049656	-0.729248	-0.020752	-0.494873	0.651102	-0.067481	-0.734460	-0.179111
24409		10.769686	2.712530	-1.303748	-0.115887	0.115797	0.134481	-0.734375	-0.023193	-0.496094	0.652413	-0.069578	-0.733101	-0.179105
24410		10.938906	2.110064	-2.373419	-0.065072	-0.013681	0.167392	-0.731201	-0.015625	-0.497314	0.652651	-0.071851	-0.732878	-0.178252
24411		10.859367	2.864692	-1.129888	-0.032374	0.065351	0.147613	-0.733887	-0.015625	-0.494629	0.653593	-0.073499	-0.732098	-0.177332
24412		10.986012	2.774594	-0.726832	-0.127992	-0.065918	0.124237	-0.742920	-0.010742	-0.489014	0.653190	-0.076005	-0.732196	-0.177358
24413		11.175427	3.035031	-0.300761	-0.154171	-0.025338	0.078872	-0.741455	-0.006104	-0.481689	0.653028	-0.078220	-0.731943	-0.178034
24414		11.076502	2.818940	-0.469805	-0.220807	-0.054628	0.022470	-0.747803	-0.015137	-0.484619	0.652402	-0.080529	-0.731830	-0.179754
24415		10.833658	2.681013	-0.313099	-0.174605	-0.051357	-0.037983	-0.746338	-0.007080	-0.472168	0.651713	-0.081897	-0.731849	-0.181548
24416		10.692415	2.680790	-0.054833	-0.239715	-0.051068	-0.026306	-0.746582	-0.005859	-0.475098	0.650981	-0.083906	-0.731699	-0.183848
24417		10.454826	2.538477	-0.026241	-0.310353	-0.036537	-0.018909	-0.755127	-0.008545	-0.462402	0.650316	-0.086524	-0.731250	-0.186751
24418		10.219882	2.375196	-0.119489	-0.328091	-0.025198	-0.048585	-0.759033	-0.002441	-0.454102	0.649656	-0.088988	-0.730686	-0.190070
24419		9.885008	2.277360	-0.183330	-0.373796	-0.017078	-0.070004	-0.761719	-0.000488	-0.447510	0.648955	-0.091609	-0.729954	-0.193990
24420		9.397511	2.143759	-0.275501	-0.462249	-0.021392	-0.041535	-0.773682	0.000000	-0.452148	0.648164	-0.095215	-0.728989	-0.198477
24421		9.075604	1.941795	-0.414428	-0.545621	-0.028660	-0.023356	-0.770264	0.006104	-0.437500	0.647225	-0.099677	-0.727823	-0.203562
24422		8.708228	1.410901	-0.687499	-0.527601	-0.023496	-0.064590	-0.773438	0.005859	-0.441650	0.646221	-0.103601	-0.726678	-0.208816
24423		8.634509	1.221316	-0.518236	-0.358563	-0.007058	-0.129976	-0.767822	0.012207	-0.434082	0.645393	-0.105519	-0.725901	-0.213075
24424		8.683160	1.190097	-0.319968	-0.211436	0.042170	-0.167479	-0.772461	0.012451	-0.430908	0.645095	-0.105777	-0.725156	-0.216363
24425		8.609107	1.168665	-0.112394	-0.094089	0.085044	-0.191039	-0.774170	0.002441	-0.426514	0.645271	-0.104758	-0.724406	-0.218830
24426		8.606461	1.581767	0.227621	-0.119925	0.119406	-0.168905	-0.778564	0.003174	-0.427490	0.645780	-0.104053	-0.723274	-0.221395
24427		8.516051	1.574408	-0.024052	-0.319660	0.130172	-0.104288	-0.787598	0.001709	-0.429443	0.646297	-0.105513	-0.721406	-0.225257
24428		8.438119	1.349098	-0.737112	-0.432531	0.115522	-0.048683	-0.777588	0.007080	-0.428223	0.646672	-0.108426	-0.719246	-0.229661
24429		8.204917	1.058387	-1.052373	-0.401322	0.095138	-0.042526	-0.773438	0.017090	-0.428223	0.646905	-0.111196	-0.717310	-0.233700
24430		8.193904	0.992732	-1.052860	-0.303133	0.080271	-0.098155	-0.771240	0.013916	-0.435791	0.646964	-0.112714	-0.715843	-0.237279
24431		8.424047	0.816498	-0.903114	-0.187995	0.079311	-0.134093	-0.774414	0.014404	-0.426514	0.647061	-0.112980	-0.714768	-0.240112
24432		8.594410	0.777880	-0.944306	-0.048386	0.103263	-0.128175	-0.774902	0.011719	-0.427002	0.647584	-0.112095	-0.713906	-0.241678
24433		8.538869	0.776628	-0.830293	0.044305	0.113370	-0.101713	-0.765137	0.004150	-0.439209	0.648404	-0.110665	-0.713203	-0.242212
24434		8.625519	1.038780	-0.807112	0.054443	0.110088	-0.070377	-0.764648	-0.000488	-0.431641	0.649302	-0.109440	-0.712513	-0.242393
24435		8.884113	1.077865	-0.733313	0.022475	0.079360	-0.043500	-0.760986	0.017578	-0.437012	0.649964	-0.108807	-0.711938	-0.242595
24436		9.265379	1.113596	-0.944001	-0.038862	0.057989	-0.018945	-0.767578	0.012695	-0.431885	0.650426	-0.108954	-0.711317	-0.243111
24437		9.425853	0.933815	-1.218245	0.029281	0.043356	-0.018340	-0.766357	0.013184	-0.433105	0.650852	-0.108596	-0.711022	-0.242993
24438		9.643665	0.985628	-1.296002	0.205134	0.044835	-0.065725	-0.773438	0.003662	-0.443604	0.651384	-0.106380	-0.711313	-0.241695
24439		9.502262	1.254722	-0.877798	0.349277	0.037488	-0.085686	-0.770020	-0.002197	-0.438477	0.651974	-0.102832	-0.712117	-0.239260
24440		9.503301	1.661565	-0.385770	0.358674	0.028494	-0.047076	-0.764893	-0.001953	-0.434814	0.652599	-0.099576	-0.712959	-0.236408
24441		9.622198	1.843313	-0.267562	0.275723	0.019512	0.033358	-0.760742	-0.013916	-0.443115	0.653268	-0.097738	-0.713518	-0.233623
24442		9.651765	1.777912	-0.498972	0.273171	0.016618	0.050645	-0.765137	-0.010498	-0.451172	0.653951	-0.096082	-0.714064	-0.230713
24443		9.597862	1.959950	-0.450575	0.332510	0.022702	-0.003043	-0.760986	-0.012695	-0.447754	0.654596	-0.093442	-0.714786	-0.227716
24444		9.734256	2.274116	-0.314353	0.264359	-0.003054	0.006626	-0.761719	-0.021484	-0.441406	0.654949	-0.091519	-0.715503	-0.225215
24445		9.757971	2.307061	-0.235513	0.100752	-0.025137	0.070397	-0.767334	-0.020752	-0.436768	0.655092	-0.091567	-0.715863	-0.223629
24446		9.620113	2.129699	-0.397089	-0.062205	-0.065388	0.131119	-0.763672	-0.015381	-0.441650	0.654857	-0.093606	-0.716024	-0.222959
24447		9.441688	1.961551	-0.527964	-0.087234	-0.073300	0.117860	-0.767822	-0.012695	-0.441895	0.654480	-0.095753	-0.716192	-0.222612
24448		9.469700	1.896393	-0.549985	-0.032153	-0.076439	0.094850	-0.772949	-0.007568	-0.445068	0.654075	-0.097251	-0.716564	-0.221955
24449		9.560397	2.004047	-0.355038	0.005501	-0.069272	0.090633	-0.776611	0.003906	-0.439453	0.653766	-0.098383	-0.716985	-0.221003
24450		9.488944	1.988258	-0.427810	0.007259	-0.055392	0.076757	-0.773926	0.002197	-0.434814	0.653544	-0.099338	-0.717313	-0.220167
24451		9.443997	2.005119	-0.419021	0.032007	-0.047692	0.063460	-0.775146	-0.007080	-0.431641	0.653384	-0.099951	-0.717662	-0.219227
24452		9.519544	2.011793	-0.475273	0.011405	-0.046865	0.061960	-0.769531	-0.001709	-0.430908	0.653201	-0.100716	-0.717948	-0.218486
24453		9.442389	1.914130	-0.595355	0.028914	-0.047625	0.033407	-0.771973	-0.003418	-0.433105	0.652954	-0.101085	-0.718323	-0.217820
24454		9.308828	1.713496	-0.730675	0.092542	-0.042526	-0.019526	-0.773438	-0.002930	-0.438232	0.652688	-0.100444	-0.718896	-0.217022
24455		9.377737	1.742068	-0.676089	0.151635	-0.044189	-0.042921	-0.772217	-0.008057	-0.430420	0.652416	-0.099115	-0.719671	-0.215880
24456		9.329612	1.883959	-0.471920	0.123391	-0.054575	-0.034419	-0.779541	-0.010986	-0.426758	0.652036	-0.098121	-0.720441	-0.214910
24457		9.054528	1.953615	-0.351781	-0.000822	-0.071938	-0.002277	-0.773926	-0.004395	-0.430664	0.651433	-0.098475	-0.720978	-0.214775
24458		8.762085	1.873303	-0.476908	-0.139368	-0.108840	0.027758	-0.773193	-0.006348	-0.428223	0.650405	-0.100327	-0.721405	-0.215599
24459		8.642480	1.603858	-0.439562	-0.195606	-0.136276	0.039437	-0.777588	0.000977	-0.426270	0.649086	-0.102815	-0.721883	-0.216800
24460		8.755845	1.430580	-0.377411	-0.148513	-0.110800	0.016298	-0.774414	0.002930	-0.429199	0.647989	-0.104643	-0.722305	-0.217795
24461		9.029086	1.455928	-0.514633	-0.069855	-0.082251	-0.007701	-0.779785	0.002930	-0.433838	0.647186	-0.105538	-0.722739	-0.218311
24462		9.312979	1.587567	-0.626886	-0.015714	-0.071570	-0.006400	-0.779053	0.001953	-0.425781	0.646553	-0.105978	-0.723232	-0.218341
24463		9.066838	1.580981	-0.173755	-0.015506	-0.089366	-0.002864	-0.783691	0.007812	-0.427002	0.645769	-0.106497	-0.723864	-0.218316
24464		8.748718	1.687906	0.440877	-0.100826	-0.071167	0.018983	-0.776855	0.003662	-0.430176	0.645094	-0.107853	-0.724085	-0.218911
24465		9.068466	1.527884	0.311831	-0.207946	-0.027887	0.032092	-0.773193	0.010986	-0.434814	0.644700	-0.110073	-0.723641	-0.220429
24466		9.609408	1.303391	-0.462804	-0.193012	0.023797	0.028030	-0.778076	0.019287	-0.437500	0.644779	-0.111993	-0.722821	-0.221916
24467		9.118258	1.295869	-0.617623	-0.089262	0.009776	0.034055	-0.778809	0.022217	-0.435547	0.644891	-0.113171	-0.722391	-0.222396
24468		8.696101	1.455924	0.034264	-0.078594	-0.002272	0.041175	-0.776123	0.027344	-0.433838	0.644927	-0.114360	-0.722076	-0.222703
24469		9.584855	1.579551	-0.467062	-0.108999	0.045023	0.022802	-0.770264	0.031494	-0.435059	0.645295	-0.115498	-0.721319	-0.223502
24470		10.114451	0.968561	-1.435719	0.080586	0.076822	-0.066591	-0.765381	0.030762	-0.442871	0.645973	-0.114212	-0.720962	-0.223359
24471		9.984165	1.059126	-1.618068	0.412130	0.096084	-0.133918	-0.764404	0.014893	-0.444580	0.647099	-0.109588	-0.721459	-0.220794
24472		9.806853	1.452248	-1.242423	0.545709	0.082498	-0.079127	-0.755127	0.015381	-0.450439	0.648413	-0.104403	-0.722336	-0.216546
24473		9.666077	1.868209	-0.803348	0.509757	0.050410	-0.015635	-0.762451	0.000000	-0.446045	0.649534	-0.100172	-0.723257	-0.212063
24474		9.327918	2.009921	-0.104101	0.370104	0.000677	-0.019451	-0.759277	0.001953	-0.461182	0.650000	-0.097157	-0.724200	-0.208793
24475		9.476898	1.922217	0.389935	0.138281	-0.015124	-0.038784	-0.757568	0.012207	-0.454346	0.649985	-0.095902	-0.724675	-0.207771
24476		9.933664	1.543374	0.015163	-0.009675	0.017285	0.004178	-0.761963	0.002441	-0.452148	0.650193	-0.096166	-0.724448	-0.207789
24477		10.518304	1.136421	-0.699847	-0.003606	0.051654	0.089983	-0.755615	0.006592	-0.459229	0.650945	-0.097053	-0.723857	-0.207080
24478		10.319384	1.382878	-1.015291	0.088723	0.068736	0.152700	-0.750000	0.009521	-0.462158	0.652123	-0.097715	-0.723286	-0.205049
24479		9.857212	1.855086	-0.753565	0.082857	0.018955	0.157714	-0.748291	0.007812	-0.473145	0.652853	-0.098598	-0.723095	-0.202967
24480		9.851927	1.999266	-0.916350	-0.001170	-0.018603	0.120636	-0.744141	0.023193	-0.476562	0.653042	-0.099922	-0.723042	-0.201897
24481		10.078452	1.784466	-1.391877	0.032238	-0.031050	0.066340	-0.749756	0.020508	-0.478516	0.653022	-0.100514	-0.723242	-0.200951
24482		9.836499	1.969066	-1.237859	0.157051	-0.054531	0.021820	-0.742676	0.020264	-0.468018	0.652832	-0.099743	-0.724002	-0.199209
24483		9.796801	2.353689	-0.548818	0.109899	-0.102613	0.033624	-0.743652	0.015137	-0.472656	0.652174	-0.099582	-0.725019	-0.197737
24484		10.334853	2.337184	-0.878530	0.003025	-0.049859	0.059551	-0.750244	0.026611	-0.481201	0.651923	-0.100398	-0.725308	-0.197090
24485		10.142267	2.135566	-1.258091	0.092196	-0.057222	-0.008550	-0.744873	0.013428	-0.476562	0.651548	-0.099887	-0.725962	-0.196182
24486		9.858434	2.441741	-0.935011	0.145187	-0.076357	-0.066143	-0.739014	0.012939	-0.473877	0.650922	-0.098469	-0.726971	-0.195238
24487		9.980230	2.366662	-0.789790	0.093644	-0.102521	-0.093211	-0.745361	0.017090	-0.475830	0.649926	-0.097288	-0.728097	-0.194952
24488		10.131782	2.170448	-0.907850	0.098102	-0.090262	-0.149010	-0.739502	0.008789	-0.476318	0.648907	-0.095534	-0.729199	-0.195095
24489		9.635926	2.081834	-0.641417	0.102278	-0.113880	-0.184950	-0.738037	0.012207	-0.479492	0.647585	-0.093475	-0.730541	-0.195463
24490		9.421855	1.857346	-0.421135	0.072332	-0.094527	-0.164443	-0.742920	0.010742	-0.478027	0.646451	-0.091798	-0.731624	-0.195961
24491		9.418567	1.526186	-0.718793	0.098222	-0.055502	-0.130971	-0.747559	0.001221	-0.479736	0.645783	-0.090122	-0.732412	-0.195998
24492		9.260637	1.660683	-0.588845	0.094386	-0.061469	-0.094643	-0.739990	0.007812	-0.478027	0.645142	-0.088825	-0.733196	-0.195768
24493		9.301493	1.604764	-0.525801	-0.001991	-0.065057	-0.024613	-0.751221	0.004883	-0.475586	0.644532	-0.088955	-0.733694	-0.195853
24494		9.720923	1.556060	-1.136585	-0.002053	-0.042490	0.011703	-0.745117	0.004639	-0.478027	0.644218	-0.089364	-0.733968	-0.195672
24495		9.804969	1.547130	-1.412491	0.052848	-0.046832	0.034266	-0.744141	0.014160	-0.478760	0.643980	-0.089548	-0.734387	-0.194799
24496		9.628805	1.544136	-1.243462	0.093108	-0.055674	0.036319	-0.744873	0.007568	-0.478516	0.643710	-0.089447	-0.734972	-0.193529
24497		9.862971	2.612201	-1.075759	0.037561	-0.051537	-0.001642	-0.749512	0.014404	-0.478271	0.643323	-0.089435	-0.735431	-0.193078
24498		10.157063	3.417133	-0.658634	-0.055766	-0.071806	-0.112135	-0.734131	0.012451	-0.481201	0.642377	-0.089206	-0.735949	-0.194353
