// Start Time: Unknown
// Update Rate: 40.0Hz
// Filter Profile: human (46.1)
// Firmware Version: 4.6.0
PacketCounter	SampleTimeFine	Acc_X	Acc_Y	Acc_Z	Gyr_X	Gyr_Y	Gyr_Z	Mag_X	Mag_Y	Mag_Z	Quat_q0	Quat_q1	Quat_q2	Quat_q3
23593		9.382519	-0.400197	-2.560340	0.008772	0.004047	-0.008027	-0.716309	0.528564	0.280029	0.400774	-0.618709	-0.498742	-0.455890
23594		9.367636	-0.417000	-2.619481	0.009976	-0.007193	-0.006270	-0.719482	0.524658	0.276855	0.400771	-0.618661	-0.498884	-0.455803
23595		9.395738	-0.393818	-2.645205	0.018985	-0.009873	-0.005210	-0.710205	0.532227	0.265381	0.400859	-0.618557	-0.499082	-0.455649
23596		9.427421	-0.367159	-2.542895	0.000606	-0.002874	-0.000662	-0.715576	0.523438	0.282471	0.400840	-0.618568	-0.499107	-0.455624
23597		9.388663	-0.391614	-2.581593	0.004792	-0.004852	-0.003573	-0.715576	0.529541	0.279785	0.400790	-0.618577	-0.499190	-0.455566
23598		9.412902	-0.407653	-2.601317	0.007131	-0.003147	-0.007453	-0.716064	0.523682	0.282715	0.400781	-0.618510	-0.499306	-0.455535
23599		9.391532	-0.423138	-2.594542	0.003312	0.000324	-0.000514	-0.713379	0.527344	0.277100	0.400769	-0.618517	-0.499333	-0.455509
23600		9.348198	-0.429076	-2.604943	0.003476	-0.005518	-0.004931	-0.706299	0.522949	0.280273	0.400731	-0.618504	-0.499421	-0.455463
23601		9.363749	-0.461966	-2.636481	0.004272	-0.014006	-0.008569	-0.720215	0.525146	0.278564	0.400624	-0.618519	-0.499584	-0.455357
23602		9.417263	-0.474235	-2.587187	0.009368	-0.009426	-0.004828	-0.716797	0.524902	0.278809	0.400613	-0.618511	-0.499724	-0.455224
23603		9.388884	-0.425886	-2.537040	0.012364	-0.010528	-0.004192	-0.710938	0.526123	0.278564	0.400636	-0.618501	-0.499874	-0.455053
23604		9.390946	-0.430171	-2.597194	0.011141	-0.013418	-0.010483	-0.715088	0.525879	0.279053	0.400595	-0.618486	-0.500069	-0.454895
23605		9.424848	-0.411275	-2.645939	0.013430	-0.007861	-0.013444	-0.721191	0.522461	0.279785	0.400593	-0.618405	-0.500274	-0.454781
23606		9.393280	-0.424982	-2.588418	0.002403	-0.011346	-0.006382	-0.711670	0.528809	0.273438	0.400517	-0.618436	-0.500390	-0.454678
23607		9.330352	-0.456890	-2.585631	0.015110	-0.009632	-0.014169	-0.713379	0.519043	0.278564	0.400556	-0.618335	-0.500611	-0.454539
23608		9.356107	-0.482365	-2.600115	0.001375	-0.020253	-0.013349	-0.715576	0.528076	0.279297	0.400355	-0.618384	-0.500824	-0.454414
23609		9.450486	-0.446089	-2.616721	0.011828	-0.005403	-0.008409	-0.708496	0.522461	0.270752	0.400411	-0.618355	-0.500948	-0.454268
23610		9.454815	-0.370590	-2.596936	0.005955	0.003837	-0.007858	-0.711182	0.530518	0.273193	0.400491	-0.618263	-0.500999	-0.454266
23611		9.383641	-0.393809	-2.625901	-0.003523	-0.002191	-0.011011	-0.708008	0.525635	0.274414	0.400462	-0.618258	-0.501031	-0.454264
23612		9.340189	-0.431498	-2.661167	-0.001531	-0.002149	-0.015186	-0.718262	0.524170	0.285889	0.400387	-0.618214	-0.501127	-0.454283
23613		9.353709	-0.456899	-2.633395	0.008625	-0.001847	-0.016772	-0.716797	0.531250	0.273682	0.400338	-0.618149	-0.501305	-0.454218
23614		9.355815	-0.465379	-2.626266	0.007029	-0.004483	-0.010936	-0.709473	0.528564	0.272949	0.400377	-0.618118	-0.501406	-0.454115
23615		9.373838	-0.412189	-2.644392	0.007809	-0.004175	-0.010700	-0.715820	0.519287	0.281250	0.400415	-0.618083	-0.501515	-0.454009
23616		9.397564	-0.367081	-2.663249	-0.001563	-0.004560	-0.006578	-0.709229	0.534668	0.275635	0.400319	-0.618128	-0.501587	-0.453952
23617		9.374926	-0.361003	-2.615821	-0.004860	-0.003495	-0.011512	-0.712402	0.517578	0.280029	0.400269	-0.618180	-0.501613	-0.453897
23618		9.396395	-0.403153	-2.603352	-0.003260	-0.005580	-0.018859	-0.717041	0.520996	0.276611	0.400063	-0.618143	-0.501797	-0.453925
23619		9.409694	-0.462790	-2.601005	-0.000941	-0.001331	-0.011188	-0.717773	0.524658	0.281006	0.399988	-0.618106	-0.501888	-0.453942
23620		9.387806	-0.450950	-2.617901	0.008046	0.000489	-0.010080	-0.721191	0.527344	0.273682	0.400006	-0.618058	-0.501992	-0.453876
23621		9.372461	-0.372535	-2.650640	0.005419	-0.001243	-0.010492	-0.712646	0.523926	0.276123	0.400051	-0.617995	-0.502067	-0.453839
23622		9.367822	-0.384323	-2.669644	0.000887	-0.000535	-0.010157	-0.706055	0.526367	0.269287	0.400030	-0.617965	-0.502134	-0.453823
23623		9.388350	-0.407682	-2.614919	-0.001408	-0.000224	-0.012581	-0.706543	0.519775	0.282227	0.400042	-0.617912	-0.502184	-0.453831
23624		9.402346	-0.429622	-2.630314	-0.002429	-0.000482	-0.011936	-0.715576	0.523682	0.277588	0.399914	-0.617930	-0.502274	-0.453819
23625		9.369757	-0.425894	-2.643933	0.004356	-0.002741	-0.008133	-0.713135	0.523193	0.270264	0.399908	-0.617914	-0.502358	-0.453754
23626		9.418690	-0.427128	-2.613053	0.005894	0.003365	-0.010753	-0.714600	0.519043	0.272949	0.400000	-0.617789	-0.502429	-0.453763
23627		9.434421	-0.400000	-2.618856	-0.006875	0.002700	-0.015032	-0.706543	0.525391	0.280518	0.399913	-0.617704	-0.502491	-0.453888
23628		9.344522	-0.381148	-2.583137	-0.008356	-0.003321	-0.007228	-0.719482	0.521240	0.270264	0.399811	-0.617830	-0.502473	-0.453826
23629		9.318107	-0.417564	-2.643032	0.009472	0.009987	-0.014666	-0.715088	0.532715	0.273682	0.399945	-0.617584	-0.502576	-0.453930
23630		9.392070	-0.464150	-2.563786	-0.010280	-0.011178	-0.010082	-0.713867	0.530762	0.276123	0.399883	-0.617693	-0.502569	-0.453843
23631		9.421986	-0.385245	-2.623516	-0.007800	0.003764	-0.010917	-0.715332	0.518555	0.278076	0.399902	-0.617713	-0.502515	-0.453859
23632		9.415776	-0.349185	-2.645641	0.012629	0.006367	-0.011485	-0.713623	0.523682	0.282471	0.399960	-0.617564	-0.502646	-0.453865
23633		9.398344	-0.363746	-2.602120	0.002114	0.004142	-0.011626	-0.711670	0.518311	0.264648	0.399918	-0.617555	-0.502706	-0.453848
23634		9.377892	-0.409010	-2.640175	-0.004562	0.009102	-0.017422	-0.719482	0.526855	0.270996	0.399979	-0.617322	-0.502750	-0.454063
23635		9.360950	-0.419535	-2.617601	0.008591	0.008727	-0.020679	-0.717041	0.515381	0.283203	0.400118	-0.617081	-0.502865	-0.454141
23636		9.367727	-0.422524	-2.637577	0.012611	0.011084	-0.009979	-0.711670	0.526855	0.269287	0.400101	-0.616961	-0.502987	-0.454182
23637		9.338399	-0.356054	-2.656513	0.012499	0.003413	-0.010942	-0.718506	0.530518	0.282715	0.400332	-0.616825	-0.503055	-0.454088
23638		9.387888	-0.316566	-2.665399	0.005762	0.000789	-0.012514	-0.716553	0.510010	0.270996	0.400333	-0.616855	-0.503124	-0.453970
23639		9.391339	-0.350788	-2.632747	-0.000840	0.006071	-0.011683	-0.717773	0.521240	0.272461	0.400252	-0.616669	-0.503238	-0.454168
23640		9.380966	-0.357952	-2.606528	-0.002572	0.001639	-0.012196	-0.714355	0.520752	0.269287	0.400228	-0.616588	-0.503297	-0.454235
23641		9.383486	-0.400801	-2.623381	-0.004081	0.001491	-0.009783	-0.717773	0.524658	0.283936	0.400255	-0.616510	-0.503323	-0.454288
23642		9.405835	-0.373747	-2.580324	-0.003947	0.009016	-0.005078	-0.716797	0.517334	0.280029	0.400183	-0.616598	-0.503267	-0.454294
23643		9.384203	-0.329854	-2.548322	-0.006996	0.009621	-0.008603	-0.717285	0.518066	0.272217	0.400049	-0.616593	-0.503257	-0.454429
23644		9.396784	-0.373864	-2.616686	-0.016122	0.003439	-0.003710	-0.711426	0.532715	0.279053	0.399962	-0.616601	-0.503181	-0.454580
23645		9.388522	-0.393101	-2.583042	-0.011877	0.002321	-0.006047	-0.715332	0.522705	0.276855	0.399962	-0.616796	-0.503025	-0.454487
23646		9.388246	-0.394555	-2.539599	-0.011830	-0.001779	-0.008415	-0.719482	0.520752	0.283203	0.399838	-0.616879	-0.502994	-0.454518
23647		9.389440	-0.416232	-2.537320	-0.004741	0.002747	-0.005106	-0.707275	0.519287	0.274414	0.399696	-0.616957	-0.502986	-0.454546
23648		9.448520	-0.379473	-2.576642	-0.001368	0.004943	-0.008200	-0.713135	0.530273	0.286621	0.399729	-0.616952	-0.502969	-0.454543
23649		9.435337	-0.419488	-2.631919	-0.011436	0.006305	-0.005449	-0.716309	0.519531	0.271973	0.399625	-0.617197	-0.502800	-0.454489
23650		9.328795	-0.368258	-2.566777	-0.010111	-0.003686	-0.005394	-0.709717	0.520020	0.275879	0.399578	-0.617202	-0.502778	-0.454548
23651		9.363096	-0.383846	-2.638869	0.014800	-0.002198	-0.009156	-0.712158	0.521973	0.273926	0.399672	-0.617154	-0.502894	-0.454403
23652		9.410022	-0.435467	-2.461290	-0.005380	-0.016961	-0.005336	-0.719238	0.528320	0.272217	0.399583	-0.617286	-0.502930	-0.454260
23653		9.448686	-0.398620	-2.534377	0.000439	-0.000203	-0.006958	-0.716309	0.526123	0.275391	0.399727	-0.617247	-0.502890	-0.454232
23654		9.428567	-0.369537	-2.610204	0.011387	0.006038	-0.006207	-0.713623	0.529053	0.276611	0.399929	-0.617168	-0.502890	-0.454161
23655		9.386527	-0.365051	-2.592363	0.012182	-0.004322	-0.007273	-0.716797	0.518311	0.267090	0.400079	-0.617196	-0.502926	-0.453951
23656		9.375000	-0.382494	-2.616383	0.000747	0.001215	-0.008115	-0.708984	0.518066	0.276611	0.400184	-0.617025	-0.502962	-0.454050
23657		9.379677	-0.405075	-2.578173	0.002249	0.006320	-0.007576	-0.716064	0.527344	0.277344	0.400198	-0.617007	-0.502971	-0.454053
23658		9.373203	-0.406261	-2.603921	0.008328	0.000683	-0.009528	-0.717285	0.522461	0.270264	0.400295	-0.616993	-0.503007	-0.453946
23659		9.376988	-0.399848	-2.634145	0.009781	-0.001781	-0.004759	-0.718506	0.527588	0.278809	0.400463	-0.616886	-0.503059	-0.453886
23660		9.389691	-0.365870	-2.627022	0.002936	-0.001794	-0.003696	-0.711914	0.523682	0.277344	0.400504	-0.616952	-0.503048	-0.453772
23661		9.416205	-0.360052	-2.591622	-0.001869	-0.000911	-0.006228	-0.720947	0.528809	0.278076	0.400488	-0.617028	-0.503032	-0.453701
23662		9.406694	-0.392209	-2.564145	-0.002340	0.000195	-0.007622	-0.715820	0.530029	0.277344	0.400495	-0.617059	-0.503011	-0.453675
23663		9.407179	-0.424959	-2.588442	0.004761	0.005729	-0.007477	-0.719727	0.528320	0.272949	0.400631	-0.617062	-0.502971	-0.453595
23664		9.383202	-0.405149	-2.589669	0.004889	0.008299	-0.005721	-0.718018	0.523926	0.278076	0.400822	-0.616974	-0.502916	-0.453609
23665		9.401131	-0.390867	-2.586957	0.002122	0.003366	-0.007033	-0.716553	0.522217	0.280762	0.400832	-0.616956	-0.502939	-0.453598
23666		9.412011	-0.417809	-2.592907	0.004434	0.003690	-0.005461	-0.712891	0.526611	0.274902	0.400819	-0.616963	-0.502983	-0.453552
23667		9.402933	-0.412566	-2.582710	0.008565	0.005204	-0.005158	-0.708984	0.520996	0.268311	0.400987	-0.616942	-0.502961	-0.453457
23668		9.353342	-0.385230	-2.614766	0.006702	0.003533	-0.006780	-0.719482	0.523926	0.269775	0.401154	-0.616854	-0.502958	-0.453431
23669		9.370816	-0.371164	-2.613629	0.006061	-0.005498	-0.005696	-0.717529	0.520996	0.268799	0.401247	-0.616783	-0.503009	-0.453389
23670		9.373684	-0.406812	-2.583471	-0.005756	-0.008818	-0.004899	-0.707031	0.525879	0.276611	0.401214	-0.616782	-0.503020	-0.453407
23671		9.474009	-0.413682	-2.602036	-0.007161	0.000072	-0.006994	-0.716309	0.521973	0.276367	0.401191	-0.616918	-0.502951	-0.453319
23672		9.409327	-0.405101	-2.536092	-0.014654	0.001558	0.000196	-0.715332	0.525146	0.275635	0.401096	-0.617025	-0.502839	-0.453381
23673		9.350415	-0.407861	-2.584572	0.000142	0.003944	-0.003711	-0.717041	0.524414	0.269043	0.401161	-0.617037	-0.502796	-0.453356
23674		9.388336	-0.457250	-2.510408	-0.005757	-0.008065	-0.009512	-0.711914	0.530518	0.278809	0.401149	-0.617024	-0.502811	-0.453368
23675		9.430602	-0.456658	-2.550400	-0.005278	0.002359	-0.006233	-0.719482	0.529541	0.272217	0.401177	-0.617145	-0.502726	-0.453273
23676		9.456879	-0.384641	-2.577241	0.010363	0.011736	-0.005777	-0.717285	0.523682	0.278809	0.401442	-0.617006	-0.502681	-0.453276
23677		9.403813	-0.399179	-2.581612	0.017817	0.002686	-0.008735	-0.714111	0.528809	0.270508	0.401541	-0.616908	-0.502822	-0.453166
23678		9.361533	-0.398862	-2.656010	0.005817	0.001641	-0.011939	-0.718262	0.527832	0.277588	0.401688	-0.616836	-0.502834	-0.453120
23679		9.377925	-0.401719	-2.593278	0.000199	0.012494	-0.011114	-0.714355	0.519531	0.274170	0.401751	-0.616764	-0.502816	-0.453182
23680		9.384397	-0.409337	-2.569596	0.000100	0.009410	-0.006817	-0.712402	0.527100	0.272705	0.401777	-0.616690	-0.502810	-0.453267
23681		9.388992	-0.438641	-2.600856	0.007907	0.008590	-0.010556	-0.721436	0.525391	0.269775	0.401941	-0.616607	-0.502810	-0.453233
23682		9.373577	-0.395185	-2.657098	0.016084	0.003960	-0.010904	-0.712158	0.526123	0.268799	0.402126	-0.616409	-0.502910	-0.453229
23683		9.364341	-0.351456	-2.666092	-0.006868	-0.000263	-0.000384	-0.719971	0.518066	0.268555	0.402205	-0.616483	-0.502786	-0.453195
23684		9.364466	-0.381920	-2.578023	-0.025507	-0.008952	0.000824	-0.717773	0.529541	0.273682	0.401983	-0.616604	-0.502672	-0.453354
23685		9.423367	-0.410608	-2.556119	-0.015881	-0.008206	-0.006490	-0.713623	0.526611	0.273926	0.401876	-0.616744	-0.502606	-0.453332
23686		9.447474	-0.429045	-2.532701	0.001388	-0.002048	-0.006477	-0.723877	0.516357	0.270020	0.401921	-0.616775	-0.502613	-0.453242
23687		9.419535	-0.410853	-2.549169	0.004536	0.000071	-0.004940	-0.711182	0.521240	0.276367	0.401916	-0.616630	-0.502692	-0.453357
23688		9.394809	-0.393161	-2.530435	-0.001596	-0.000738	-0.005672	-0.720947	0.527832	0.273438	0.401867	-0.616688	-0.502704	-0.453307
23689		9.405664	-0.419447	-2.536948	0.001078	0.003235	-0.010142	-0.717529	0.517822	0.272461	0.401923	-0.616617	-0.502722	-0.453334
23690		9.390575	-0.443165	-2.508318	0.013833	-0.000460	-0.014847	-0.716309	0.524658	0.269775	0.401938	-0.616442	-0.502915	-0.453345
23691		9.416768	-0.441252	-2.565484	0.021810	-0.004546	-0.011422	-0.707031	0.530273	0.268799	0.402120	-0.616292	-0.503090	-0.453193
23692		9.408790	-0.419667	-2.594385	0.012791	0.003114	-0.004335	-0.708984	0.527588	0.269775	0.402413	-0.616274	-0.503056	-0.452996
23693		9.418473	-0.384804	-2.621145	0.011482	0.003170	-0.010307	-0.716553	0.525146	0.275146	0.402607	-0.616206	-0.503091	-0.452876
23694		9.377884	-0.364753	-2.618859	-0.007184	0.005756	-0.008663	-0.713623	0.522949	0.274170	0.402568	-0.616212	-0.503057	-0.452940
23695		9.354979	-0.406329	-2.600039	0.002081	0.002495	-0.007627	-0.723389	0.524414	0.269531	0.402581	-0.616199	-0.503083	-0.452918
23696		9.392053	-0.429414	-2.549477	-0.002264	-0.003936	-0.009997	-0.720459	0.524658	0.271973	0.402551	-0.616132	-0.503136	-0.452977
23697		9.413605	-0.483587	-2.563197	-0.008549	0.002844	-0.005137	-0.716797	0.528809	0.273438	0.402527	-0.616131	-0.503081	-0.453061
23698		9.422286	-0.422207	-2.613679	0.010127	0.007205	-0.010162	-0.713867	0.528076	0.267822	0.402684	-0.616034	-0.503121	-0.453009
23699		9.431722	-0.390296	-2.596425	0.006433	0.003719	-0.009655	-0.710449	0.529297	0.274414	0.402851	-0.615953	-0.503127	-0.452965
23700		9.399216	-0.391228	-2.564940	-0.004306	0.007685	-0.007693	-0.721191	0.530273	0.271240	0.402916	-0.615994	-0.503053	-0.452931
23701		9.375527	-0.405909	-2.569337	-0.009169	0.008185	-0.016878	-0.721680	0.527344	0.266846	0.402909	-0.615911	-0.503030	-0.453077
23702		9.419276	-0.478200	-2.590554	-0.005566	0.014785	-0.011854	-0.717529	0.523193	0.272461	0.403012	-0.615762	-0.502946	-0.453281
23703		9.394144	-0.435731	-2.570707	0.003079	0.014279	-0.006402	-0.716553	0.523682	0.273682	0.403120	-0.615658	-0.502915	-0.453361
23704		9.350639	-0.377485	-2.620724	-0.005610	0.006617	-0.006751	-0.712891	0.526611	0.269531	0.403105	-0.615658	-0.502878	-0.453416
23705		9.363647	-0.378173	-2.616098	-0.010820	-0.002838	-0.007366	-0.715088	0.521240	0.275146	0.403067	-0.615739	-0.502819	-0.453404
23706		9.423640	-0.397194	-2.543565	-0.008530	-0.002374	-0.009545	-0.714355	0.531250	0.272705	0.402922	-0.615796	-0.502847	-0.453425
23707		9.439798	-0.436340	-2.485801	-0.008830	0.002400	-0.007154	-0.709229	0.524414	0.271240	0.402949	-0.615868	-0.502765	-0.453395
23708		9.406740	-0.405793	-2.543855	0.004056	0.007492	-0.008861	-0.715820	0.521484	0.275879	0.403055	-0.615828	-0.502756	-0.453364
23709		9.393480	-0.373818	-2.592417	0.007761	0.004660	-0.006843	-0.718018	0.521240	0.274414	0.403092	-0.615778	-0.502823	-0.453324
23710		9.402491	-0.382412	-2.535676	0.002975	-0.000435	-0.009172	-0.714844	0.524658	0.272217	0.403051	-0.615744	-0.502907	-0.453314
23711		9.421243	-0.390628	-2.532345	0.001103	-0.002360	-0.012244	-0.726807	0.525391	0.271484	0.403029	-0.615730	-0.502974	-0.453278
23712		9.420401	-0.401012	-2.537689	-0.000904	0.003796	-0.006827	-0.717529	0.524414	0.270020	0.403049	-0.615649	-0.502984	-0.453359
23713		9.420769	-0.399470	-2.536567	0.004242	0.005589	-0.007166	-0.716309	0.524902	0.263184	0.403144	-0.615576	-0.502988	-0.453371
23714		9.388411	-0.398916	-2.526971	-0.003135	0.005172	-0.007234	-0.717041	0.520508	0.276611	0.403247	-0.615507	-0.502916	-0.453451
23715		9.442059	-0.426272	-2.572147	0.002770	0.000848	-0.010010	-0.716064	0.530762	0.269043	0.403183	-0.615485	-0.503007	-0.453439
23716		9.404864	-0.401412	-2.601227	-0.005142	-0.001055	-0.004279	-0.710938	0.518311	0.275635	0.403248	-0.615544	-0.502931	-0.453384
23717		9.381914	-0.397382	-2.553693	-0.005769	-0.004871	0.001211	-0.717285	0.523438	0.270264	0.403147	-0.615689	-0.502902	-0.453308
23718		9.394414	-0.400993	-2.528204	0.004018	0.000439	-0.010681	-0.711670	0.522949	0.269287	0.403174	-0.615623	-0.502965	-0.453305
23719		9.411905	-0.463929	-2.468658	-0.008636	-0.005336	-0.009000	-0.710938	0.524902	0.271240	0.403092	-0.615690	-0.502952	-0.453300
23720		9.437044	-0.436306	-2.549766	0.011467	0.002207	-0.007134	-0.719482	0.526611	0.271240	0.403226	-0.615650	-0.502995	-0.453189
23721		9.433201	-0.400630	-2.560207	0.008369	-0.005999	-0.004704	-0.717041	0.520996	0.266113	0.403295	-0.615641	-0.503064	-0.453064
23722		9.414134	-0.390771	-2.542605	0.005322	0.001130	-0.009321	-0.716797	0.523438	0.279785	0.403359	-0.615536	-0.503116	-0.453091
23723		9.380944	-0.438487	-2.543132	0.007164	-0.002887	-0.014991	-0.713623	0.519287	0.271729	0.403274	-0.615514	-0.503279	-0.453015
23724		9.383047	-0.493745	-2.566410	0.010192	-0.003332	-0.015210	-0.716309	0.529541	0.273926	0.403254	-0.615428	-0.503442	-0.452969
23725		9.396431	-0.443886	-2.575972	0.019573	-0.004721	-0.007790	-0.709473	0.519043	0.272949	0.403405	-0.615388	-0.503573	-0.452743
23726		9.403983	-0.385514	-2.606809	0.014010	-0.004320	-0.006818	-0.717285	0.526611	0.273193	0.403446	-0.615378	-0.503687	-0.452594
23727		9.403486	-0.345887	-2.626326	0.002831	-0.004253	-0.009211	-0.720947	0.524902	0.267822	0.403438	-0.615388	-0.503748	-0.452518
23728		9.403872	-0.374910	-2.538140	-0.006608	-0.005446	-0.009427	-0.713867	0.531738	0.269531	0.403379	-0.615384	-0.503770	-0.452552
23729		9.423817	-0.406846	-2.533619	-0.001820	-0.006535	-0.008332	-0.717041	0.529297	0.270508	0.403408	-0.615453	-0.503760	-0.452444
23730		9.414831	-0.434946	-2.550654	-0.000936	-0.003271	-0.008647	-0.715088	0.535156	0.274902	0.403428	-0.615471	-0.503769	-0.452391
23731		9.378012	-0.399652	-2.553386	0.003588	-0.004914	-0.005804	-0.708008	0.519043	0.271729	0.403503	-0.615553	-0.503771	-0.452211
23732		9.419221	-0.366878	-2.547218	0.003763	-0.006692	-0.007862	-0.718018	0.526367	0.269775	0.403460	-0.615592	-0.503844	-0.452115
23733		9.432121	-0.406311	-2.525697	-0.005532	-0.004451	-0.005732	-0.717529	0.523926	0.269775	0.403433	-0.615634	-0.503825	-0.452103
23734		9.410058	-0.435717	-2.502948	-0.000582	-0.000752	-0.007777	-0.711182	0.522705	0.277344	0.403438	-0.615609	-0.503843	-0.452113
23735		9.423389	-0.432776	-2.542119	0.012148	0.000926	-0.011843	-0.717285	0.528809	0.275879	0.403465	-0.615563	-0.503966	-0.452014
23736		9.384698	-0.471860	-2.563111	0.009913	0.001566	-0.007628	-0.709473	0.522217	0.273438	0.403555	-0.615530	-0.504026	-0.451912
23737		9.428278	-0.458520	-2.596349	0.008099	0.001466	-0.013287	-0.717529	0.523682	0.265869	0.403574	-0.615479	-0.504116	-0.451863
23738		9.384948	-0.427145	-2.602625	0.003275	0.001323	-0.012658	-0.714111	0.534424	0.264893	0.403623	-0.615371	-0.504169	-0.451907
23739		9.350376	-0.404278	-2.575630	-0.000598	-0.008181	-0.007279	-0.709473	0.528564	0.278809	0.403704	-0.615431	-0.504135	-0.451792
23740		9.366819	-0.401695	-2.579877	0.011109	0.007221	-0.012284	-0.710449	0.528809	0.265869	0.403794	-0.615392	-0.504197	-0.451696
23741		9.448781	-0.440140	-2.516495	-0.022977	-0.002977	-0.003897	-0.705322	0.523438	0.281982	0.403702	-0.615563	-0.504003	-0.451761
23742		9.432190	-0.446850	-2.560625	-0.014142	0.010473	-0.009876	-0.718506	0.518066	0.271240	0.403575	-0.615667	-0.503911	-0.451836
23743		9.438218	-0.414980	-2.556079	0.007272	0.006849	-0.015196	-0.711182	0.523682	0.273438	0.403593	-0.615490	-0.504034	-0.451924
23744		9.378145	-0.437384	-2.522060	0.005774	0.006587	-0.009017	-0.714600	0.530762	0.274414	0.403660	-0.615446	-0.504047	-0.451909
23745		9.366366	-0.428128	-2.567834	0.004331	0.009979	-0.016981	-0.716797	0.525391	0.272705	0.403730	-0.615355	-0.504074	-0.451941
23746		9.379116	-0.437606	-2.589338	0.000748	0.002365	-0.018838	-0.722656	0.524170	0.278320	0.403688	-0.615269	-0.504166	-0.451992
23747		9.419431	-0.466598	-2.573940	0.012861	-0.000834	-0.010468	-0.723633	0.532471	0.270996	0.403714	-0.615179	-0.504333	-0.451904
23748		9.397458	-0.362069	-2.529556	0.017133	0.004765	-0.008686	-0.716797	0.533447	0.270264	0.403925	-0.615045	-0.504406	-0.451818
23749		9.401038	-0.316868	-2.577345	0.006149	0.003267	-0.011689	-0.711182	0.525879	0.270264	0.404037	-0.614999	-0.504413	-0.451772
23750		9.405491	-0.347026	-2.588511	0.001949	-0.000253	-0.014613	-0.719482	0.528564	0.272705	0.404031	-0.614977	-0.504460	-0.451754
23751		9.424425	-0.398323	-2.500654	-0.008573	0.002881	-0.008917	-0.722168	0.524170	0.270264	0.403992	-0.614999	-0.504417	-0.451808
23752		9.391097	-0.410235	-2.497037	-0.006730	0.004214	-0.004981	-0.716309	0.520264	0.278320	0.403983	-0.614983	-0.504370	-0.451889
23753		9.399233	-0.395817	-2.577841	0.008820	0.007117	-0.012418	-0.708496	0.529541	0.273193	0.404002	-0.614875	-0.504492	-0.451884
23754		9.419481	-0.391226	-2.567042	0.001953	0.006441	-0.010494	-0.723877	0.525391	0.267090	0.404067	-0.614889	-0.504450	-0.451854
23755		9.407341	-0.377503	-2.521597	-0.001312	-0.000233	-0.007437	-0.714111	0.516846	0.271973	0.404083	-0.614841	-0.504459	-0.451894
23756		9.399853	-0.391182	-2.554036	-0.012790	-0.001981	-0.006358	-0.715576	0.528076	0.270996	0.403931	-0.614909	-0.504436	-0.451964
23757		9.384462	-0.426155	-2.552558	-0.005642	0.006553	-0.006773	-0.715820	0.525391	0.263184	0.403960	-0.614926	-0.504348	-0.452013
23758		9.373862	-0.436264	-2.505068	-0.003171	-0.002540	-0.008200	-0.716064	0.528564	0.273926	0.403975	-0.614928	-0.504314	-0.452035
23759		9.518035	-0.429117	-2.555943	-0.009099	0.002128	-0.007735	-0.715332	0.524170	0.263428	0.403929	-0.614991	-0.504250	-0.452062
23760		9.410060	-0.386907	-2.561898	-0.010353	0.002173	-0.004751	-0.721436	0.520264	0.270752	0.403929	-0.615023	-0.504130	-0.452152
23761		9.338102	-0.384099	-2.501432	-0.018404	-0.003438	-0.002799	-0.710693	0.521729	0.269775	0.403772	-0.615115	-0.504058	-0.452246
23762		9.372965	-0.450831	-2.537255	0.003536	0.009036	-0.016366	-0.714355	0.528320	0.272705	0.403808	-0.615007	-0.504091	-0.452325
23763		9.417734	-0.456497	-2.454787	-0.012910	-0.012854	-0.008212	-0.718262	0.523193	0.266113	0.403643	-0.615177	-0.504068	-0.452266
23764		9.451149	-0.445398	-2.551214	0.005684	0.003896	-0.007017	-0.708008	0.523926	0.265869	0.403747	-0.615091	-0.504076	-0.452282
23765		9.434637	-0.399512	-2.494004	0.018055	0.002477	-0.011087	-0.714355	0.515869	0.273438	0.403922	-0.614990	-0.504143	-0.452187
23766		9.390996	-0.369503	-2.500566	0.017122	-0.002514	-0.011945	-0.720703	0.526855	0.271729	0.403955	-0.614877	-0.504338	-0.452095
23767		9.409979	-0.384382	-2.566925	0.003498	0.007804	-0.014646	-0.720703	0.524658	0.271729	0.404004	-0.614759	-0.504386	-0.452158
23768		9.357007	-0.399620	-2.550132	-0.002460	0.003828	-0.011953	-0.725098	0.526367	0.270264	0.403985	-0.614703	-0.504411	-0.452224
23769		9.378811	-0.464291	-2.591338	0.013360	-0.009323	-0.008566	-0.717285	0.520996	0.270020	0.404042	-0.614637	-0.504571	-0.452083
23770		9.392530	-0.393417	-2.547616	0.010623	-0.007843	-0.007201	-0.715576	0.521240	0.277588	0.404066	-0.614612	-0.504690	-0.451963
23771		9.419264	-0.323344	-2.521564	0.001420	-0.010111	-0.005127	-0.721680	0.524170	0.271973	0.403971	-0.614703	-0.504765	-0.451840
23772		9.469448	-0.345354	-2.511791	0.004347	-0.005708	-0.007607	-0.716309	0.518799	0.260254	0.403965	-0.614686	-0.504851	-0.451773
23773		9.431116	-0.377651	-2.462927	-0.006568	0.001798	-0.006180	-0.717285	0.528320	0.268066	0.403978	-0.614649	-0.504797	-0.451872
23774		9.402910	-0.417313	-2.535952	0.002961	0.006339	-0.008836	-0.721436	0.531250	0.269287	0.404080	-0.614589	-0.504770	-0.451893
23775		9.387179	-0.412761	-2.574653	0.006020	-0.001255	-0.007102	-0.713135	0.528076	0.268555	0.404173	-0.614559	-0.504795	-0.451822
23776		9.363584	-0.419278	-2.554485	0.004580	-0.006735	-0.005317	-0.713379	0.528320	0.270752	0.404216	-0.614615	-0.504801	-0.451701
23777		9.410387	-0.394126	-2.549236	0.000249	-0.007374	-0.004148	-0.721436	0.528076	0.269287	0.404216	-0.614711	-0.504784	-0.451590
23778		9.406594	-0.396236	-2.542041	0.000622	-0.003272	-0.007321	-0.711914	0.522461	0.272461	0.404233	-0.614705	-0.504807	-0.451557
23779		9.386383	-0.398941	-2.530877	0.008541	-0.009487	-0.007945	-0.723389	0.528564	0.269043	0.404219	-0.614738	-0.504905	-0.451415
23780		9.396936	-0.425779	-2.540420	-0.003042	-0.015170	-0.003123	-0.717773	0.519287	0.266602	0.404160	-0.614832	-0.504941	-0.451299
23781		9.474380	-0.428133	-2.511580	-0.003416	-0.003215	-0.002687	-0.714355	0.528564	0.270752	0.404142	-0.614851	-0.504924	-0.451309
23782		9.414917	-0.384622	-2.531430	0.001550	-0.005598	-0.009730	-0.715820	0.522217	0.273438	0.404134	-0.614883	-0.504953	-0.451240
23783		9.367275	-0.407195	-2.540182	-0.004927	-0.010676	-0.003524	-0.718750	0.523193	0.265869	0.404029	-0.614995	-0.504967	-0.451165
23784		9.356403	-0.416194	-2.516451	0.009497	-0.003275	-0.008827	-0.715088	0.528076	0.275879	0.404103	-0.614912	-0.505055	-0.451114
23785		9.411587	-0.459853	-2.491793	-0.012792	-0.018343	-0.005067	-0.718994	0.520996	0.267090	0.403898	-0.615131	-0.505050	-0.451004
23786		9.438149	-0.443452	-2.567329	0.004717	-0.002322	-0.006159	-0.712646	0.521240	0.266602	0.403941	-0.615077	-0.505099	-0.450984
23787		9.449787	-0.408512	-2.561140	0.018206	-0.008554	-0.010091	-0.712158	0.527100	0.274658	0.404029	-0.615002	-0.505255	-0.450834
23788		9.388742	-0.382235	-2.544356	0.010451	-0.014092	-0.003794	-0.722412	0.524414	0.272461	0.404038	-0.615096	-0.505334	-0.450608
23789		9.375247	-0.378283	-2.551072	0.000977	-0.007465	-0.010580	-0.715820	0.530762	0.279785	0.403980	-0.615073	-0.505438	-0.450574
23790		9.404363	-0.426501	-2.561232	0.002258	-0.006654	-0.012985	-0.720215	0.530273	0.274170	0.403913	-0.615117	-0.505518	-0.450485
23791		9.375062	-0.469823	-2.593399	0.010061	-0.009708	-0.008073	-0.712646	0.528564	0.269043	0.403947	-0.615117	-0.505630	-0.450329
23792		9.385656	-0.395326	-2.628498	0.014701	-0.008112	-0.004337	-0.721680	0.526367	0.275146	0.404065	-0.615128	-0.505689	-0.450142
23793		9.376962	-0.365338	-2.611197	0.003052	-0.015431	-0.004432	-0.719238	0.524658	0.273193	0.404004	-0.615197	-0.505794	-0.449985
23794		9.410476	-0.388005	-2.598892	-0.000711	-0.013507	-0.007039	-0.712402	0.532471	0.270508	0.403913	-0.615257	-0.505878	-0.449889
23795		9.431239	-0.410913	-2.546269	-0.006587	-0.006157	-0.008567	-0.720215	0.527100	0.282227	0.403868	-0.615354	-0.505828	-0.449854
23796		9.406060	-0.440354	-2.559654	0.004744	-0.009755	-0.005663	-0.709717	0.519531	0.274902	0.403820	-0.615403	-0.505934	-0.449710
23797		9.384184	-0.416165	-2.594616	0.007906	-0.005762	-0.006726	-0.712891	0.527100	0.270752	0.403812	-0.615420	-0.506005	-0.449614
23798		9.375255	-0.396331	-2.603024	0.002105	-0.004719	-0.005710	-0.715332	0.530762	0.280518	0.403831	-0.615460	-0.506000	-0.449548
23799		9.381722	-0.439094	-2.609181	-0.001549	-0.016530	-0.005269	-0.711914	0.523438	0.281250	0.403718	-0.615618	-0.506052	-0.449374
23800		9.372927	-0.459278	-2.579858	0.001237	-0.016895	-0.004609	-0.714355	0.532471	0.277344	0.403591	-0.615761	-0.506137	-0.449197
23801		9.415609	-0.438889	-2.546729	0.006609	-0.014773	-0.008176	-0.714111	0.520020	0.276855	0.403561	-0.615847	-0.506225	-0.449008
23802		9.425875	-0.418566	-2.526077	0.010055	-0.010681	-0.004913	-0.713135	0.530029	0.272949	0.403551	-0.615862	-0.506347	-0.448858
23803		9.439530	-0.452659	-2.570192	0.005621	-0.004920	-0.010037	-0.714844	0.531250	0.275879	0.403576	-0.615868	-0.506386	-0.448784
23804		9.385148	-0.427369	-2.617707	0.007383	-0.005196	-0.011042	-0.715088	0.528076	0.277100	0.403598	-0.615863	-0.506455	-0.448692
23805		9.345956	-0.418174	-2.632261	0.009999	-0.012414	-0.006087	-0.715576	0.524658	0.275635	0.403604	-0.615906	-0.506559	-0.448511
23806		9.363343	-0.445270	-2.571523	0.016326	-0.011760	-0.011487	-0.710693	0.521484	0.272461	0.403626	-0.615856	-0.506754	-0.448339
23807		9.374719	-0.460366	-2.554005	0.007598	-0.015038	-0.011736	-0.714600	0.519043	0.281006	0.403557	-0.615875	-0.506898	-0.448212
23808		9.414502	-0.432024	-2.641888	0.015714	-0.007155	-0.009663	-0.720703	0.528076	0.270996	0.403565	-0.615814	-0.507087	-0.448074
23809		9.423296	-0.388192	-2.622158	0.018071	-0.005661	-0.006057	-0.709717	0.530273	0.281006	0.403712	-0.615722	-0.507217	-0.447922
23810		9.380057	-0.395700	-2.632911	0.007624	-0.006232	-0.008756	-0.716309	0.523438	0.266602	0.403707	-0.615779	-0.507263	-0.447796
23811		9.346288	-0.405974	-2.653073	0.003979	-0.007843	-0.014588	-0.717529	0.523926	0.271240	0.403680	-0.615710	-0.507382	-0.447780
23812		9.389265	-0.443807	-2.653554	0.003548	-0.005985	-0.011638	-0.714355	0.530273	0.283936	0.403660	-0.615661	-0.507481	-0.447754
23813		9.383735	-0.425376	-2.604978	0.002937	-0.002676	-0.004309	-0.708496	0.526611	0.272217	0.403657	-0.615731	-0.507479	-0.447662
23814		9.352630	-0.395221	-2.650876	-0.003029	0.002334	-0.006133	-0.710449	0.531982	0.277344	0.403666	-0.615775	-0.507393	-0.447691
23815		9.361461	-0.406520	-2.708955	-0.005972	-0.002248	-0.008853	-0.713867	0.528320	0.275879	0.403605	-0.615868	-0.507329	-0.447691
23816		9.376012	-0.437323	-2.616635	-0.005404	-0.008944	-0.009537	-0.713867	0.529785	0.275391	0.403500	-0.615949	-0.507343	-0.447658
23817		9.404799	-0.440789	-2.575232	-0.002776	-0.007595	-0.003051	-0.709473	0.520264	0.276367	0.403469	-0.616053	-0.507306	-0.447584
23818		9.391627	-0.435352	-2.602253	0.004719	-0.001735	-0.007050	-0.707031	0.525146	0.275635	0.403468	-0.616052	-0.507339	-0.447550
23819		9.409367	-0.403989	-2.639763	0.006698	-0.002941	-0.009533	-0.714111	0.520752	0.277344	0.403477	-0.616066	-0.507365	-0.447492
23820		9.393106	-0.406886	-2.591974	0.008368	0.001789	-0.007587	-0.708984	0.524658	0.285889	0.403527	-0.615997	-0.507433	-0.447466
23821		9.379642	-0.413532	-2.622847	0.005542	0.001626	-0.011147	-0.713135	0.523682	0.278809	0.403496	-0.616003	-0.507470	-0.447443
23822		9.371407	-0.440274	-2.660244	-0.000367	-0.002105	-0.006957	-0.718506	0.517334	0.271973	0.403458	-0.616030	-0.507481	-0.447429
23823		9.386934	-0.454000	-2.627023	0.005437	-0.003144	-0.007989	-0.710938	0.523438	0.266357	0.403476	-0.615934	-0.507602	-0.447406
23824		9.384088	-0.443068	-2.614032	0.000820	-0.004855	-0.007943	-0.708984	0.524414	0.281006	0.403484	-0.615932	-0.507615	-0.447387
23825		9.438240	-0.458739	-2.634058	0.003364	-0.004195	-0.009583	-0.711182	0.532471	0.273682	0.403428	-0.615980	-0.507641	-0.447343
23826		9.391403	-0.418088	-2.648723	0.000745	0.001366	-0.006722	-0.711914	0.530762	0.280273	0.403471	-0.616018	-0.507568	-0.447334
23827		9.323393	-0.409116	-2.639563	-0.002429	-0.003504	-0.006232	-0.714600	0.525391	0.283936	0.403423	-0.616115	-0.507517	-0.447302
23828		9.386386	-0.446515	-2.608874	0.000502	-0.005837	-0.012864	-0.710693	0.526855	0.271973	0.403317	-0.616136	-0.507599	-0.447274
23829		9.402404	-0.510007	-2.562839	-0.005001	-0.004083	-0.008363	-0.716797	0.526367	0.275879	0.403264	-0.616194	-0.507561	-0.447286
23830		9.418981	-0.442195	-2.596781	0.009231	0.005330	-0.006467	-0.714600	0.525879	0.277832	0.403382	-0.616108	-0.507587	-0.447269
23831		9.418119	-0.399704	-2.657556	0.008278	0.007406	-0.005505	-0.717285	0.526611	0.276367	0.403494	-0.616043	-0.507578	-0.447267
23832		9.383350	-0.390620	-2.633237	-0.005458	0.007639	-0.009390	-0.719727	0.527588	0.265869	0.403494	-0.616000	-0.507536	-0.447375
23833		9.349788	-0.412808	-2.655791	-0.000525	0.004359	-0.017055	-0.710205	0.534180	0.271484	0.403527	-0.615852	-0.507600	-0.447476
23834		9.358199	-0.501821	-2.666958	0.004718	0.001456	-0.018933	-0.712402	0.528809	0.273193	0.403544	-0.615801	-0.507624	-0.447503
23835		9.370053	-0.465000	-2.659536	0.008323	0.000661	-0.009633	-0.715332	0.518066	0.275146	0.403614	-0.615765	-0.507644	-0.447467
23836		9.390275	-0.398930	-2.635644	-0.000065	0.009332	-0.006887	-0.713379	0.522461	0.273438	0.403657	-0.615677	-0.507635	-0.447558
23837		9.372998	-0.361238	-2.627357	0.002939	-0.000437	-0.013007	-0.716309	0.522217	0.279541	0.403642	-0.615620	-0.507699	-0.447579
23838		9.416805	-0.395136	-2.669148	-0.000970	0.005608	-0.013241	-0.715332	0.521973	0.277588	0.403608	-0.615551	-0.507732	-0.447667
23839		9.391669	-0.394179	-2.588416	-0.011941	0.012138	-0.008576	-0.710938	0.521240	0.270264	0.403564	-0.615531	-0.507626	-0.447854
23840		9.375492	-0.403236	-2.608707	-0.007169	0.010580	-0.010405	-0.713135	0.527344	0.272217	0.403564	-0.615483	-0.507543	-0.448014
23841		9.395345	-0.408759	-2.624478	-0.001336	0.010418	-0.010850	-0.714600	0.527588	0.281006	0.403615	-0.615425	-0.507477	-0.448123
23842		9.391959	-0.425886	-2.575734	0.001392	0.007726	-0.010499	-0.715576	0.522949	0.276367	0.403628	-0.615400	-0.507441	-0.448186
23843		9.376821	-0.410254	-2.586271	0.001848	0.005174	-0.008812	-0.711182	0.530029	0.278076	0.403652	-0.615351	-0.507441	-0.448232
23844		9.404610	-0.447439	-2.601122	0.002632	0.007056	-0.012633	-0.713135	0.521973	0.273682	0.403671	-0.615336	-0.507391	-0.448292
23845		9.397043	-0.413362	-2.601131	0.006720	0.008379	-0.013804	-0.722412	0.522461	0.266846	0.403731	-0.615216	-0.507429	-0.448360
23846		9.387508	-0.418066	-2.617250	0.000160	0.008047	-0.006049	-0.711182	0.528076	0.275146	0.403839	-0.615089	-0.507438	-0.448426
23847		9.355938	-0.405626	-2.601942	-0.003010	0.003514	-0.007881	-0.718750	0.524902	0.277344	0.403826	-0.615136	-0.507348	-0.448476
23848		9.493997	-0.388296	-2.651467	-0.009432	0.011304	-0.009951	-0.716064	0.530518	0.280518	0.403799	-0.615099	-0.507268	-0.448641
23849		9.394634	-0.375077	-2.538417	-0.024557	0.013807	-0.002115	-0.710693	0.526123	0.272461	0.403706	-0.615233	-0.506976	-0.448870
23850		9.351596	-0.405099	-2.577198	-0.012594	0.016457	-0.008221	-0.716797	0.525879	0.270264	0.403707	-0.615239	-0.506775	-0.449088
23851		9.406398	-0.486618	-2.544232	-0.039634	-0.011377	-0.001503	-0.708496	0.529541	0.275635	0.403386	-0.615527	-0.506557	-0.449229
23852		9.328863	-0.440503	-2.607402	-0.048154	-0.029387	0.004482	-0.716064	0.528076	0.282227	0.402883	-0.616093	-0.506250	-0.449250
23853		9.437540	-0.313755	-2.718857	-0.067527	-0.109612	0.014990	-0.712891	0.528076	0.276123	0.401771	-0.617230	-0.506220	-0.448719
23854		9.793467	-0.244920	-2.854674	0.131992	-0.051507	0.030365	-0.714111	0.533936	0.284912	0.402690	-0.617114	-0.506886	-0.447300
23855		9.359859	-0.549699	-2.373121	0.055619	-0.101640	0.055437	-0.711914	0.527344	0.278320	0.402807	-0.617863	-0.507168	-0.445839
23856		9.192572	-0.720303	-2.547455	0.123984	-0.028311	0.026285	-0.705566	0.527100	0.277832	0.403775	-0.617606	-0.507734	-0.444673
23857		9.118916	-0.548803	-2.735745	0.106175	0.038726	0.003186	-0.710938	0.529541	0.271973	0.404883	-0.616955	-0.508007	-0.444259
23858		9.137280	-0.430015	-2.857078	0.049070	-0.040579	0.004839	-0.715576	0.530273	0.269531	0.405088	-0.616997	-0.508382	-0.443583
23859		9.429012	-0.210037	-2.467549	-0.066891	0.026699	-0.024124	-0.710449	0.527344	0.274902	0.404690	-0.617023	-0.508037	-0.444306
23860		9.492596	-0.079249	-2.337149	-0.111981	0.119220	-0.071709	-0.709717	0.532471	0.273926	0.404225	-0.616509	-0.507306	-0.446274
23861		9.423536	-0.336685	-2.705251	-0.067586	0.067481	-0.085527	-0.718262	0.525146	0.276123	0.403703	-0.616020	-0.507128	-0.447622
23862		9.485014	-0.761284	-2.693466	-0.081772	0.046324	-0.050669	-0.718994	0.520264	0.270752	0.403127	-0.615872	-0.506791	-0.448725
23863		9.481424	-0.720876	-2.482268	-0.065371	0.064115	-0.014583	-0.717285	0.525391	0.271973	0.403013	-0.615731	-0.506202	-0.449683
23864		9.424600	-0.489428	-2.308512	-0.000539	0.064260	0.001792	-0.705566	0.527588	0.270996	0.403487	-0.615418	-0.505797	-0.450143
23865		9.331733	-0.380606	-2.593876	0.032935	0.041473	-0.002053	-0.714111	0.526367	0.272217	0.404027	-0.615134	-0.505625	-0.450239
23866		9.370593	-0.287976	-2.737072	0.005129	0.014723	-0.008682	-0.709473	0.523193	0.269287	0.404152	-0.615043	-0.505548	-0.450337
23867		9.419957	-0.288455	-2.502126	-0.027502	0.009638	-0.014775	-0.719971	0.523193	0.274170	0.403955	-0.615114	-0.505350	-0.450640
23868		9.414014	-0.422784	-2.402828	-0.017745	0.003815	-0.017283	-0.719727	0.525391	0.270020	0.403786	-0.615099	-0.505323	-0.450843
23869		9.368327	-0.571028	-2.551883	0.000353	-0.004907	-0.011408	-0.718994	0.521484	0.276611	0.403757	-0.615077	-0.505382	-0.450831
23870		9.422042	-0.526867	-2.694733	0.022758	-0.014166	-0.004979	-0.721191	0.526123	0.271973	0.403838	-0.615050	-0.505573	-0.450583
23871		9.430748	-0.380282	-2.532756	0.019095	-0.018843	-0.006500	-0.722900	0.520508	0.268311	0.403889	-0.615043	-0.505776	-0.450318
23872		9.382664	-0.263644	-2.418047	-0.009533	-0.018183	0.002871	-0.712402	0.514160	0.281006	0.403789	-0.615181	-0.505793	-0.450200
23873		9.412743	-0.383627	-2.490794	-0.002951	0.006180	-0.009907	-0.719482	0.532227	0.269531	0.403718	-0.615170	-0.505755	-0.450321
23874		9.404126	-0.429180	-2.446912	-0.008607	-0.007848	-0.013103	-0.720215	0.522217	0.272705	0.403612	-0.615222	-0.505761	-0.450339
23875		9.434658	-0.467493	-2.565495	-0.004919	-0.002649	-0.008677	-0.711914	0.524902	0.271973	0.403559	-0.615220	-0.505776	-0.450372
23876		9.442699	-0.424810	-2.523966	0.012970	-0.009484	-0.004527	-0.716553	0.535400	0.270264	0.403611	-0.615261	-0.505821	-0.450219
23877		9.409512	-0.354193	-2.476171	0.014302	-0.006679	-0.004311	-0.712402	0.525879	0.278076	0.403735	-0.615282	-0.505843	-0.450054
23878		9.413606	-0.329730	-2.566911	0.003772	0.000423	-0.009873	-0.714600	0.522949	0.271973	0.403722	-0.615302	-0.505819	-0.450065
23879		9.474754	-0.336638	-2.604109	-0.017589	-0.012608	-0.012188	-0.721680	0.527832	0.267334	0.403479	-0.615435	-0.505800	-0.450123
23880		9.525626	-0.287771	-2.486927	-0.056142	0.009546	-0.000718	-0.708496	0.526611	0.276123	0.403196	-0.615662	-0.505396	-0.450520
23881		9.480685	-0.166005	-2.381844	-0.085512	0.057666	0.005934	-0.720703	0.521973	0.276123	0.402952	-0.615929	-0.504428	-0.451456
23882		9.800665	-0.088330	-2.229872	-0.146496	0.088307	-0.004840	-0.717041	0.524414	0.274170	0.402394	-0.616157	-0.503154	-0.453063
23883		9.842716	-0.142343	-2.009493	-0.196799	0.147769	0.006766	-0.719727	0.523926	0.281250	0.401890	-0.616405	-0.501154	-0.455383
23884		9.864012	-0.121575	-1.538930	-0.161062	0.176031	-0.010378	-0.712402	0.519531	0.274170	0.401709	-0.616220	-0.499337	-0.457783
23885		9.935635	-0.470525	-1.259523	-0.082811	0.276489	-0.046592	-0.712891	0.522949	0.267822	0.402544	-0.614857	-0.497695	-0.460660
23886		10.470783	-0.511825	-1.285290	0.056075	0.368807	-0.039151	-0.720459	0.519531	0.265625	0.405069	-0.612325	-0.496278	-0.463340
23887		10.087795	-0.418542	-0.544382	0.130563	0.637369	-0.039409	-0.731445	0.511230	0.244873	0.409792	-0.607807	-0.493950	-0.467604
23888		9.515421	-0.565823	-0.421784	0.227576	0.732656	-0.111223	-0.730469	0.523193	0.233154	0.415437	-0.601619	-0.492318	-0.472324
23889		8.683102	-0.822697	-0.316354	0.220193	1.318009	-0.128764	-0.739990	0.525146	0.201904	0.424408	-0.591932	-0.487487	-0.481509
23890		7.758129	0.836019	0.848116	1.024719	1.847078	-0.557336	-0.761719	0.504883	0.155029	0.439775	-0.571872	-0.487596	-0.491742
23891		7.054647	1.005522	1.303548	1.211410	1.742910	-0.830725	-0.774170	0.498047	0.110107	0.453825	-0.549184	-0.491156	-0.501204
23892		6.270262	0.887437	1.167272	0.747338	2.050185	-0.947747	-0.802246	0.477783	0.057617	0.465417	-0.526101	-0.490368	-0.515892
23893		4.613916	0.971662	-3.982155	0.213929	2.212226	-0.868863	-0.801270	0.472412	0.016357	0.474646	-0.504954	-0.484386	-0.533949
23894		9.555095	-1.320285	2.971946	-0.162056	1.207834	-0.469890	-0.814697	0.469482	-0.015869	0.477726	-0.495083	-0.478839	-0.545329
23895		12.493967	-4.465512	1.521896	0.592387	1.179948	-0.316179	-0.811279	0.466064	-0.040771	0.486286	-0.481623	-0.477494	-0.550967
23896		8.513054	-1.596005	-0.239944	0.452662	1.370406	-0.331992	-0.821289	0.443359	-0.069092	0.494797	-0.467582	-0.473850	-0.558577
23897		9.511802	3.162517	-4.058615	0.770474	1.257418	-0.283686	-0.819336	0.437988	-0.101562	0.504721	-0.452292	-0.473006	-0.562987
23898		15.297750	0.999176	0.906451	1.358383	0.134626	-0.087360	-0.818848	0.430664	-0.125488	0.512534	-0.442251	-0.482108	-0.556143
23899		16.396237	2.343678	2.653635	0.386042	0.100852	-0.068761	-0.823486	0.429932	-0.122070	0.514862	-0.438654	-0.484506	-0.554756
23900		16.589632	2.510662	-1.262812	-0.721765	-0.402197	0.211139	-0.815186	0.441650	-0.112061	0.509938	-0.447384	-0.480954	-0.555423
23901		21.688816	-0.243490	-3.087303	0.096568	-1.530985	0.397155	-0.813721	0.446533	-0.074951	0.503942	-0.459824	-0.488914	-0.543661
23902		22.232423	2.224498	-1.772052	-0.340614	-2.681524	0.790392	-0.809082	0.464355	-0.018799	0.490663	-0.484853	-0.498613	-0.524930
23903		19.144935	0.952224	-2.531120	-1.545978	-3.354847	1.296734	-0.793213	0.478516	0.066895	0.468330	-0.523941	-0.500556	-0.505566
23904		14.579215	-0.909965	-2.393199	-1.174197	-2.855583	0.833534	-0.778076	0.496582	0.129639	0.447726	-0.553565	-0.504282	-0.488679
23905		10.306797	1.469785	-1.771154	-0.637440	-2.025920	0.104229	-0.765137	0.484375	0.179932	0.431108	-0.569896	-0.510978	-0.477772
23906		5.349556	0.197560	2.457370	-0.542306	-1.187441	0.191949	-0.758057	0.496582	0.209229	0.420786	-0.580892	-0.513087	-0.471429
23907		1.665351	-3.242179	1.881078	-0.016673	-0.950827	0.545742	-0.755127	0.505859	0.227295	0.417773	-0.590016	-0.514078	-0.461595
23908		3.437127	-1.402954	2.054173	0.010998	-0.433633	0.348533	-0.742188	0.507812	0.235352	0.417125	-0.594562	-0.514070	-0.456328
23909		0.243732	2.917724	1.691582	0.421229	0.428112	-0.373137	-0.752441	0.499512	0.222168	0.420881	-0.587418	-0.517201	-0.458588
23910		0.779676	0.487861	0.285067	0.467115	0.205822	-0.116610	-0.748535	0.504395	0.208252	0.424973	-0.582869	-0.519946	-0.457513
23911		0.217903	-0.742036	-0.330813	-0.349558	0.559619	-0.106198	-0.758301	0.497070	0.197998	0.425467	-0.580781	-0.515808	-0.464342
23912		-0.206719	-1.003345	1.108660	-0.473718	0.449663	-0.005730	-0.758545	0.497803	0.202637	0.424942	-0.580491	-0.510891	-0.470580
23913		0.439824	0.053149	0.621636	-0.320432	0.406285	-0.074686	-0.761230	0.495117	0.189941	0.424772	-0.579272	-0.507504	-0.475870
23914		0.712270	0.459167	-0.051392	-0.065056	0.713895	-0.229079	-0.770752	0.484863	0.192139	0.427522	-0.573808	-0.505037	-0.482604
23915		0.990992	0.747325	0.227057	-0.005477	0.820875	-0.336847	-0.780029	0.486084	0.163574	0.430552	-0.566670	-0.503248	-0.490155
23916		1.974367	0.483738	0.645208	0.123908	1.159192	-0.407458	-0.781250	0.476807	0.147217	0.436246	-0.556182	-0.500691	-0.499660
23917		11.244797	-3.837027	-2.171593	1.507114	2.274744	-0.686430	-0.797852	0.472656	0.076660	0.456372	-0.529163	-0.502180	-0.509437
23918		20.755177	2.368276	0.053005	1.427743	2.280820	-1.072413	-0.802246	0.454834	0.021729	0.473065	-0.499417	-0.504983	-0.521330
23919		32.723765	4.066885	1.397452	1.603660	1.799007	-0.623456	-0.817871	0.449951	-0.023926	0.490127	-0.474186	-0.508266	-0.525917
23920		34.305169	2.815031	-4.467303	-0.785541	0.342445	0.122394	-0.814209	0.449707	-0.023682	0.488371	-0.477718	-0.500079	-0.532166
23921		26.821046	2.806677	-10.908845	-1.633392	-1.464587	0.548155	-0.813965	0.457275	0.022461	0.472880	-0.500838	-0.494575	-0.530039
23922		20.987494	0.247635	-1.645803	-1.934392	-2.800655	0.968422	-0.791260	0.470459	0.103027	0.449423	-0.536358	-0.491883	-0.518063
23923		14.882964	-2.732109	-1.098941	-1.395570	-2.820817	0.884893	-0.775391	0.489014	0.164795	0.428039	-0.567540	-0.492433	-0.502185
23924		5.883461	0.525548	0.842207	-1.154230	-1.816618	0.538012	-0.763184	0.499023	0.208008	0.411957	-0.588236	-0.490884	-0.493258
23925		1.580361	-0.930403	5.636568	-1.321124	-0.907950	0.591532	-0.753662	0.493896	0.242188	0.400378	-0.604132	-0.482846	-0.491510
23926		5.442291	-3.831101	0.557596	0.227148	-0.040882	0.457800	-0.747070	0.508789	0.236816	0.404758	-0.605900	-0.481076	-0.487465
23927		-0.610539	1.997159	4.783969	0.486103	1.158339	-0.283102	-0.761230	0.498535	0.219727	0.413779	-0.594538	-0.480217	-0.494674
23928		0.004538	-0.087947	2.826789	-0.051301	-0.258880	0.235040	-0.757080	0.496826	0.221924	0.413318	-0.597731	-0.479670	-0.491735
23929		-0.161095	-0.635459	-2.427481	-0.824123	0.144174	0.114047	-0.759277	0.494385	0.230957	0.408722	-0.601620	-0.473229	-0.497044
23930		0.080812	0.278426	-0.300150	-0.106895	0.375248	-0.059682	-0.751709	0.496094	0.225830	0.409774	-0.599337	-0.471377	-0.500684
23931		0.447168	0.798771	1.026052	-0.030766	0.448183	-0.157800	-0.761475	0.495605	0.204834	0.411194	-0.595738	-0.470132	-0.504966
23932		0.239351	0.587978	0.867315	-0.437480	0.784580	-0.371070	-0.755615	0.485352	0.202148	0.410307	-0.590679	-0.466131	-0.515236
23933		-0.401205	0.490501	-1.040293	-0.602865	0.943407	-0.458066	-0.780518	0.472656	0.193115	0.408396	-0.585000	-0.460630	-0.528022
23934		0.913761	-1.249609	-5.157344	0.160453	1.226994	-0.695782	-0.788086	0.461670	0.165039	0.412021	-0.571918	-0.460541	-0.539491
23935		10.522508	-2.022972	-0.704330	0.767289	1.292421	-0.777565	-0.804688	0.453125	0.127197	0.419672	-0.554621	-0.464527	-0.548165
23936		27.915431	-0.118457	6.069825	2.516112	2.001762	-0.857845	-0.821533	0.443848	0.064453	0.442603	-0.522201	-0.476786	-0.551437
23937		31.554691	-0.794373	5.073732	0.878317	1.411220	-0.180566	-0.814941	0.445557	0.024902	0.455479	-0.506419	-0.476067	-0.556272
23938		29.520476	0.016698	-3.641184	0.378961	0.284662	0.682487	-0.813965	0.466553	0.019775	0.464378	-0.506397	-0.472486	-0.551972
23939		25.989725	8.268522	-4.532329	-0.280629	-1.517556	0.892374	-0.803223	0.477539	0.064453	0.459766	-0.523760	-0.473348	-0.538732
23940		22.051046	-1.585601	-4.171366	-0.971980	-2.975855	1.116228	-0.779297	0.499512	0.128662	0.442898	-0.555667	-0.476149	-0.518032
23941		19.316122	-0.430122	-2.059258	0.926356	-2.652521	0.335859	-0.767822	0.508301	0.165771	0.435486	-0.569488	-0.494068	-0.491866
23942		10.809719	4.594864	2.638921	0.043923	-1.586032	0.127044	-0.763428	0.500977	0.201660	0.426752	-0.579752	-0.501878	-0.479466
23943		1.916082	0.198347	3.050784	-1.631881	-0.415863	0.269140	-0.748291	0.498047	0.209473	0.413785	-0.592513	-0.492412	-0.485016
23944		-0.744122	-3.629121	-2.395271	0.164689	0.181603	0.027805	-0.756348	0.505127	0.213867	0.416396	-0.590704	-0.492154	-0.485251
23945		0.395999	-1.474124	1.701287	0.971466	0.309830	-0.311049	-0.753662	0.499268	0.197998	0.423619	-0.581810	-0.498645	-0.483112
23946		0.566905	2.212030	2.434835	0.984355	0.097417	-0.313122	-0.756836	0.494629	0.180664	0.429474	-0.574069	-0.506251	-0.479276
23947		-0.494695	0.704784	-1.789388	-0.093594	-0.159393	0.050848	-0.760742	0.494873	0.182129	0.428117	-0.575876	-0.506137	-0.478443
23948		-0.637069	0.646052	-0.554900	-0.117278	-0.069977	-0.007575	-0.760742	0.498291	0.192871	0.426831	-0.576838	-0.505887	-0.478698
23949		0.064705	0.662968	2.267150	-0.215144	-0.145211	-0.125122	-0.763672	0.493896	0.202148	0.423614	-0.578096	-0.506279	-0.479622
23950		0.978090	0.274553	1.893935	-0.155752	-0.180252	-0.251312	-0.770996	0.483887	0.198242	0.419809	-0.578444	-0.508161	-0.480557
23951		1.729879	-1.322992	0.765441	0.131936	0.640388	-0.472713	-0.774414	0.488281	0.182129	0.421996	-0.570793	-0.509104	-0.486752
23952		4.592246	-2.692379	-0.272679	1.096754	1.263583	-0.595937	-0.785400	0.482422	0.146729	0.434219	-0.553426	-0.513081	-0.491855
23953		12.953746	-2.825100	-0.543607	1.133431	0.817252	-0.495321	-0.787354	0.472168	0.125000	0.444248	-0.539056	-0.518771	-0.492889
23954		23.358876	-0.681789	-7.774623	1.329114	0.644843	-0.267980	-0.794922	0.476318	0.099854	0.455644	-0.526015	-0.524947	-0.490028
23955		37.226356	-6.285295	9.670995	3.351148	2.893614	-0.108448	-0.789551	0.477539	-0.002930	0.495280	-0.487879	-0.528749	-0.486925
23956		13.362830	10.555031	-5.861185	2.644208	2.304707	-0.756039	-0.810303	0.467773	-0.074951	0.521540	-0.452236	-0.534314	-0.487838
23957		7.219582	17.177126	-10.369781	-3.838388	-0.221757	0.089657	-0.811035	0.463135	-0.027588	0.498296	-0.478915	-0.510996	-0.511102
23958		9.625033	-10.272974	-8.379501	-3.817281	-1.717922	0.624660	-0.797607	0.477783	0.049805	0.467765	-0.517038	-0.492890	-0.520507
23959		14.119088	-19.841820	-3.571275	1.259348	-1.387113	0.531062	-0.781494	0.487061	0.065186	0.470696	-0.521941	-0.505522	-0.500470
23960		9.019192	2.856358	3.168609	1.793392	-1.515901	0.485632	-0.776367	0.503418	0.079834	0.475636	-0.523894	-0.522148	-0.476096
23961		5.545161	11.499445	-2.142421	0.417852	-1.905199	0.563476	-0.770264	0.515625	0.107910	0.469076	-0.536503	-0.531999	-0.457284
23962		6.862695	2.390673	0.064135	-2.010462	-0.962674	0.515338	-0.759033	0.521240	0.150879	0.451914	-0.557157	-0.522436	-0.460880
23963		7.903097	-2.798201	-4.085694	-0.274175	-0.651502	0.093220	-0.750977	0.520996	0.156982	0.446256	-0.563228	-0.523738	-0.457523
23964		11.469658	-2.992281	3.093938	0.038483	-0.051836	0.120270	-0.746094	0.525146	0.160400	0.446943	-0.564244	-0.523169	-0.456251
23965		12.290284	2.955836	0.427258	0.428342	-0.114822	-0.046793	-0.757080	0.525635	0.162354	0.448981	-0.562409	-0.526269	-0.452938
23966		10.472840	0.915937	-1.328640	0.167591	0.318316	0.187295	-0.753906	0.527588	0.157959	0.453312	-0.561019	-0.524010	-0.452968
23967		9.010190	2.016624	-1.502035	-0.275879	-0.007487	0.052197	-0.754395	0.529053	0.155273	0.451588	-0.563100	-0.522076	-0.454339
23968		9.654065	0.883814	-1.546778	-0.343239	-0.047296	-0.008056	-0.747803	0.520996	0.156494	0.448836	-0.565351	-0.520335	-0.456263
23969		9.528015	-0.424429	-1.273432	-0.152703	-0.045550	-0.047470	-0.752441	0.530029	0.161621	0.447220	-0.566230	-0.519959	-0.457187
23970		9.457135	-1.307535	-0.897626	-0.025083	-0.103127	0.078587	-0.751953	0.520508	0.163818	0.446862	-0.567621	-0.519602	-0.456218
23971		9.336643	-0.798452	-1.226971	0.060929	-0.139283	0.196045	-0.745361	0.525391	0.166260	0.447528	-0.569368	-0.519343	-0.453675
23972		9.340465	-0.001006	-0.752742	0.003680	-0.144830	0.156002	-0.746582	0.541992	0.164307	0.447512	-0.571248	-0.519005	-0.451710
23973		9.933317	-0.365258	-1.194843	-0.131423	-0.135987	0.041076	-0.742432	0.534912	0.171143	0.445997	-0.573166	-0.518415	-0.451456
23974		9.285605	-1.689434	-1.212184	0.017120	-0.150729	-0.029422	-0.742676	0.536133	0.174805	0.445015	-0.573842	-0.519378	-0.450460
23975		9.326343	-2.352509	-1.197694	0.094848	-0.181206	0.035848	-0.741943	0.535889	0.176025	0.444755	-0.574692	-0.520460	-0.448379
23976		9.920295	-1.967064	-0.681193	0.244150	-0.152589	0.066800	-0.729492	0.531982	0.183105	0.445927	-0.574723	-0.522024	-0.445347
23977		10.184490	-0.471442	-0.720884	0.083908	-0.220872	0.067859	-0.722412	0.539062	0.184082	0.445434	-0.576092	-0.523084	-0.442821
23978		10.419511	0.787324	-1.183180	-0.442482	-0.175265	0.090255	-0.728516	0.534424	0.190186	0.441572	-0.580367	-0.520603	-0.444029
23979		9.433715	0.124957	-2.319238	-0.750303	-0.044906	0.120029	-0.728516	0.541504	0.197510	0.436488	-0.585637	-0.515627	-0.447924
23980		9.293036	-2.079830	-2.098406	-0.671745	0.040272	0.081622	-0.732178	0.543701	0.203857	0.432307	-0.589761	-0.510699	-0.452193
23981		9.856772	-3.114141	-1.810916	-0.478773	-0.007060	-0.005329	-0.720947	0.528076	0.220703	0.428751	-0.592512	-0.507707	-0.455341
23982		9.325495	-0.437122	-2.000385	-0.182528	-0.119999	-0.071419	-0.732422	0.529053	0.218506	0.426200	-0.593889	-0.507656	-0.456000
23983		9.522029	1.097820	-2.522157	-0.352834	-0.088402	-0.041868	-0.729980	0.534668	0.222168	0.422811	-0.596073	-0.506299	-0.457808
23984		10.222127	0.416257	-2.228134	-0.473158	-0.023112	-0.091982	-0.731445	0.528564	0.234131	0.418649	-0.598283	-0.504054	-0.461217
23985		10.464873	-0.695303	-2.464289	-0.414224	0.265867	-0.115518	-0.739014	0.521729	0.220703	0.416565	-0.598339	-0.500869	-0.466470
23986		9.975653	-0.211316	-1.596909	-0.201320	0.519854	-0.067137	-0.733398	0.523682	0.223389	0.418011	-0.595963	-0.497275	-0.472031
23987		9.929320	0.085327	-1.393820	0.032901	0.699865	-0.067105	-0.745850	0.513184	0.215088	0.422214	-0.591420	-0.493921	-0.477493
23988		9.674063	0.860535	-2.263970	0.170788	0.426693	-0.100253	-0.752441	0.517578	0.204102	0.425527	-0.587393	-0.493379	-0.480077
23989		8.246400	-0.020530	-3.347608	0.279235	0.224048	0.055060	-0.747314	0.518066	0.192627	0.429313	-0.584970	-0.493345	-0.479699
23990		7.530827	-2.334215	-2.646709	0.254307	-0.071511	0.437657	-0.744629	0.527100	0.188477	0.433385	-0.586800	-0.491901	-0.475265
23991		7.617121	-1.239444	-1.226481	0.278723	-0.214968	0.534895	-0.735596	0.541504	0.196289	0.437330	-0.589874	-0.490694	-0.469054
23992		8.704422	2.217465	-2.316375	0.045476	-0.430044	0.232198	-0.727295	0.543457	0.198975	0.436397	-0.593660	-0.491459	-0.464320
23993		10.217517	3.337572	-3.876091	0.007296	-0.646541	-0.296714	-0.732666	0.535156	0.202881	0.430775	-0.595607	-0.497082	-0.461080
23994		11.353758	-1.809151	-0.887390	-0.111085	-0.403998	-0.056222	-0.726074	0.538330	0.218262	0.427193	-0.598157	-0.499007	-0.459028
23995		8.517744	-4.024091	-1.445491	0.236976	-0.600932	0.366588	-0.716797	0.548340	0.226562	0.427340	-0.602693	-0.500650	-0.451100
23996		8.969548	-1.062914	-1.705935	0.214607	-0.690489	0.279069	-0.717529	0.551514	0.234375	0.426224	-0.607280	-0.503210	-0.443083
23997		10.092610	1.675767	-2.838909	0.173776	-0.430792	-0.003172	-0.709473	0.555420	0.237549	0.424868	-0.608726	-0.506439	-0.438702
23998		10.266872	0.652322	-2.277913	0.160478	-0.223799	-0.029987	-0.714111	0.545654	0.241211	0.424563	-0.608988	-0.508562	-0.436171
23999		9.534893	-1.515284	-2.075982	-0.100275	-0.121348	-0.013694	-0.705566	0.559326	0.251709	0.423011	-0.610037	-0.508858	-0.435867
24000		9.023133	-2.185832	-2.254237	-0.254846	-0.093510	0.026888	-0.710693	0.552246	0.243896	0.420629	-0.612220	-0.507518	-0.436673
24001		9.400339	-1.568181	-2.757490	-0.199890	-0.008910	0.032439	-0.708496	0.550781	0.253174	0.419301	-0.613544	-0.506123	-0.437710
24002		9.286365	-0.571230	-2.300901	-0.150468	0.103394	-0.026676	-0.703369	0.553711	0.250000	0.418705	-0.613638	-0.504879	-0.439581
24003		9.298929	-0.672078	-2.262986	0.056392	0.015162	-0.124724	-0.704590	0.553467	0.256348	0.418602	-0.612587	-0.505830	-0.440051
24004		9.601581	-0.970996	-3.028341	0.138082	-0.215745	-0.138042	-0.703613	0.552490	0.252441	0.417555	-0.612327	-0.508531	-0.438292
24005		9.941446	-1.194341	-2.680617	0.101630	-0.213056	0.002377	-0.717041	0.552490	0.255859	0.417034	-0.613126	-0.509903	-0.436072
24006		9.754620	-1.011304	-2.085150	0.090452	-0.010983	0.023058	-0.699219	0.551758	0.254395	0.417847	-0.612891	-0.510194	-0.435283
24007		9.726743	-0.530346	-2.046322	0.073806	0.160254	-0.054063	-0.708252	0.557373	0.259766	0.419175	-0.611432	-0.509916	-0.436381
24008		9.484035	-0.499131	-2.358444	-0.031293	0.106265	-0.047573	-0.711426	0.550781	0.250244	0.419361	-0.610877	-0.509310	-0.437686
24009		9.368527	-0.947187	-2.627913	-0.070547	-0.008114	-0.018601	-0.710938	0.551758	0.256592	0.418715	-0.611252	-0.508960	-0.438188
24010		9.068504	-1.207950	-2.818387	-0.115140	-0.044470	0.004419	-0.707275	0.547607	0.257080	0.417600	-0.612235	-0.508362	-0.438574
24011		9.256803	-1.045516	-2.751758	-0.011984	-0.028805	-0.015012	-0.708496	0.547363	0.254150	0.417270	-0.612457	-0.508415	-0.438516
24012		9.417784	-0.788614	-2.412585	0.003048	-0.003337	-0.055894	-0.704346	0.548828	0.262939	0.417010	-0.612181	-0.508739	-0.438772
24013		9.465128	-0.712754	-2.375279	-0.048799	-0.033820	-0.034981	-0.706055	0.545898	0.253906	0.416230	-0.612551	-0.508708	-0.439032
24014		9.243202	-0.862734	-2.705673	-0.022500	-0.035099	-0.018776	-0.710938	0.550537	0.259766	0.415776	-0.612838	-0.508735	-0.439031
24015		9.211474	-0.856138	-2.979885	0.050261	-0.033083	-0.050494	-0.712646	0.542236	0.252686	0.415704	-0.612553	-0.509381	-0.438749
24016		9.347322	-0.680381	-2.973834	0.126194	-0.064025	-0.077565	-0.708740	0.546143	0.260010	0.415903	-0.611773	-0.510937	-0.437838
24017		9.435145	-0.624547	-2.592184	0.076918	-0.063349	-0.056853	-0.706299	0.548828	0.259277	0.415800	-0.611464	-0.511963	-0.437168
24018		9.263230	-0.605367	-2.620179	0.042266	-0.046005	-0.049182	-0.704590	0.535645	0.254639	0.415581	-0.611330	-0.512577	-0.436844
24019		9.274313	-0.427979	-2.984307	0.069061	-0.063277	-0.059788	-0.707031	0.551758	0.247070	0.415424	-0.610975	-0.513672	-0.436204
24020		9.426182	-0.328237	-2.896117	0.023017	-0.062487	-0.048498	-0.711670	0.553223	0.262207	0.414999	-0.611032	-0.514195	-0.435912
24021		9.477455	-0.316905	-2.435142	-0.078267	-0.024310	-0.035404	-0.706543	0.547852	0.251465	0.414069	-0.611510	-0.513908	-0.436465
24022		9.585224	-0.287084	-2.424922	-0.114436	0.011015	-0.041182	-0.712402	0.541748	0.256348	0.413095	-0.611913	-0.513279	-0.437560
24023		9.386592	-0.408765	-2.612968	-0.136299	0.026217	-0.022560	-0.710693	0.542236	0.262207	0.412152	-0.612396	-0.512438	-0.438758
24024		9.314755	-0.622676	-2.689188	-0.118743	0.011891	-0.016715	-0.716553	0.536865	0.268066	0.411262	-0.612940	-0.511684	-0.439713
24025		9.446302	-0.644219	-2.587255	-0.086346	0.000830	-0.038183	-0.719238	0.531982	0.267578	0.410430	-0.613175	-0.511453	-0.440431
24026		9.492524	-0.509174	-2.468570	-0.069117	0.004189	-0.020423	-0.706055	0.538818	0.271973	0.409862	-0.613368	-0.511233	-0.440946
24027		9.388346	-0.470936	-2.561827	-0.063376	0.005956	-0.003693	-0.707764	0.531250	0.275635	0.409399	-0.613785	-0.510677	-0.441440
24028		9.393189	-0.477459	-2.720441	-0.083283	-0.002708	-0.004311	-0.715088	0.537598	0.267090	0.408724	-0.614285	-0.510177	-0.441948
24029		9.440293	-0.420816	-2.662031	-0.063411	0.003809	-0.010149	-0.707520	0.538086	0.274170	0.408250	-0.614593	-0.509767	-0.442432
24030		9.459473	-0.411992	-2.442095	-0.099406	0.014161	-0.002506	-0.711426	0.531982	0.281250	0.407571	-0.615146	-0.508967	-0.443209
24031		9.354389	-0.437687	-2.559266	-0.073754	0.009420	-0.007311	-0.709961	0.536377	0.265625	0.407025	-0.615509	-0.508481	-0.443764
24032		9.359191	-0.497915	-2.672215	-0.036967	-0.000305	-0.013299	-0.716797	0.535645	0.265137	0.406715	-0.615707	-0.508210	-0.444084
24033		9.435278	-0.470607	-2.601810	-0.077272	0.003711	0.002022	-0.706787	0.532959	0.264160	0.406219	-0.616137	-0.507644	-0.444588
24034		9.299204	-0.429475	-2.615470	-0.031747	0.003921	0.001746	-0.705811	0.539307	0.270996	0.406068	-0.616368	-0.507278	-0.444824
24035		9.298450	-0.439540	-2.622922	-0.007097	-0.021614	-0.014324	-0.706543	0.534424	0.274902	0.405824	-0.616584	-0.507215	-0.444819
24036		9.331709	-0.433947	-2.759565	0.015416	-0.022306	-0.031698	-0.712891	0.530029	0.276123	0.405647	-0.616547	-0.507484	-0.444725
24037		9.413167	-0.472394	-2.605554	-0.007546	-0.015295	-0.012241	-0.713867	0.535889	0.271484	0.405458	-0.616644	-0.507546	-0.444692
24038		9.419012	-0.464087	-2.604278	-0.010798	-0.012492	-0.006998	-0.702148	0.528564	0.271484	0.405302	-0.616803	-0.507468	-0.444703
24039		9.322551	-0.429264	-2.774294	-0.026494	-0.006329	-0.002472	-0.714111	0.528564	0.276123	0.405081	-0.617046	-0.507232	-0.444836
24040		9.306431	-0.417908	-2.723447	-0.004486	-0.012732	-0.013091	-0.706299	0.521973	0.275635	0.404935	-0.617087	-0.507331	-0.444799
24041		9.443122	-0.442916	-2.642319	-0.004280	-0.012510	-0.020133	-0.713379	0.533936	0.275635	0.404751	-0.617077	-0.507497	-0.444791
24042		9.403400	-0.503046	-2.595737	-0.046018	-0.003996	0.002090	-0.707031	0.536621	0.271729	0.404420	-0.617421	-0.507127	-0.445037
24043		9.379045	-0.513051	-2.710597	-0.016050	0.003015	-0.006850	-0.709961	0.534180	0.277832	0.404318	-0.617559	-0.506881	-0.445219
24044		9.373237	-0.476250	-2.720427	-0.032750	0.007704	0.000107	-0.710938	0.539062	0.271240	0.404142	-0.617782	-0.506511	-0.445489
24045		9.348618	-0.406359	-2.701569	-0.010709	0.002208	-0.006129	-0.710938	0.530518	0.272949	0.404086	-0.617895	-0.506299	-0.445626
24046		9.355246	-0.440288	-2.668749	-0.014501	0.001340	-0.002890	-0.708252	0.529541	0.267822	0.404018	-0.617995	-0.506141	-0.445727
24047		9.347387	-0.492210	-2.737764	-0.029206	0.002441	0.001258	-0.703857	0.524414	0.280029	0.403881	-0.618182	-0.505861	-0.445910
24048		9.384396	-0.436453	-2.690981	-0.028175	-0.002316	0.006132	-0.708984	0.533691	0.279053	0.403709	-0.618442	-0.505586	-0.446018
24049		9.375924	-0.452607	-2.577688	-0.044078	0.010050	0.011865	-0.708740	0.527100	0.277588	0.403526	-0.618779	-0.505056	-0.446315
24050		9.356431	-0.438230	-2.644222	-0.008335	0.012357	-0.001907	-0.708008	0.538818	0.284424	0.403571	-0.618787	-0.504893	-0.446448
24051		9.355112	-0.512787	-2.696864	0.007832	-0.005706	-0.002126	-0.708740	0.529297	0.268066	0.403589	-0.618913	-0.504778	-0.446387
24052		9.326756	-0.477048	-2.637848	-0.005083	-0.000461	0.000124	-0.711426	0.533447	0.273682	0.403620	-0.618973	-0.504676	-0.446392
24053		9.343488	-0.447978	-2.652637	0.012954	0.007718	-0.006309	-0.706787	0.528076	0.283936	0.403786	-0.618884	-0.504654	-0.446390
24054		9.359334	-0.486612	-2.650940	0.002794	-0.007080	0.005015	-0.704102	0.532471	0.277344	0.403808	-0.619019	-0.504571	-0.446277
24055		9.442456	-0.500418	-2.716056	0.009095	-0.010826	0.000387	-0.710938	0.536377	0.271973	0.403844	-0.619133	-0.504529	-0.446133
24056		9.410265	-0.412047	-2.716429	0.013667	-0.011977	0.000883	-0.710205	0.536133	0.276367	0.403934	-0.619205	-0.504537	-0.445942
24057		9.332041	-0.432305	-2.686685	0.015826	0.006492	0.005146	-0.714844	0.539795	0.274658	0.404167	-0.619202	-0.504426	-0.445861
24058		9.312426	-0.520551	-2.617261	-0.000287	-0.000198	-0.004366	-0.704590	0.534424	0.273682	0.404188	-0.619251	-0.504335	-0.445877
24059		9.372194	-0.577951	-2.697931	-0.028218	-0.011443	0.006399	-0.711426	0.529297	0.281982	0.403977	-0.619584	-0.504051	-0.445928
24060		9.382150	-0.558390	-2.675856	-0.009057	0.004314	0.009249	-0.706543	0.535645	0.269775	0.404018	-0.619705	-0.503853	-0.445945
24061		9.392272	-0.552783	-2.657432	0.024147	-0.000847	0.001511	-0.711914	0.528564	0.275879	0.404270	-0.619663	-0.503862	-0.445766
24062		9.389022	-0.530497	-2.660826	0.007591	-0.006820	0.000522	-0.703125	0.535156	0.273438	0.404342	-0.619680	-0.503906	-0.445627
24063		9.369150	-0.549037	-2.653628	0.006122	0.001305	0.002130	-0.703125	0.536865	0.275879	0.404456	-0.619740	-0.503783	-0.445579
24064		9.349509	-0.580758	-2.649947	0.023668	0.006965	-0.000482	-0.709961	0.536133	0.272461	0.404717	-0.619678	-0.503734	-0.445483
24065		9.337582	-0.542914	-2.615681	0.015217	-0.002154	-0.002731	-0.711426	0.532227	0.281738	0.404861	-0.619649	-0.503759	-0.445365
24066		9.378791	-0.552559	-2.703931	0.042892	0.002066	-0.009708	-0.706299	0.531250	0.271729	0.405182	-0.619410	-0.503995	-0.445139
24067		9.366576	-0.568724	-2.646572	0.027713	0.005086	-0.002593	-0.708496	0.531250	0.271973	0.405469	-0.619263	-0.504075	-0.444990
24068		9.363334	-0.544758	-2.670954	0.025614	-0.006634	-0.003608	-0.705322	0.534668	0.273682	0.405661	-0.619178	-0.504224	-0.444766
24069		9.362023	-0.555574	-2.721617	0.034209	-0.012900	-0.006093	-0.710693	0.542236	0.275635	0.405854	-0.619104	-0.504424	-0.444465
24070		9.352469	-0.557229	-2.649322	0.034004	-0.009894	-0.001983	-0.707520	0.532715	0.287842	0.406081	-0.619062	-0.504547	-0.444176
24071		9.405146	-0.569277	-2.568568	0.013655	-0.001687	-0.008759	-0.707764	0.541016	0.273926	0.406127	-0.619034	-0.504596	-0.444117
24072		9.411669	-0.532939	-2.618375	0.018255	0.004515	-0.009733	-0.718018	0.537109	0.270752	0.406283	-0.618942	-0.504619	-0.444077
24073		9.414935	-0.582042	-2.623382	0.027503	0.013970	-0.003492	-0.698486	0.533203	0.273926	0.406626	-0.618716	-0.504690	-0.443996
24074		9.350014	-0.583048	-2.688907	0.028734	0.014738	-0.009747	-0.706055	0.538330	0.271484	0.406920	-0.618514	-0.504727	-0.443968
24075		9.325417	-0.497268	-2.728434	0.018509	0.009124	-0.013861	-0.703369	0.531006	0.271729	0.407087	-0.618357	-0.504777	-0.443977
24076		9.332054	-0.571033	-2.687854	0.013423	0.001906	-0.009328	-0.706055	0.538330	0.270264	0.407193	-0.618270	-0.504837	-0.443932
24077		9.381463	-0.594752	-2.645130	0.015723	0.005004	-0.009821	-0.703613	0.539307	0.268555	0.407337	-0.618173	-0.504864	-0.443904
24078		9.456180	-0.588176	-2.713943	-0.012462	0.009234	-0.005700	-0.700439	0.530518	0.271484	0.407315	-0.618232	-0.504667	-0.444066
24079		9.308139	-0.566531	-2.626538	-0.007383	0.004683	-0.004071	-0.704102	0.540039	0.275391	0.407304	-0.618279	-0.504545	-0.444150
24080		9.360799	-0.545801	-2.620688	0.011405	0.002258	-0.007401	-0.712402	0.543701	0.267822	0.407390	-0.618267	-0.504509	-0.444128
24081		9.378017	-0.560718	-2.542533	-0.011224	0.002649	-0.006674	-0.708496	0.537109	0.276367	0.407338	-0.618333	-0.504380	-0.444231
24082		9.433503	-0.573449	-2.560286	-0.017060	0.009788	-0.009125	-0.715576	0.542480	0.278076	0.407245	-0.618383	-0.504200	-0.444451
24083		9.424167	-0.561681	-2.634674	0.006895	0.022237	-0.009392	-0.710205	0.537354	0.267578	0.407412	-0.618245	-0.504085	-0.444620
24084		9.409340	-0.562974	-2.604434	0.004830	0.011113	-0.007448	-0.711182	0.539307	0.273193	0.407533	-0.618156	-0.504037	-0.444686
24085		9.342057	-0.487362	-2.653373	-0.016250	0.013365	-0.004233	-0.711914	0.536865	0.272461	0.407505	-0.618207	-0.503810	-0.444899
24086		9.372735	-0.499012	-2.632723	-0.026139	0.025598	-0.007534	-0.706299	0.537354	0.276611	0.407463	-0.618203	-0.503512	-0.445281
24087		9.360940	-0.574130	-2.597249	-0.019061	0.021872	-0.013390	-0.710693	0.548096	0.266357	0.407400	-0.618186	-0.503272	-0.445633
24088		9.364424	-0.628380	-2.671087	-0.017015	0.016232	-0.007406	-0.708984	0.537109	0.270996	0.407383	-0.618229	-0.503011	-0.445883
24089		9.316249	-0.585239	-2.748643	-0.004084	0.008036	-0.009044	-0.708008	0.540283	0.264160	0.407393	-0.618213	-0.502920	-0.445998
24090		9.356754	-0.529301	-2.644667	-0.000291	-0.006093	-0.003190	-0.704590	0.540527	0.273682	0.407396	-0.618290	-0.502876	-0.445939
24091		9.402771	-0.504394	-2.596042	-0.017530	0.001105	0.002020	-0.703857	0.547119	0.269531	0.407308	-0.618490	-0.502614	-0.446038
24092		9.400347	-0.482127	-2.554386	-0.023884	0.008975	-0.003325	-0.708008	0.538330	0.268555	0.407200	-0.618663	-0.502290	-0.446262
24093		9.412967	-0.558030	-2.580215	-0.012493	0.003030	-0.009817	-0.717773	0.538330	0.264648	0.407118	-0.618710	-0.502185	-0.446389
24094		9.405844	-0.653611	-2.577592	-0.002063	-0.001124	-0.005395	-0.705078	0.535645	0.262451	0.407134	-0.618708	-0.502181	-0.446382
24095		9.409963	-0.572579	-2.555002	-0.008887	0.001321	0.001310	-0.706787	0.540771	0.276367	0.407149	-0.618796	-0.502043	-0.446402
24096		9.394583	-0.467496	-2.573685	-0.000999	0.005021	0.000372	-0.704346	0.538818	0.274902	0.407200	-0.618875	-0.501871	-0.446439
24097		9.414401	-0.474400	-2.590218	-0.020820	0.009768	-0.001531	-0.714111	0.535156	0.271240	0.407120	-0.619012	-0.501586	-0.446643
24098		9.365928	-0.515534	-2.590467	-0.034279	0.012221	-0.000736	-0.703613	0.536133	0.276611	0.406975	-0.619146	-0.501281	-0.446931
24099		9.359384	-0.570110	-2.614299	-0.028697	0.006346	0.000856	-0.705078	0.536377	0.277100	0.406822	-0.619352	-0.500957	-0.447148
24100		9.349573	-0.619014	-2.582346	-0.017792	-0.001486	0.001141	-0.710693	0.533936	0.273193	0.406706	-0.619544	-0.500737	-0.447234
24101		9.447351	-0.610656	-2.565594	-0.001065	-0.002311	-0.009580	-0.700439	0.542236	0.270264	0.406672	-0.619544	-0.500749	-0.447251
24102		9.372399	-0.570523	-2.568605	-0.000559	-0.012178	-0.002601	-0.709229	0.541504	0.266846	0.406620	-0.619702	-0.500683	-0.447152
24103		9.342029	-0.568617	-2.593590	0.012387	-0.017703	-0.002481	-0.706787	0.537109	0.275146	0.406652	-0.619780	-0.500772	-0.446917
24104		9.360933	-0.581411	-2.528620	0.000167	-0.017410	-0.007349	-0.704590	0.534180	0.272949	0.406538	-0.619902	-0.500814	-0.446803
24105		9.444766	-0.612322	-2.491421	-0.002107	-0.014346	-0.006578	-0.711182	0.539307	0.278320	0.406437	-0.620010	-0.500838	-0.446718
24106		9.467000	-0.559799	-2.564130	0.014453	0.000475	-0.007328	-0.708496	0.529541	0.266113	0.406540	-0.619961	-0.500867	-0.446660
24107		9.349144	-0.553983	-2.629173	0.017483	-0.008124	-0.006704	-0.711670	0.541504	0.273682	0.406654	-0.619879	-0.501034	-0.446483
24108		9.318692	-0.535604	-2.691918	0.000171	-0.017419	-0.007347	-0.708008	0.535889	0.276611	0.406548	-0.619994	-0.501083	-0.446365
24109		9.361063	-0.553881	-2.608635	-0.015810	-0.003300	-0.008081	-0.703857	0.535645	0.270752	0.406393	-0.620106	-0.500980	-0.446467
24110		9.384135	-0.602112	-2.521700	0.001434	-0.007522	-0.013892	-0.706543	0.536377	0.278564	0.406330	-0.620109	-0.501048	-0.446443
24111		9.408189	-0.605794	-2.673733	0.002460	-0.014608	-0.009297	-0.709961	0.532471	0.275391	0.406233	-0.620196	-0.501099	-0.446354
24112		9.366272	-0.566747	-2.619959	0.005810	0.000236	-0.006630	-0.708984	0.537109	0.270264	0.406283	-0.620162	-0.501116	-0.446337
24113		9.356894	-0.508726	-2.612166	0.003497	-0.004342	-0.009667	-0.708252	0.540283	0.270996	0.406284	-0.620150	-0.501163	-0.446300
24114		9.382606	-0.508612	-2.626797	-0.007936	-0.004889	-0.008727	-0.706543	0.543457	0.278564	0.406196	-0.620221	-0.501122	-0.446326
24115		9.386052	-0.531150	-2.602418	0.002743	0.003543	-0.010772	-0.707031	0.535156	0.271484	0.406208	-0.620220	-0.501066	-0.446379
24116		9.369686	-0.528977	-2.619963	-0.000318	-0.005212	-0.010234	-0.709717	0.533936	0.274170	0.406167	-0.620232	-0.501097	-0.446366
24117		9.326596	-0.549354	-2.657463	-0.001560	-0.006876	-0.004566	-0.712402	0.536621	0.269043	0.406130	-0.620291	-0.501090	-0.446326
24118		9.398132	-0.538402	-2.628822	-0.005141	-0.009002	-0.008083	-0.712402	0.536133	0.276855	0.406051	-0.620341	-0.501121	-0.446294
24119		9.391936	-0.547897	-2.548502	-0.011971	-0.008337	-0.002537	-0.712891	0.530762	0.274414	0.405929	-0.620481	-0.501038	-0.446303
24120		9.410361	-0.551182	-2.612172	0.003000	-0.007125	-0.007290	-0.700439	0.541260	0.271973	0.405912	-0.620479	-0.501102	-0.446249
24121		9.337786	-0.570554	-2.670834	0.012153	-0.003505	-0.007457	-0.711914	0.534668	0.271240	0.405994	-0.620474	-0.501131	-0.446150
24122		9.340599	-0.608909	-2.632471	0.004781	-0.021215	-0.004815	-0.713623	0.535889	0.268799	0.405927	-0.620562	-0.501253	-0.445951
24123		9.401702	-0.581909	-2.592826	0.006288	-0.023460	-0.007583	-0.707275	0.535889	0.270752	0.405851	-0.620627	-0.501430	-0.445730
24124		9.443229	-0.568299	-2.608415	0.016206	-0.001539	-0.009562	-0.713135	0.539795	0.275391	0.405972	-0.620531	-0.501539	-0.445631
24125		9.381172	-0.528797	-2.627807	0.016439	-0.006626	-0.012519	-0.707275	0.535645	0.276855	0.406033	-0.620455	-0.501683	-0.445519
24126		9.311408	-0.505373	-2.702172	0.006084	-0.013968	-0.001692	-0.708984	0.532227	0.264160	0.406020	-0.620550	-0.501710	-0.445367
24127		9.288021	-0.606972	-2.654962	-0.009947	-0.013987	-0.004159	-0.703369	0.533447	0.282959	0.405909	-0.620651	-0.501741	-0.445294
24128		9.351786	-0.677291	-2.664824	-0.012790	-0.021073	-0.010965	-0.711426	0.539307	0.276611	0.405632	-0.620846	-0.501742	-0.445272
24129		9.425942	-0.624013	-2.632811	0.014186	-0.024752	-0.006795	-0.712891	0.538574	0.274414	0.405593	-0.620921	-0.501919	-0.445004
24130		9.408632	-0.574475	-2.612964	0.031223	-0.024763	-0.006483	-0.703369	0.536133	0.280273	0.405696	-0.620896	-0.502205	-0.444621
24131		9.360840	-0.504557	-2.695496	0.011876	-0.016402	-0.010114	-0.702393	0.541504	0.273438	0.405658	-0.620940	-0.502323	-0.444463
24132		9.364523	-0.544208	-2.613817	-0.001110	-0.010602	-0.012523	-0.703369	0.538086	0.277588	0.405568	-0.620994	-0.502373	-0.444412
24133		9.343381	-0.581968	-2.663433	0.001434	-0.019646	-0.013042	-0.710693	0.532471	0.277588	0.405424	-0.621084	-0.502481	-0.444296
24134		9.412974	-0.642666	-2.733433	0.010604	-0.011593	-0.010305	-0.712402	0.537598	0.283691	0.405415	-0.621064	-0.502614	-0.444182
24135		9.405371	-0.595198	-2.574690	0.031464	-0.007476	-0.008578	-0.705078	0.543945	0.277832	0.405588	-0.620956	-0.502794	-0.443972
24136		9.356919	-0.548302	-2.541392	0.014153	-0.004167	-0.010902	-0.708252	0.546387	0.281250	0.405655	-0.620919	-0.502868	-0.443877
24137		9.363257	-0.525000	-2.742476	0.030367	-0.006903	-0.018760	-0.707520	0.541504	0.277344	0.405779	-0.620776	-0.503094	-0.443708
24138		9.329757	-0.590883	-2.761700	0.049973	-0.018909	-0.018412	-0.699219	0.537598	0.273438	0.405989	-0.620578	-0.503514	-0.443317
24139		9.316251	-0.564835	-2.716688	0.035246	-0.027892	-0.018310	-0.702393	0.541260	0.275635	0.406036	-0.620504	-0.503900	-0.442938
24140		9.358154	-0.554376	-2.669492	0.012138	-0.018307	-0.012196	-0.705811	0.536621	0.273682	0.405994	-0.620542	-0.504053	-0.442751
24141		9.376249	-0.507772	-2.693061	0.016732	-0.017666	-0.010549	-0.705322	0.537842	0.276611	0.406004	-0.620533	-0.504245	-0.442534
24142		9.431932	-0.524623	-2.649345	0.001177	-0.002517	-0.010960	-0.705811	0.549561	0.272949	0.405979	-0.620531	-0.504261	-0.442542
24143		9.424120	-0.586460	-2.577420	-0.001230	0.013187	-0.019575	-0.708984	0.533936	0.278320	0.406008	-0.620416	-0.504243	-0.442698
24144		9.368328	-0.587674	-2.652926	0.018345	0.007365	-0.022762	-0.714844	0.538330	0.274902	0.406104	-0.620186	-0.504402	-0.442749
24145		9.266027	-0.629223	-2.761911	0.017170	0.000138	-0.014430	-0.701416	0.536865	0.272705	0.406205	-0.620042	-0.504546	-0.442695
24146		9.294491	-0.571675	-2.807409	0.019958	-0.003112	-0.017021	-0.712402	0.539551	0.274658	0.406298	-0.619909	-0.504719	-0.442599
24147		9.389298	-0.551840	-2.778360	0.005262	-0.005568	-0.011316	-0.706543	0.531982	0.273438	0.406288	-0.619886	-0.504792	-0.442556
24148		9.308673	-0.573804	-2.718947	-0.016027	-0.010381	-0.004140	-0.705566	0.540039	0.272461	0.406120	-0.620036	-0.504722	-0.442580
24149		9.274622	-0.570628	-2.777288	-0.002911	-0.006603	-0.015293	-0.708984	0.537598	0.280029	0.406027	-0.620045	-0.504782	-0.442586
24150		9.347691	-0.600415	-2.678474	-0.011235	-0.016953	-0.011895	-0.705078	0.534912	0.277832	0.405798	-0.620186	-0.504799	-0.442578
24151		9.435786	-0.612111	-2.644491	-0.019638	-0.004887	-0.007649	-0.709961	0.540039	0.280273	0.405609	-0.620325	-0.504683	-0.442689
24152		9.412871	-0.562517	-2.666396	-0.014652	0.016823	-0.009006	-0.700439	0.545410	0.278809	0.405586	-0.620317	-0.504488	-0.442943
24153		9.326755	-0.524317	-2.770208	-0.000115	-0.000376	-0.012912	-0.702393	0.535156	0.270752	0.405556	-0.620336	-0.504466	-0.442969
24154		9.293600	-0.561507	-2.799814	0.001168	-0.013190	-0.018003	-0.702881	0.534912	0.269531	0.405443	-0.620332	-0.504615	-0.442909
24155		9.344682	-0.586545	-2.673475	-0.012072	-0.004955	-0.015375	-0.712402	0.531738	0.276367	0.405298	-0.620360	-0.504637	-0.442977
24156		9.383669	-0.598659	-2.688914	-0.011335	0.001593	-0.014862	-0.701416	0.528809	0.279541	0.405178	-0.620345	-0.504620	-0.443127
24157		9.369952	-0.565657	-2.726185	0.020227	-0.001661	-0.014423	-0.708496	0.532715	0.277588	0.405272	-0.620224	-0.504754	-0.443057
24158		9.307637	-0.500885	-2.734354	0.005003	0.000135	-0.009258	-0.703857	0.543213	0.279053	0.405298	-0.620187	-0.504774	-0.443063
24159		9.340075	-0.455711	-2.728531	-0.011820	-0.003277	-0.015109	-0.704590	0.542236	0.281738	0.405147	-0.620255	-0.504733	-0.443153
24160		9.374143	-0.517182	-2.676866	-0.001159	-0.001571	-0.016645	-0.696533	0.537842	0.280273	0.405071	-0.620256	-0.504744	-0.443209
24161		9.358012	-0.579762	-2.698396	0.006506	-0.002429	-0.013505	-0.698730	0.541016	0.281494	0.405067	-0.620247	-0.504773	-0.443191
24162		9.340855	-0.538189	-2.722854	-0.003345	-0.005230	-0.007632	-0.702637	0.534424	0.268311	0.405001	-0.620347	-0.504711	-0.443182
24163		9.376616	-0.479206	-2.698941	-0.005903	0.000286	-0.005648	-0.708008	0.533447	0.279785	0.404997	-0.620371	-0.504673	-0.443196
24164		9.354438	-0.523908	-2.692660	-0.008496	-0.000449	-0.011590	-0.705322	0.538086	0.279541	0.404897	-0.620401	-0.504628	-0.443297
24165		9.393556	-0.562363	-2.717880	-0.013343	0.001328	-0.012045	-0.708984	0.535645	0.276367	0.404775	-0.620457	-0.504541	-0.443429
24166		9.538195	-0.461448	-2.792756	-0.023252	0.008547	-0.005885	-0.706787	0.530029	0.272705	0.404664	-0.620537	-0.504342	-0.443645
24167		9.677936	-0.262320	-2.804584	-0.089866	0.040370	-0.010625	-0.708008	0.526123	0.281006	0.404216	-0.620728	-0.503668	-0.444550
24168		9.531477	-0.225797	-2.814221	-0.172971	0.068779	-0.020801	-0.711670	0.538818	0.289795	0.403214	-0.621135	-0.502433	-0.446285
24169		9.580082	-0.354967	-2.918258	-0.212949	0.115788	-0.039850	-0.696777	0.526123	0.279785	0.402079	-0.621404	-0.500838	-0.448721
24170		9.418136	-0.591949	-2.882058	-0.245978	0.169263	-0.054599	-0.705078	0.527832	0.280762	0.400959	-0.621417	-0.498928	-0.451822
24171		9.247123	-0.675158	-2.882506	-0.282342	0.185886	-0.037983	-0.709717	0.523926	0.278320	0.399749	-0.621608	-0.496600	-0.455185
24172		9.197846	-0.689778	-3.153511	-0.347560	0.240477	-0.021782	-0.715088	0.524902	0.282959	0.398463	-0.621879	-0.493512	-0.459281
24173		9.196715	-0.601296	-3.040990	-0.439439	0.251728	-0.002618	-0.717285	0.520020	0.273438	0.396618	-0.622655	-0.489660	-0.463927
24174		9.224834	-0.631641	-2.937551	-0.484402	0.231601	0.020740	-0.722412	0.523193	0.278564	0.394454	-0.623842	-0.485502	-0.468525
24175		9.255963	-0.664925	-2.791865	-0.544218	0.212950	0.038896	-0.724854	0.517090	0.281250	0.391795	-0.625525	-0.480911	-0.473223
24176		9.394103	-0.670964	-2.613774	-0.548493	0.203168	0.037473	-0.717285	0.513672	0.283447	0.389013	-0.627235	-0.476334	-0.477861
24177		9.548685	-0.631213	-2.271473	-0.581391	0.222136	0.037361	-0.713623	0.513916	0.285889	0.386068	-0.628968	-0.471436	-0.482803
24178		9.848661	-0.428789	-2.261310	-0.505041	0.274894	0.012200	-0.719238	0.507080	0.291992	0.383874	-0.629841	-0.466913	-0.487784
24179		10.048677	-0.116376	-2.062907	-0.472999	0.394858	-0.005791	-0.718262	0.494629	0.286621	0.382477	-0.629695	-0.462108	-0.493612
24180		10.259705	0.349679	-1.814683	-0.465137	0.521842	-0.022665	-0.735596	0.493896	0.281738	0.381743	-0.628568	-0.456857	-0.500456
24181		10.065705	0.599377	-1.635015	-0.486453	0.639509	-0.034841	-0.735107	0.491211	0.286377	0.381410	-0.626655	-0.450985	-0.508373
24182		10.296920	0.781568	-1.509945	-0.383450	0.727289	-0.100530	-0.738525	0.482422	0.270752	0.381887	-0.623308	-0.445762	-0.516668
24183		10.548544	0.776068	-1.518118	-0.219113	0.855918	-0.193023	-0.746338	0.478760	0.260010	0.383736	-0.617731	-0.441680	-0.525427
24184		9.947252	0.281523	-1.274832	-0.134758	0.916550	-0.224164	-0.760010	0.471680	0.240234	0.386308	-0.611107	-0.438032	-0.534268
24185		9.713668	-0.115837	-1.257254	0.124039	0.886751	-0.239447	-0.766357	0.471924	0.222412	0.390546	-0.603234	-0.436333	-0.541476
24186		9.425601	-0.263278	-0.848178	0.324220	0.815548	-0.251396	-0.773926	0.474121	0.205078	0.395783	-0.594731	-0.436367	-0.547024
24187		8.944477	0.126736	-0.461155	0.365412	0.703440	-0.246554	-0.784668	0.469482	0.181641	0.400707	-0.586762	-0.437141	-0.551410
24188		8.489719	0.782536	-0.610767	0.277958	0.550475	-0.205636	-0.787598	0.462158	0.164062	0.404415	-0.580423	-0.437761	-0.554907
24189		8.253286	1.272831	-1.139246	0.010926	0.285386	-0.161445	-0.791504	0.459717	0.165771	0.405028	-0.577471	-0.437542	-0.557706
24190		7.888411	1.054698	-1.819774	-0.166526	0.008692	-0.051250	-0.787598	0.463623	0.171143	0.403578	-0.577975	-0.436663	-0.558923
24191		7.792360	0.687889	-1.583067	-0.042763	-0.325855	0.028259	-0.795898	0.452637	0.177734	0.401756	-0.580649	-0.437747	-0.556611
24192		8.021830	0.679822	-1.693141	0.122632	-0.504698	0.054480	-0.783447	0.462158	0.184570	0.400277	-0.583828	-0.440691	-0.552010
24193		8.464630	0.929690	-1.245134	0.106783	-0.593778	0.106337	-0.783203	0.465088	0.189209	0.398575	-0.587974	-0.443575	-0.546502
24194		9.488856	1.442590	-1.646539	-0.088930	-0.755832	0.204455	-0.771240	0.476074	0.211914	0.395198	-0.594668	-0.445200	-0.540357
24195		10.012642	1.005907	-1.238574	-0.449176	-0.873362	0.413142	-0.769531	0.479980	0.226807	0.389845	-0.605065	-0.443336	-0.534201
24196		13.066443	0.122352	-1.497061	-0.292061	-0.923602	0.524756	-0.756592	0.490234	0.252197	0.386091	-0.615488	-0.441872	-0.526173
24197		11.359014	-0.816217	0.132297	-0.209400	-0.564796	0.576779	-0.745361	0.497559	0.264160	0.385227	-0.623370	-0.438738	-0.520114
24198		8.556651	-1.531146	-0.454270	-0.143516	-0.416615	0.499300	-0.734863	0.496826	0.272949	0.385144	-0.629487	-0.435878	-0.515189
24199		8.830434	-0.759722	-2.741015	-0.191125	-0.308430	0.034053	-0.729736	0.502197	0.292969	0.382229	-0.632568	-0.435823	-0.513632
24200		9.881211	-0.650209	-2.696278	0.695311	-0.361586	-0.162534	-0.734863	0.500977	0.278320	0.384721	-0.630707	-0.443207	-0.507707
24201		10.554908	-1.132506	-1.200843	0.511858	-0.420897	0.210399	-0.719238	0.512451	0.279785	0.387809	-0.632045	-0.446780	-0.500511
24202		10.037794	-1.935682	-0.736641	-0.573578	-0.249604	0.503425	-0.719727	0.518799	0.306396	0.385100	-0.639182	-0.440365	-0.499223
24203		10.417089	-1.549968	-1.748231	-0.473116	-0.078655	0.234380	-0.720215	0.519043	0.303955	0.382354	-0.643288	-0.435823	-0.500044
24204		10.622400	-0.837214	-0.867788	-0.088903	0.120170	0.055822	-0.714844	0.521240	0.302979	0.382695	-0.643274	-0.434190	-0.501221
24205		10.325156	-0.803440	-0.029387	-0.232776	0.172222	0.060385	-0.717041	0.527100	0.306152	0.382200	-0.643655	-0.431357	-0.503550
24206		9.753775	-1.125967	-0.757912	-0.500941	0.242838	0.048318	-0.717773	0.514404	0.297119	0.379848	-0.644804	-0.426569	-0.507920
24207		9.265607	-1.161744	-1.464540	-0.256816	0.240201	-0.076632	-0.715332	0.514893	0.293701	0.378651	-0.644071	-0.424355	-0.511584
24208		9.333996	-1.388718	-1.614653	0.196654	0.204248	-0.161288	-0.723633	0.504395	0.298584	0.380400	-0.640964	-0.425891	-0.512911
24209		10.053239	-1.038886	-1.408487	0.163725	0.233768	-0.110784	-0.732666	0.520020	0.282227	0.382261	-0.638118	-0.426619	-0.514469
24210		9.370821	-0.238550	-1.098498	-0.157190	0.220619	0.046526	-0.722900	0.511719	0.281982	0.382609	-0.637673	-0.424135	-0.516810
24211		9.357599	-0.041022	-2.096838	0.102088	0.112720	0.005819	-0.731201	0.517334	0.276123	0.384155	-0.636491	-0.424142	-0.517115
24212		9.510558	-0.492644	-2.341958	0.424187	0.212355	-0.203268	-0.732910	0.521484	0.268066	0.387452	-0.631971	-0.427424	-0.517496
24213		9.558722	-0.870775	-1.157074	0.558437	0.238911	-0.320164	-0.733643	0.506104	0.259033	0.391192	-0.625979	-0.432348	-0.517874
24214		9.797334	-1.413307	-0.374333	0.464236	0.172882	-0.229799	-0.748535	0.510498	0.255127	0.394333	-0.621342	-0.436223	-0.517827
24215		10.801886	-1.908101	-1.125269	0.261446	0.220795	-0.069130	-0.748779	0.509766	0.247070	0.397171	-0.618257	-0.437275	-0.518463
24216		11.083825	-1.517310	-1.270375	0.359890	0.462246	-0.086676	-0.750000	0.511719	0.245605	0.401960	-0.613001	-0.437883	-0.520497
24217		10.859495	-0.230338	-0.234533	0.676008	0.811701	-0.250039	-0.763916	0.511719	0.220947	0.409931	-0.602971	-0.439960	-0.524230
24218		10.676394	0.946463	0.845310	0.564582	1.217576	-0.432120	-0.773926	0.505859	0.176025	0.417994	-0.589691	-0.440494	-0.532457
24219		11.791875	2.168150	1.724675	0.306984	1.699629	-0.703759	-0.783447	0.488770	0.135010	0.424888	-0.572741	-0.438638	-0.546841
24220		12.024528	3.699929	1.432696	0.204008	2.073115	-1.021459	-0.804199	0.473633	0.095947	0.430632	-0.551631	-0.436064	-0.565781
24221		11.929202	4.537226	-0.461208	0.311107	2.145523	-1.189670	-0.817627	0.444580	0.054199	0.435924	-0.528041	-0.434614	-0.585024
24222		11.033857	2.835476	-2.018508	0.518254	2.156679	-1.442071	-0.843018	0.418213	0.004639	0.440307	-0.501349	-0.435842	-0.604004
24223		10.908084	-1.094329	2.762439	0.292834	2.082178	-1.595982	-0.849854	0.378662	-0.047363	0.441222	-0.475069	-0.436288	-0.623928
24224		11.487688	-1.041196	4.258176	-0.226631	1.760024	-1.262540	-0.855957	0.357422	-0.075684	0.439506	-0.455508	-0.432085	-0.642378
24225		9.953909	2.074195	1.739582	0.101616	1.925621	-1.188345	-0.873535	0.319824	-0.117432	0.440804	-0.432929	-0.428827	-0.659068
24226		8.037942	4.197278	0.293994	0.293351	1.631414	-1.354974	-0.865723	0.300537	-0.154297	0.439742	-0.410445	-0.429418	-0.673619
24227		9.096943	3.525191	1.385845	-0.188636	1.360260	-1.274916	-0.875732	0.272217	-0.187988	0.435257	-0.393114	-0.426711	-0.688426
24228		9.433169	1.972927	2.075890	-0.696114	1.469539	-1.133354	-0.874756	0.245361	-0.216309	0.429831	-0.378074	-0.418125	-0.705321
24229		8.965029	1.319829	2.452663	-0.509571	1.463782	-1.075566	-0.870850	0.224365	-0.247314	0.425487	-0.362120	-0.410735	-0.720505
24230		8.590754	1.625839	2.153228	-0.115977	1.326929	-1.115708	-0.870605	0.196045	-0.280762	0.421660	-0.344882	-0.407590	-0.732892
24231		8.648901	2.156560	2.794702	0.096846	1.220400	-1.076882	-0.868896	0.172119	-0.297607	0.418367	-0.327454	-0.406645	-0.743224
24232		8.117951	2.578620	3.734679	-0.039021	1.137028	-1.022829	-0.865234	0.154053	-0.333740	0.414370	-0.311759	-0.404542	-0.753292
24233		7.537292	2.659823	4.144253	0.051688	0.969651	-0.941764	-0.852783	0.128906	-0.346191	0.410608	-0.297374	-0.403645	-0.761604
24234		7.112494	2.306108	3.558368	0.072962	0.807782	-0.862290	-0.848145	0.112793	-0.366943	0.406703	-0.284782	-0.403439	-0.768589
24235		6.657619	1.863186	3.935593	0.339987	0.654784	-0.809539	-0.845459	0.092529	-0.382080	0.403448	-0.272492	-0.406263	-0.773258
24236		6.190229	2.356871	4.394129	0.519680	0.488953	-0.723101	-0.845459	0.077148	-0.397949	0.400724	-0.261291	-0.411297	-0.775875
24237		5.891366	3.163365	4.040290	0.627717	0.273921	-0.626270	-0.847900	0.052734	-0.395508	0.398180	-0.252099	-0.418006	-0.776640
24238		5.905613	3.527230	4.109469	0.739276	0.084234	-0.487022	-0.833496	0.032715	-0.403320	0.396182	-0.244980	-0.426382	-0.775386
24239		5.558060	4.033087	4.820184	0.503818	0.005224	-0.275661	-0.836182	0.022217	-0.395020	0.395115	-0.240740	-0.432121	-0.774080
24240		5.416156	4.028802	4.245600	0.424598	-0.172888	-0.117021	-0.845703	0.019043	-0.397705	0.394303	-0.239595	-0.437542	-0.771801
24241		6.141759	4.407882	4.407459	0.314039	-0.193046	0.019490	-0.844727	0.018799	-0.390381	0.394400	-0.239935	-0.441513	-0.769381
24242		5.786489	4.518506	5.475223	0.146657	-0.212450	0.171745	-0.847168	0.020508	-0.390869	0.395354	-0.242178	-0.443485	-0.767050
24243		6.575325	4.391683	5.450792	-0.117343	-0.200952	0.294440	-0.843506	0.024414	-0.388184	0.396764	-0.246232	-0.442457	-0.765624
24244		6.370674	4.294226	4.264079	0.223247	-0.146061	0.332574	-0.850830	0.027588	-0.380615	0.399878	-0.248199	-0.444296	-0.762297
24245		6.408363	4.710914	4.599338	0.294636	-0.205458	0.352047	-0.857178	0.037598	-0.378418	0.402994	-0.250555	-0.447122	-0.758221
24246		6.948681	5.389464	4.598457	0.158479	-0.224938	0.362745	-0.844727	0.040039	-0.371582	0.405702	-0.253891	-0.448636	-0.754765
24247		7.831152	4.686880	4.977608	-0.152251	-0.198564	0.350054	-0.852295	0.047607	-0.351318	0.407442	-0.258400	-0.447119	-0.753197
24248		7.279986	4.396307	4.470654	-0.302532	-0.171141	0.398629	-0.850342	0.060791	-0.356689	0.409170	-0.263889	-0.444041	-0.752177
24249		6.573333	4.798254	4.406749	-0.103094	-0.175148	0.438172	-0.859375	0.072754	-0.357910	0.411979	-0.268495	-0.442583	-0.749870
24250		6.140476	4.398754	4.119857	0.084193	-0.250060	0.470081	-0.856689	0.084229	-0.344971	0.415304	-0.272996	-0.443108	-0.746090
24251		5.824784	3.633156	3.365559	0.065045	-0.412281	0.526025	-0.862793	0.090332	-0.344727	0.418144	-0.279498	-0.444089	-0.741499
24252		5.731241	3.454250	2.864860	-0.015913	-0.657710	0.565866	-0.864746	0.110107	-0.331787	0.419682	-0.288764	-0.445430	-0.736257
24253		9.056488	4.429808	4.589424	-0.162094	-0.636929	0.573697	-0.874023	0.119629	-0.315186	0.420887	-0.298667	-0.445118	-0.731793
24254		10.965828	5.315043	6.386726	0.021901	-0.222383	0.457288	-0.875977	0.123779	-0.306396	0.423935	-0.303141	-0.444808	-0.728375
24255		11.161376	5.177690	7.502530	0.136747	0.125840	0.309309	-0.871094	0.141113	-0.311768	0.427943	-0.303001	-0.444346	-0.726368
24256		5.958236	4.821101	4.813106	0.202078	0.122032	0.189207	-0.870850	0.142334	-0.317383	0.431154	-0.301948	-0.444757	-0.724655
24257		6.070832	2.910264	1.600338	-0.154733	-0.353271	0.358248	-0.872559	0.144775	-0.311523	0.431892	-0.308020	-0.443851	-0.722211
24258		9.375041	1.832800	3.977236	0.521872	-0.353048	0.581268	-0.874756	0.159912	-0.305420	0.437204	-0.311571	-0.448230	-0.714749
24259		11.308813	3.360296	5.350055	0.797916	-0.051563	0.560518	-0.875488	0.171875	-0.312012	0.445055	-0.310826	-0.453378	-0.706938
24260		9.338589	4.479561	3.932107	0.701652	-0.173154	0.593209	-0.876953	0.178223	-0.302734	0.452101	-0.311844	-0.458072	-0.698948
24261		8.312086	1.747845	3.248007	0.502901	-0.202032	0.765664	-0.872803	0.191162	-0.299316	0.459606	-0.315246	-0.460554	-0.690849
24262		9.447860	2.232547	3.361911	0.818886	-0.047281	0.641457	-0.879395	0.199707	-0.306885	0.468105	-0.314735	-0.465293	-0.682145
24263		8.700540	3.269141	3.994492	0.494978	0.019731	0.527194	-0.869629	0.200684	-0.311523	0.474688	-0.314817	-0.467276	-0.676177
24264		7.904635	2.331025	3.808999	0.285447	-0.134364	0.477820	-0.869873	0.206543	-0.304199	0.479100	-0.317059	-0.468590	-0.671089
24265		8.313640	1.671318	3.540343	0.370554	-0.053670	0.324689	-0.870117	0.211426	-0.303711	0.482990	-0.317231	-0.470791	-0.666664
24266		8.040068	2.488532	3.824113	0.403893	0.119035	0.205558	-0.868164	0.225098	-0.309082	0.487016	-0.315065	-0.472680	-0.663417
24267		7.950757	3.081642	3.864962	0.284016	0.142414	0.213080	-0.863525	0.221436	-0.319092	0.490782	-0.313551	-0.473249	-0.660950
24268		7.894031	3.454411	3.619125	0.094635	0.083898	0.193634	-0.859131	0.212646	-0.317627	0.493300	-0.313477	-0.472694	-0.659506
24269		7.846522	2.664129	3.367755	0.056410	0.020720	0.059224	-0.863525	0.221436	-0.310303	0.494166	-0.313305	-0.472860	-0.658820
24270		7.896409	2.540316	2.794710	0.053047	0.060535	-0.154657	-0.863281	0.222168	-0.316650	0.493477	-0.311658	-0.473569	-0.659608
24271		8.409728	2.259951	3.133847	-0.009092	0.097459	-0.299910	-0.867676	0.218018	-0.314453	0.491581	-0.309223	-0.474021	-0.661841
24272		8.942711	2.712785	3.667732	-0.020511	0.128288	-0.377546	-0.869385	0.211426	-0.331787	0.489163	-0.306161	-0.474493	-0.664711
24273		10.277628	3.288328	4.356930	-0.015452	0.078751	-0.295993	-0.860840	0.199951	-0.334229	0.487166	-0.303897	-0.474910	-0.666915
24274		10.108049	2.580546	3.670050	-0.177093	0.020398	-0.114228	-0.867676	0.203857	-0.328857	0.485728	-0.304149	-0.473652	-0.668742
24275		9.877707	1.823507	4.355809	-0.105179	-0.082125	-0.051063	-0.869873	0.202393	-0.314209	0.484470	-0.305238	-0.473388	-0.669345
24276		9.428837	1.868739	4.559329	-0.013868	-0.103639	-0.097146	-0.865723	0.202637	-0.322998	0.483029	-0.305710	-0.474248	-0.669562
24277		8.373891	2.690442	3.506909	0.097237	-0.038367	-0.112323	-0.865234	0.198242	-0.316406	0.482289	-0.304843	-0.475629	-0.669511
24278		7.531074	2.908745	3.678814	0.185781	0.046854	-0.109457	-0.867676	0.184326	-0.324463	0.482408	-0.302754	-0.477252	-0.669218
24279		7.789018	3.347972	3.200617	0.343914	0.105958	-0.184679	-0.859863	0.180420	-0.327393	0.482850	-0.298716	-0.480156	-0.668636
24280		8.201398	4.275189	3.662446	0.354781	0.161071	-0.246642	-0.866943	0.178711	-0.325684	0.483133	-0.293782	-0.483004	-0.668567
24281		9.358883	4.618529	3.688675	0.183754	0.242389	-0.317992	-0.872070	0.171387	-0.327393	0.482654	-0.288801	-0.484182	-0.670229
24282		10.369447	5.055348	4.381518	0.037008	0.372216	-0.359938	-0.866455	0.165771	-0.345215	0.482058	-0.283365	-0.483503	-0.673461
24283		9.197831	4.668205	3.989475	0.118184	0.523705	-0.429113	-0.859619	0.152100	-0.354736	0.482062	-0.275714	-0.482760	-0.677157
24284		7.073081	3.738085	3.760281	0.100777	0.565112	-0.396331	-0.847412	0.143799	-0.367188	0.482500	-0.267984	-0.481492	-0.680841
24285		5.749693	2.747680	3.172442	0.087494	0.374745	-0.214667	-0.846191	0.135010	-0.373291	0.483268	-0.263033	-0.480601	-0.682853
24286		6.744762	2.926633	3.145518	0.165248	0.175814	-0.034172	-0.841797	0.134766	-0.378418	0.484630	-0.260383	-0.481003	-0.682621
24287		7.173968	3.865606	3.515626	0.207802	0.141121	0.100831	-0.849609	0.135010	-0.388672	0.487068	-0.258583	-0.481514	-0.681207
24288		6.833841	4.468184	3.139271	0.204444	0.033873	0.152203	-0.850586	0.135986	-0.384521	0.489283	-0.258014	-0.482481	-0.679149
24289		7.256378	4.298456	2.911920	0.186012	-0.220852	0.212593	-0.851074	0.137695	-0.374756	0.490406	-0.260091	-0.484674	-0.675977
24290		7.392965	3.063140	3.033613	0.050860	-0.180859	0.373906	-0.851562	0.146240	-0.372314	0.492682	-0.263636	-0.484970	-0.672729
24291		7.468106	2.773641	2.600946	0.071286	-0.405944	0.513799	-0.853271	0.156738	-0.364990	0.494814	-0.269784	-0.486330	-0.667727
24292		8.632976	3.490497	2.341104	0.266557	-0.380287	0.557350	-0.856201	0.167236	-0.354736	0.498087	-0.274751	-0.488973	-0.661306
24293		10.547283	5.057365	3.845978	0.072838	-0.228000	0.418938	-0.856934	0.175781	-0.358398	0.500451	-0.278813	-0.489527	-0.657400
24294		9.726863	6.211470	4.856538	-0.082810	0.055093	0.233389	-0.848145	0.183350	-0.361084	0.502473	-0.280362	-0.487636	-0.656604
24295		8.099365	4.402420	4.290255	-0.468352	0.027340	0.141981	-0.855957	0.187988	-0.361084	0.502211	-0.283995	-0.483023	-0.658649
24296		7.240662	2.838887	2.846580	-0.384104	0.034767	0.098260	-0.856689	0.197266	-0.362549	0.501920	-0.286754	-0.479234	-0.660441
24297		7.352131	3.080493	2.868962	-0.108038	-0.027418	0.138293	-0.854492	0.197754	-0.343018	0.502566	-0.288538	-0.477936	-0.660114
24298		8.418560	3.442304	3.578087	0.071360	-0.108232	0.234738	-0.859375	0.207031	-0.354248	0.504164	-0.290461	-0.478368	-0.657735
24299		9.171493	4.074972	3.704485	0.010280	-0.039352	0.315327	-0.858398	0.205566	-0.351074	0.506607	-0.292669	-0.477493	-0.655511
24300		8.957753	3.921674	3.743152	0.001257	0.053476	0.325621	-0.854492	0.221191	-0.356689	0.509659	-0.294205	-0.475978	-0.653556
24301		8.954959	3.266074	4.288886	0.070843	0.277632	0.323347	-0.844971	0.218750	-0.353271	0.514258	-0.293466	-0.473517	-0.652072
24302		7.991845	2.934968	4.063933	0.225533	0.058732	0.382346	-0.844727	0.232422	-0.358887	0.518603	-0.293846	-0.473574	-0.648408
24303		8.326426	3.122778	3.018200	0.215345	-0.135460	0.419522	-0.850586	0.237549	-0.359619	0.522032	-0.296096	-0.474594	-0.643871
24304		9.611233	3.465835	3.964984	0.195025	-0.036417	0.514161	-0.840820	0.253662	-0.362305	0.526718	-0.298218	-0.474463	-0.639155
24305		9.905373	2.631438	4.311593	0.258938	-0.103313	0.589803	-0.837891	0.254395	-0.366699	0.531810	-0.300901	-0.474895	-0.633334
24306		9.544603	2.518993	3.529825	0.401085	-0.096396	0.588115	-0.833252	0.266602	-0.356934	0.537442	-0.302512	-0.476422	-0.626630
24307		9.351536	3.290960	3.693285	0.607052	-0.033224	0.570469	-0.836426	0.271484	-0.369629	0.544030	-0.302141	-0.479172	-0.618980
24308		10.022953	4.277327	4.082945	0.046277	-0.135082	0.608341	-0.833008	0.281982	-0.368896	0.548144	-0.306549	-0.478092	-0.613998
24309		9.622116	2.556732	3.728449	-0.287493	-0.304722	0.664449	-0.836426	0.301025	-0.345947	0.550355	-0.314846	-0.475364	-0.609927
24310		9.341002	1.221255	3.732192	-0.149112	-0.423401	0.605836	-0.834961	0.309814	-0.345215	0.551894	-0.322755	-0.474749	-0.604860
24311		9.605784	1.713700	3.653361	-0.170080	-0.471468	0.590730	-0.835693	0.327637	-0.333252	0.552909	-0.331019	-0.474316	-0.599785
24312		9.574443	1.135129	3.832828	-0.294888	-0.532472	0.708651	-0.828369	0.337646	-0.317871	0.553858	-0.341279	-0.472800	-0.594331
24313		9.422770	0.568191	3.493235	-0.197886	-0.603489	0.789649	-0.831543	0.363770	-0.303955	0.555324	-0.351810	-0.472098	-0.587340
24314		9.306170	0.584237	3.001104	-0.059273	-0.665478	0.786305	-0.830322	0.386230	-0.294678	0.556909	-0.361777	-0.472744	-0.579209
24315		9.204957	0.988343	2.697509	-0.076665	-0.696544	0.750445	-0.827881	0.393066	-0.270996	0.557881	-0.371821	-0.473524	-0.571221
24316		9.141306	0.541475	2.272299	-0.117815	-0.695841	0.763003	-0.823486	0.411621	-0.259033	0.558657	-0.382153	-0.473924	-0.563256
24317		9.363333	0.248125	2.500373	-0.027906	-0.658295	0.812451	-0.818115	0.430664	-0.245117	0.560342	-0.391819	-0.474349	-0.554515
24318		9.193520	0.396892	2.720124	0.166459	-0.650914	0.844432	-0.815674	0.445068	-0.230713	0.563144	-0.400197	-0.475816	-0.544343
24319		9.191390	1.028436	2.082217	0.054052	-0.749638	0.787662	-0.810059	0.463379	-0.222168	0.564303	-0.409627	-0.477420	-0.534638
24320		9.120520	0.677537	1.660290	-0.052880	-0.849521	0.789013	-0.807617	0.478760	-0.205322	0.564223	-0.420399	-0.478894	-0.524955
24321		9.240345	-0.013050	1.006778	0.085908	-0.838745	0.695679	-0.809814	0.487061	-0.184814	0.564212	-0.429476	-0.481603	-0.515047
24322		9.710409	0.275805	0.880915	0.022682	-0.832164	0.645886	-0.799072	0.501465	-0.176514	0.563471	-0.438580	-0.484061	-0.505800
24323		9.687441	0.115590	1.260384	-0.093801	-0.846115	0.659771	-0.800781	0.517090	-0.150146	0.562008	-0.448591	-0.485699	-0.497001
24324		9.368000	-0.296716	1.056372	-0.150401	-0.932828	0.632128	-0.787354	0.531494	-0.130615	0.559408	-0.459298	-0.487658	-0.488158
24325		9.217832	-1.697125	0.417115	-0.166543	-1.034233	0.672455	-0.778320	0.543457	-0.105469	0.556224	-0.470880	-0.489875	-0.478444
24326		9.214244	-2.391213	0.257245	-0.170785	-1.014370	0.734371	-0.776611	0.556885	-0.089600	0.553369	-0.482637	-0.491445	-0.468322
24327		8.924725	-0.702907	0.481303	-0.197851	-0.981748	0.729796	-0.765381	0.575439	-0.061035	0.550394	-0.494233	-0.492546	-0.458474
24328		8.711496	-0.213757	0.102564	-0.447246	-1.079533	0.693127	-0.761719	0.587646	-0.035889	0.544912	-0.507762	-0.492976	-0.449692
24329		8.590564	-0.705453	-0.301107	-0.645139	-1.143043	0.568217	-0.754639	0.594482	-0.015869	0.536917	-0.522064	-0.493375	-0.442438
24330		8.583295	-1.957432	-0.621185	-0.523656	-1.196266	0.493303	-0.745850	0.596924	0.023682	0.528819	-0.535197	-0.495149	-0.434445
24331		8.179618	-2.215662	-0.539931	-0.533517	-1.176849	0.514834	-0.744385	0.622314	0.053955	0.520713	-0.548275	-0.496446	-0.426374
24332		7.548361	-1.928043	-1.967242	-0.527411	-1.332554	0.515734	-0.732422	0.630859	0.081055	0.511521	-0.561975	-0.498601	-0.417047
24333		9.206287	-2.052906	-1.909148	-0.152376	-1.067355	0.367392	-0.725098	0.632568	0.103516	0.505705	-0.570802	-0.501923	-0.408069
24334		10.606173	-1.657871	-0.096377	-0.046623	-0.751368	0.361343	-0.710449	0.638916	0.119629	0.502513	-0.577222	-0.503757	-0.400655
24335		11.061686	-0.332818	-0.303041	-0.194986	-0.347137	0.278803	-0.705566	0.639893	0.124268	0.500344	-0.581994	-0.502857	-0.397586
24336		10.817625	0.256989	0.429918	-0.459473	0.173063	0.081359	-0.703613	0.641357	0.128174	0.498524	-0.584563	-0.498807	-0.401186
24337		10.939638	-1.582080	0.844001	-0.718542	0.537131	-0.120934	-0.714844	0.640381	0.136230	0.496026	-0.585614	-0.492618	-0.410295
24338		9.281760	-2.706147	-0.983063	-0.561394	0.694847	-0.178674	-0.712402	0.630859	0.126953	0.495281	-0.584457	-0.486606	-0.419907
24339		9.028534	-3.533212	-0.754990	-0.051100	0.706297	-0.239298	-0.719971	0.627686	0.117676	0.497969	-0.579642	-0.483591	-0.426826
24340		9.195475	-3.214577	-0.633547	0.207670	0.493124	-0.171925	-0.726318	0.628906	0.106934	0.501565	-0.574727	-0.482759	-0.430192
24341		8.713489	-1.852753	-2.522858	0.290676	0.213054	-0.103877	-0.723145	0.620361	0.095215	0.504415	-0.571191	-0.483618	-0.430603
24342		9.440033	-1.278788	-1.210993	0.410459	-0.046219	-0.105014	-0.729492	0.619629	0.085693	0.506537	-0.568267	-0.486764	-0.428432
24343		9.974450	-1.861759	-1.224276	0.355039	0.013334	-0.063316	-0.718994	0.616699	0.084961	0.508844	-0.565605	-0.488935	-0.426745
24344		9.456884	-1.579719	-2.117286	0.110344	0.193241	-0.025657	-0.725098	0.614990	0.079834	0.510706	-0.563779	-0.488371	-0.427581
24345		9.498684	-1.446570	-0.757557	0.236406	0.168126	-0.099653	-0.733643	0.623779	0.078857	0.512900	-0.560818	-0.489168	-0.427938
24346		9.698597	-1.864928	-0.349675	0.299409	0.151086	-0.113034	-0.728271	0.617432	0.065918	0.515345	-0.557467	-0.490486	-0.427871
24347		9.291806	-1.399762	-1.518657	0.382741	0.164156	-0.134293	-0.734863	0.618652	0.062012	0.518335	-0.553355	-0.492304	-0.427509
24348		9.421309	-1.324160	-0.154410	0.424901	0.398786	-0.242531	-0.739990	0.614014	0.042725	0.522448	-0.547034	-0.493552	-0.429194
24349		9.592427	-1.993167	0.874983	0.399623	0.563768	-0.316068	-0.742432	0.612793	0.030273	0.526983	-0.539485	-0.494058	-0.432610
24350		9.732867	-2.191875	-0.121052	0.517303	0.682798	-0.360971	-0.749756	0.601318	0.009521	0.532739	-0.530196	-0.494647	-0.436356
24351		8.688406	-1.862654	0.275189	0.960523	0.894941	-0.416897	-0.746582	0.606445	-0.026855	0.542320	-0.516331	-0.496515	-0.439049
24352		8.528716	-0.281212	0.015608	0.638178	0.788823	-0.557528	-0.766846	0.576172	-0.044434	0.548277	-0.504243	-0.498084	-0.443896
24353		9.256603	0.427181	0.475130	0.583357	1.023483	-0.809729	-0.773193	0.566895	-0.076904	0.553771	-0.489506	-0.499250	-0.452186
24354		8.990144	0.206880	0.276826	0.280812	1.032392	-0.729750	-0.782959	0.547852	-0.098633	0.557776	-0.477172	-0.497994	-0.461731
24355		8.726419	0.118900	-0.741335	-0.107504	0.937474	-0.807691	-0.788818	0.544189	-0.115479	0.558275	-0.467486	-0.495510	-0.473557
24356		8.218435	-0.604894	1.063893	-0.086458	1.058456	-0.679108	-0.792480	0.525879	-0.127441	0.560277	-0.457639	-0.491409	-0.484946
24357		9.717173	-2.821496	-0.071555	0.000091	1.021263	-0.580715	-0.794434	0.522949	-0.152344	0.562994	-0.447919	-0.487425	-0.494796
24358		9.535193	-0.510068	2.254231	0.076447	1.018482	-0.666431	-0.804932	0.502930	-0.168945	0.565480	-0.437059	-0.484287	-0.504656
24359		9.503272	-0.012580	2.029038	0.202575	0.810545	-0.673924	-0.805908	0.489990	-0.191650	0.567217	-0.426480	-0.483380	-0.512566
24360		8.970183	-0.235770	0.901284	0.259501	0.885690	-0.567353	-0.804932	0.477539	-0.212158	0.570300	-0.415578	-0.481641	-0.519686
24361		9.021742	0.283244	1.457712	0.031628	0.958045	-0.489609	-0.807129	0.473877	-0.235596	0.573038	-0.406224	-0.477415	-0.527906
24362		10.817632	-1.193844	2.807946	0.280447	0.747902	-0.446408	-0.806152	0.457275	-0.253662	0.575987	-0.396670	-0.476031	-0.533186
24363		9.502366	0.127395	2.386740	0.337697	0.796598	-0.548365	-0.811279	0.444580	-0.271240	0.578745	-0.385705	-0.475129	-0.539017
24364		7.491012	2.020958	0.469067	-0.010949	0.805414	-0.444197	-0.815186	0.432129	-0.285156	0.580483	-0.377769	-0.471249	-0.546127
24365		11.283648	0.433971	4.050151	0.183821	0.498348	-0.388849	-0.803711	0.428955	-0.291992	0.581646	-0.370799	-0.470642	-0.550174
24366		12.629386	-1.611966	4.617995	0.357279	0.339924	-0.327798	-0.817871	0.417236	-0.303711	0.583063	-0.364019	-0.472031	-0.552010
24367		8.761984	1.696375	1.449609	0.241125	0.217315	-0.235501	-0.810059	0.414062	-0.312988	0.583838	-0.359452	-0.473102	-0.553265
24368		8.083841	1.361107	1.690485	0.058203	0.695150	-0.321925	-0.809814	0.406006	-0.334961	0.585993	-0.352384	-0.469761	-0.558357
24369		9.641871	1.574467	4.117451	0.035341	0.379840	-0.308907	-0.803223	0.402100	-0.334961	0.586261	-0.347720	-0.468490	-0.562055
24370		11.524001	0.887033	3.878298	0.250445	0.024500	-0.205024	-0.804932	0.399414	-0.343994	0.586085	-0.344596	-0.470854	-0.562187
24371		9.348800	0.706334	3.059172	0.518329	0.065689	-0.177732	-0.808350	0.385498	-0.351562	0.587488	-0.339365	-0.474654	-0.560708
24372		7.709473	1.416595	2.248760	0.306444	0.382667	-0.213779	-0.814941	0.386475	-0.357666	0.589597	-0.333223	-0.474800	-0.562052
24373		8.727031	1.442321	3.315785	0.125996	0.386672	-0.182955	-0.802734	0.372314	-0.366211	0.591157	-0.328578	-0.473494	-0.564246
24374		9.594001	1.681219	4.466609	0.250265	0.187021	-0.187244	-0.803955	0.374268	-0.377441	0.592011	-0.324368	-0.474562	-0.564889
24375		9.343192	0.993321	3.735311	0.224128	0.077309	-0.227855	-0.802246	0.360840	-0.371582	0.591810	-0.320889	-0.476380	-0.565555
24376		8.217639	1.337728	2.519026	0.222490	0.185863	-0.283334	-0.805908	0.355225	-0.380127	0.591839	-0.316318	-0.477627	-0.567047
24377		8.371854	1.995026	3.479376	-0.003689	0.305659	-0.289244	-0.808350	0.348389	-0.389160	0.591632	-0.312527	-0.476393	-0.570393
24378		9.424175	1.631628	3.975744	0.114622	0.150173	-0.273081	-0.809082	0.347168	-0.396729	0.591067	-0.309051	-0.477087	-0.572290
24379		9.071622	1.224818	3.405777	0.224286	0.135604	-0.304057	-0.811768	0.340088	-0.395264	0.590605	-0.304685	-0.478756	-0.573712
24380		7.877632	2.067739	2.406109	0.051599	0.295772	-0.330164	-0.805664	0.324707	-0.405029	0.590230	-0.300294	-0.478098	-0.576952
24381		8.917753	1.827645	3.615603	0.137944	0.247741	-0.316211	-0.810059	0.323486	-0.400391	0.589992	-0.295658	-0.478374	-0.579357
24382		8.999365	2.172995	3.770604	0.124825	0.327630	-0.375156	-0.808105	0.317383	-0.412842	0.589712	-0.290216	-0.478163	-0.582559
24383		9.025193	2.503185	3.417623	0.097123	0.243892	-0.405471	-0.808350	0.310303	-0.415527	0.588593	-0.285394	-0.478437	-0.585839
24384		10.370062	2.322470	4.056875	-0.099945	0.176835	-0.273926	-0.810547	0.297607	-0.429199	0.587311	-0.283303	-0.477277	-0.589078
24385		10.912374	2.075122	4.456188	-0.191400	0.176084	-0.190931	-0.803223	0.293945	-0.433105	0.586326	-0.282331	-0.475179	-0.592213
24386		9.965051	1.615983	3.713659	-0.362735	0.221958	-0.131391	-0.808594	0.310059	-0.428467	0.585445	-0.282612	-0.471246	-0.596080
24387		9.239487	2.535192	3.879105	-0.252898	0.102716	-0.083109	-0.796387	0.302734	-0.433350	0.584567	-0.283316	-0.468778	-0.598549
24388		9.469385	1.889198	3.917870	-0.176336	-0.048147	-0.078828	-0.802734	0.297852	-0.433105	0.583125	-0.284573	-0.467974	-0.599986
24389		8.285649	2.719931	3.751380	-0.060042	-0.023973	-0.155105	-0.802002	0.304199	-0.433350	0.581671	-0.284332	-0.468178	-0.601351
24390		7.339482	3.019983	3.456300	-0.168059	0.009774	-0.230708	-0.814697	0.293213	-0.426514	0.579449	-0.284204	-0.467535	-0.604051
24391		7.459499	2.601799	3.906603	-0.196674	-0.051701	-0.246883	-0.809082	0.293213	-0.421875	0.576634	-0.284633	-0.467261	-0.606749
24392		7.792769	2.232446	4.510539	-0.226535	-0.045511	-0.286150	-0.808594	0.295898	-0.420654	0.573436	-0.285008	-0.466812	-0.609941
24393		7.880768	2.322347	3.945392	-0.250274	0.034524	-0.256740	-0.814209	0.284912	-0.418945	0.570827	-0.285128	-0.465448	-0.613366
24394		8.308409	2.787522	4.297556	-0.254003	0.067150	-0.117569	-0.812500	0.295410	-0.420410	0.569462	-0.285800	-0.463382	-0.615881
24395		8.994178	2.479479	4.643081	-0.211759	0.003940	-0.003472	-0.819092	0.289062	-0.417236	0.568742	-0.287347	-0.461610	-0.617156
24396		8.714550	3.304996	4.350040	-0.048989	0.083096	-0.018978	-0.815918	0.296387	-0.417725	0.568949	-0.287008	-0.460660	-0.617831
24397		8.004029	3.378493	3.848690	-0.173253	0.068772	-0.029614	-0.812256	0.294189	-0.425049	0.568533	-0.287627	-0.458839	-0.619279
24398		8.018328	3.153715	3.467015	-0.187850	-0.064975	0.016212	-0.805908	0.301270	-0.420654	0.567665	-0.289617	-0.457689	-0.620000
24399		8.438499	2.138490	3.755486	0.033644	-0.137415	0.078186	-0.808350	0.292969	-0.422852	0.567653	-0.290970	-0.458498	-0.618778
24400		8.623933	3.152230	3.772262	-0.016224	-0.054799	0.070367	-0.806641	0.298584	-0.413086	0.567893	-0.291947	-0.458422	-0.618154
24401		8.393189	3.369735	3.848996	-0.106383	-0.010581	0.100912	-0.809814	0.302490	-0.418701	0.568276	-0.293427	-0.457211	-0.617998
24402		8.343691	1.992332	3.759986	-0.063795	-0.171895	0.199306	-0.813477	0.303955	-0.412842	0.568655	-0.296399	-0.457107	-0.616305
24403		8.744345	2.123576	3.657480	0.093947	-0.229508	0.258975	-0.812500	0.315430	-0.403809	0.569742	-0.299021	-0.458439	-0.613037
24404		9.862120	2.404715	4.345235	0.231540	-0.217974	0.306509	-0.822266	0.318359	-0.398438	0.571742	-0.300876	-0.460514	-0.608696
24405		9.890870	2.453836	3.854933	0.204471	-0.267824	0.351525	-0.824463	0.323975	-0.403809	0.573675	-0.303550	-0.462604	-0.603947
24406		9.163006	1.883032	3.764483	0.180966	-0.273708	0.432962	-0.821045	0.324463	-0.392578	0.576086	-0.306877	-0.464217	-0.598710
24407		9.027317	1.675089	3.449715	0.230699	-0.290119	0.427056	-0.814697	0.332031	-0.398682	0.578522	-0.309909	-0.466373	-0.593098
24408		9.066744	2.275924	3.897335	0.158856	-0.257155	0.362872	-0.815918	0.338623	-0.388428	0.580384	-0.312815	-0.467934	-0.588506
24409		9.667758	2.322885	3.973277	-0.085984	-0.293306	0.318283	-0.818604	0.342041	-0.381348	0.580719	-0.317505	-0.468133	-0.585497
24410		9.973776	1.133227	3.548235	-0.181297	-0.354581	0.328728	-0.816650	0.354492	-0.377686	0.580378	-0.323370	-0.468059	-0.582679
24411		10.522527	0.995562	3.345684	-0.202648	-0.363713	0.335251	-0.817383	0.362549	-0.367676	0.579920	-0.329487	-0.467800	-0.579909
24412		10.569951	1.208250	3.350146	-0.268956	-0.381174	0.359332	-0.820312	0.375000	-0.352539	0.579233	-0.336335	-0.467075	-0.577243
24413		10.262527	1.424671	3.045582	-0.288648	-0.582488	0.370860	-0.818115	0.389893	-0.338623	0.577320	-0.344837	-0.467589	-0.573715
24414		10.363396	1.249594	2.645597	-0.395849	-0.672749	0.330307	-0.821533	0.388672	-0.332031	0.574065	-0.354506	-0.468067	-0.570691
24415		10.238788	0.968011	2.423599	-0.533241	-0.728468	0.290317	-0.820801	0.403076	-0.301758	0.569546	-0.365216	-0.468143	-0.568398
24416		10.302638	0.400366	2.283338	-0.622395	-0.780221	0.312231	-0.820801	0.418457	-0.284180	0.564366	-0.377037	-0.467762	-0.566156
24417		9.975251	0.309212	2.031525	-0.678654	-0.897902	0.361951	-0.827393	0.423340	-0.254639	0.558479	-0.390313	-0.467439	-0.563257
24418		9.664500	-0.245227	1.965843	-0.718596	-0.958667	0.406936	-0.830078	0.437744	-0.223389	0.552226	-0.404444	-0.467011	-0.559797
24419		9.410949	-0.559775	2.121321	-0.716530	-0.965070	0.470396	-0.828613	0.454834	-0.197754	0.546241	-0.418884	-0.466203	-0.555708
24420		8.838338	-0.917813	2.079065	-0.674078	-0.976227	0.555274	-0.836182	0.464600	-0.179443	0.540859	-0.433504	-0.465163	-0.550608
24421		9.068559	-1.396745	2.216517	-0.509476	-0.968135	0.673608	-0.822998	0.476562	-0.143066	0.537105	-0.447480	-0.464495	-0.543622
24422		9.192445	-0.858948	1.577814	-0.448582	-0.945999	0.713425	-0.821777	0.493652	-0.129150	0.533933	-0.461036	-0.463757	-0.535995
24423		8.863648	0.512853	0.926050	-0.455960	-0.942351	0.674913	-0.808105	0.510010	-0.097656	0.530369	-0.474252	-0.463044	-0.528568
24424		8.922423	0.935880	0.635962	-0.546735	-1.037066	0.604702	-0.806152	0.523682	-0.068359	0.525105	-0.488198	-0.462623	-0.521447
24425		9.112842	-0.252455	0.743484	-0.582401	-0.986023	0.584490	-0.800049	0.529053	-0.037354	0.519640	-0.501796	-0.461654	-0.514831
24426		8.897456	-0.749576	0.212540	-0.687270	-0.930242	0.615954	-0.796631	0.546387	-0.019043	0.513886	-0.515751	-0.459386	-0.508808
24427		8.549178	-1.108107	0.462899	-0.524745	-0.930166	0.667994	-0.796143	0.558350	0.009766	0.509404	-0.528807	-0.457670	-0.501408
24428		8.715981	-0.929972	0.574226	-0.631136	-0.935728	0.669388	-0.778320	0.571777	0.039307	0.504040	-0.542437	-0.455243	-0.494428
24429		8.585834	-1.340642	0.174210	-0.534913	-0.841967	0.596663	-0.763428	0.589600	0.059082	0.499290	-0.554366	-0.453153	-0.487894
24430		8.611316	-1.722274	-0.165863	-0.413834	-0.790430	0.576682	-0.751465	0.596680	0.072021	0.495481	-0.565022	-0.451452	-0.481082
24431		9.039940	-0.876365	-0.833029	-0.278031	-0.824326	0.485040	-0.749512	0.604004	0.104492	0.491830	-0.574400	-0.451355	-0.473757
24432		8.768878	-0.846681	0.043027	-0.483617	-0.903364	0.440047	-0.740723	0.607422	0.126221	0.485847	-0.585183	-0.450815	-0.467204
24433		9.166855	-1.935844	-0.275939	-0.421280	-0.746555	0.505294	-0.719727	0.609131	0.132324	0.481500	-0.594922	-0.449142	-0.460974
24434		8.588635	-2.315844	-1.025591	0.030139	-0.658480	0.457875	-0.710693	0.621094	0.153320	0.480721	-0.601063	-0.449809	-0.453103
24435		10.269931	-1.552012	-0.031001	0.278845	-0.599702	0.298611	-0.701172	0.642822	0.158447	0.481162	-0.604473	-0.452667	-0.445183
24436		10.499532	-0.746843	0.429665	0.234242	-0.329516	0.108717	-0.705566	0.643311	0.165771	0.481749	-0.605568	-0.454989	-0.440671
24437		10.475334	-0.415025	0.043425	-0.101706	-0.161486	0.044020	-0.701904	0.642822	0.172363	0.480349	-0.607378	-0.454967	-0.439730
24438		9.653214	-0.784566	-1.264620	-0.211571	0.083234	-0.057430	-0.708984	0.632812	0.163086	0.478937	-0.607930	-0.453633	-0.441880
24439		9.910949	-2.504452	-0.779795	-0.179554	0.094356	-0.082710	-0.710693	0.634033	0.170166	0.477707	-0.608019	-0.452646	-0.444094
24440		9.420630	-2.734958	-1.805051	-0.088378	0.114263	-0.116893	-0.705078	0.637939	0.174316	0.477075	-0.607285	-0.452285	-0.446143
24441		8.540556	-2.254444	-1.929561	0.119801	-0.145881	-0.030525	-0.700684	0.625977	0.167969	0.477034	-0.607288	-0.453933	-0.444506
24442		9.376034	-1.816855	-2.028716	0.314241	-0.236660	-0.062775	-0.708496	0.631348	0.159180	0.477772	-0.606410	-0.457471	-0.441272
24443		9.812668	-1.331587	-1.867301	0.064939	-0.199674	-0.040922	-0.704590	0.631592	0.164551	0.476979	-0.606896	-0.459253	-0.439608
24444		9.587088	-1.893774	-1.282026	-0.073574	-0.024157	-0.015244	-0.700439	0.627686	0.172607	0.476272	-0.607410	-0.459019	-0.439909
24445		8.987492	-2.560817	-2.376289	-0.118737	-0.026971	0.052419	-0.708984	0.623535	0.174072	0.475548	-0.608623	-0.458032	-0.440044
24446		9.666800	-1.976157	-1.574485	0.082207	0.037940	-0.038368	-0.701172	0.629883	0.172119	0.476208	-0.607735	-0.458492	-0.440078
24447		9.547072	-1.783799	-1.051133	0.101176	0.100920	-0.022404	-0.708740	0.627197	0.166992	0.477483	-0.606506	-0.458520	-0.440364
24448		9.136381	-1.548016	-1.687699	-0.069392	-0.032493	0.023416	-0.711670	0.629395	0.165283	0.476946	-0.607266	-0.458080	-0.440356
24449		9.616227	-1.551347	-1.906274	0.040854	0.015514	-0.066647	-0.713379	0.637451	0.168701	0.477038	-0.606573	-0.458650	-0.440617
24450		9.684897	-1.633492	-1.563001	-0.116999	0.101883	-0.066490	-0.713623	0.635254	0.170166	0.476429	-0.606373	-0.457810	-0.442422
24451		9.412194	-2.015641	-1.305478	-0.019545	0.170246	-0.021071	-0.713623	0.619629	0.170166	0.477192	-0.605478	-0.456753	-0.443915
24452		9.421033	-1.873323	-1.185301	0.050580	0.163562	-0.061659	-0.713379	0.628174	0.169922	0.478177	-0.603961	-0.456460	-0.445222
24453		9.715704	-1.502795	-1.500606	0.033347	0.248356	-0.128547	-0.717773	0.622314	0.159424	0.479151	-0.601716	-0.456034	-0.447645
24454		9.428140	-1.369349	-1.130177	0.038535	0.220300	-0.169406	-0.719482	0.624756	0.149658	0.479781	-0.599328	-0.456125	-0.450073
24455		9.652317	-1.744546	-1.130765	0.198696	0.162443	-0.177493	-0.721680	0.618164	0.153076	0.481263	-0.596243	-0.457506	-0.451186
24456		9.741892	-1.862526	-0.583150	0.338154	0.291879	-0.282667	-0.731445	0.612793	0.145020	0.483872	-0.591002	-0.459664	-0.453093
24457		9.573506	-2.593753	0.197974	0.739254	0.567423	-0.377296	-0.734375	0.612061	0.117188	0.490428	-0.581170	-0.463089	-0.455268
24458		8.613687	-2.409448	-1.684260	0.634554	0.980367	-0.392650	-0.741455	0.603760	0.094971	0.498467	-0.569419	-0.463391	-0.461044
24459		7.800094	0.282571	-1.070499	0.280979	0.938226	-0.446467	-0.752197	0.597900	0.070068	0.503306	-0.559702	-0.462206	-0.468809
24460		10.306648	-0.627648	1.014142	0.783046	0.683943	-0.577431	-0.759766	0.588379	0.041992	0.509333	-0.547435	-0.466392	-0.472624
24461		9.981808	-1.789524	-0.321643	0.455060	0.681914	-0.453374	-0.767334	0.580566	0.018555	0.513762	-0.537883	-0.467718	-0.477463
24462		8.455193	0.425039	-0.383495	0.153537	0.487251	-0.501837	-0.774170	0.568848	0.013428	0.514694	-0.531074	-0.468772	-0.483014
24463		9.085020	0.437274	-0.654196	0.328065	0.785018	-0.640765	-0.787598	0.562012	-0.007324	0.517598	-0.520484	-0.469829	-0.490356
24464		8.864749	-1.369633	-0.016299	-0.195683	0.827055	-0.405859	-0.786865	0.548584	-0.024658	0.518705	-0.514323	-0.465800	-0.499447
24465		9.616825	-2.931922	0.975562	-0.087314	1.108341	-0.371214	-0.789307	0.545166	-0.047852	0.522283	-0.505798	-0.460325	-0.509402
24466		8.927762	-2.633336	0.541391	0.287230	0.921133	-0.294369	-0.801025	0.544678	-0.072266	0.527559	-0.496369	-0.457870	-0.515416
24467		9.376601	-1.008793	1.027675	0.861695	1.005876	-0.330884	-0.799316	0.534424	-0.099609	0.536534	-0.482281	-0.458682	-0.518794
24468		9.167686	1.176867	1.377146	0.807216	1.202275	-0.424073	-0.802979	0.528809	-0.126953	0.545515	-0.466612	-0.458232	-0.524128
24469		9.281906	0.867438	1.055619	0.431781	0.848237	-0.431487	-0.803711	0.519775	-0.147705	0.550066	-0.455692	-0.457647	-0.529463
24470		9.661703	0.452960	2.268301	0.105466	0.534194	-0.422812	-0.803711	0.509277	-0.161865	0.550950	-0.449098	-0.456952	-0.534752
24471		10.809482	-1.904589	2.294802	0.062610	0.390030	-0.320821	-0.808594	0.494873	-0.170898	0.551428	-0.444309	-0.456364	-0.538747
24472		9.496123	-0.916450	1.193096	0.423437	0.611659	-0.336581	-0.802979	0.495117	-0.191406	0.555017	-0.435398	-0.456765	-0.541987
24473		8.151615	1.502286	1.837639	0.568748	0.762446	-0.419865	-0.813721	0.476562	-0.203613	0.559646	-0.423938	-0.457452	-0.545720
24474		9.708440	1.074668	2.722416	0.364268	0.554171	-0.453751	-0.812500	0.471191	-0.230225	0.561645	-0.415087	-0.458369	-0.549687
24475		10.017097	0.612063	2.375346	-0.068450	0.540462	-0.438407	-0.814941	0.470215	-0.234131	0.561416	-0.409400	-0.456259	-0.555906
24476		9.231996	-0.160933	1.625159	-0.248743	0.391471	-0.313927	-0.822998	0.457031	-0.234131	0.560232	-0.406737	-0.453253	-0.561487
24477		9.947182	-0.926170	2.551359	0.292506	0.388611	-0.251566	-0.820557	0.448242	-0.249268	0.562166	-0.400628	-0.453777	-0.563519
24478		10.342300	-0.870115	3.005515	0.440962	0.497906	-0.272977	-0.817139	0.443115	-0.264160	0.565291	-0.392542	-0.454660	-0.565369
24479		9.290449	0.535632	2.359716	0.283116	0.420454	-0.219629	-0.818359	0.432861	-0.278809	0.567548	-0.386408	-0.454663	-0.567327
24480		8.980375	1.783630	2.933913	0.229145	0.415339	-0.208083	-0.812500	0.438477	-0.295410	0.569576	-0.380719	-0.454264	-0.569456
24481		9.842833	-0.082142	3.358358	0.163469	0.230039	-0.207141	-0.820068	0.429932	-0.297852	0.570254	-0.376829	-0.454636	-0.571066
24482		9.790312	-0.144120	3.067679	0.292927	0.244197	-0.232130	-0.817871	0.424316	-0.296143	0.571409	-0.371765	-0.455972	-0.572165
24483		9.217469	0.946837	2.550373	0.262065	0.387230	-0.166765	-0.818115	0.415283	-0.312988	0.573664	-0.366292	-0.455741	-0.573620
24484		9.942037	0.443511	3.675545	0.369017	0.358800	-0.113569	-0.818604	0.421387	-0.331543	0.576617	-0.360512	-0.456238	-0.573926
24485		10.264821	0.625115	3.245654	0.469024	0.264040	-0.116371	-0.815674	0.396973	-0.331787	0.579452	-0.354673	-0.458073	-0.573246
24486		8.809970	1.975387	2.249895	0.269098	0.298066	-0.127053	-0.807617	0.393799	-0.341064	0.581474	-0.349931	-0.458355	-0.573889
24487		9.405368	1.365832	3.294177	0.150218	0.228299	-0.106840	-0.811035	0.395996	-0.347900	0.582718	-0.346665	-0.458169	-0.574755
24488		10.036258	0.490186	3.605147	0.269904	0.122432	-0.121300	-0.806152	0.390625	-0.356201	0.583761	-0.343217	-0.459656	-0.574580
24489		9.463318	1.021534	3.219643	0.323367	0.165229	-0.111023	-0.805664	0.392090	-0.364990	0.585354	-0.339112	-0.461148	-0.574200
24490		8.129085	1.282564	2.756628	0.152389	0.316180	-0.084220	-0.808350	0.389404	-0.372803	0.587279	-0.335339	-0.460151	-0.575250
24491		8.573345	1.415631	3.854864	0.192621	0.262208	-0.053764	-0.807861	0.381348	-0.381836	0.589263	-0.331827	-0.459718	-0.575604
24492		9.013937	2.069070	3.965998	0.258754	0.124180	-0.127200	-0.799805	0.384766	-0.378662	0.590192	-0.328367	-0.461104	-0.575527
24493		8.368885	1.946425	3.109892	0.100273	0.132466	-0.170034	-0.811523	0.376709	-0.379150	0.590195	-0.325822	-0.461405	-0.576728
24494		8.976109	1.484211	3.419463	0.150841	0.149313	-0.216764	-0.804443	0.371338	-0.385498	0.590138	-0.322500	-0.462193	-0.578021
24495		9.639129	1.057007	3.451015	0.139292	0.181212	-0.233786	-0.805420	0.369873	-0.391113	0.590100	-0.318925	-0.462698	-0.579638
24496		8.757968	1.730619	3.230566	0.136084	0.183652	-0.204328	-0.806152	0.358887	-0.392334	0.590267	-0.315536	-0.463017	-0.581065
24497		9.306802	1.333542	3.888145	0.082123	0.118267	-0.176542	-0.812256	0.360840	-0.395020	0.590032	-0.313163	-0.463354	-0.582318
24498		9.479117	1.142567	3.928497	0.143554	0.101096	-0.177287	-0.794678	0.354980	-0.403564	0.589920	-0.310480	-0.464249	-0.583155
24499		9.063806	1.983326	3.501914	0.056835	0.122138	-0.194068	-0.802979	0.345215	-0.409424	0.589496	-0.308162	-0.464363	-0.584720
24500		9.571041	1.882523	3.635059	0.002637	0.014428	-0.191901	-0.803467	0.342041	-0.401855	0.588248	-0.307007	-0.464917	-0.586142
24501		9.408601	2.070678	3.837000	-0.003075	0.023131	-0.203485	-0.807617	0.334473	-0.403076	0.586928	-0.305782	-0.465420	-0.587706
24502		8.601323	2.249384	3.541293	-0.078872	-0.009820	-0.236565	-0.803955	0.332764	-0.402344	0.584879	-0.305140	-0.465758	-0.589810
24503		8.572835	2.603532	3.923982	-0.128352	-0.036482	-0.249655	-0.807129	0.330566	-0.398193	0.582388	-0.304985	-0.465944	-0.592203
