// Start Time: Unknown
// Update Rate: 40.0Hz
// Filter Profile: human (46.1)
// Firmware Version: 4.6.0
PacketCounter	SampleTimeFine	Acc_X	Acc_Y	Acc_Z	Gyr_X	Gyr_Y	Gyr_Z	Mag_X	Mag_Y	Mag_Z	Quat_q0	Quat_q1	Quat_q2	Quat_q3
23592		9.466839	1.363675	-1.997825	0.005180	-0.001582	0.002255	-0.753906	0.325684	0.309570	0.316582	-0.608767	-0.481270	-0.545488
23593		9.489019	1.363308	-1.952751	0.003154	-0.001871	0.001003	-0.753662	0.330322	0.310791	0.316602	-0.608774	-0.481291	-0.545451
23594		9.464369	1.308950	-1.951511	0.008190	-0.001152	-0.000726	-0.754639	0.328857	0.307861	0.316656	-0.608747	-0.481355	-0.545393
23595		9.467857	1.307584	-1.932875	0.008316	-0.001187	0.000650	-0.745361	0.337891	0.297607	0.316719	-0.608726	-0.481410	-0.545331
23596		9.503250	1.367356	-1.906791	0.004242	0.000527	0.004565	-0.751221	0.326416	0.310547	0.316792	-0.608732	-0.481396	-0.545294
23597		9.475088	1.371095	-1.940750	0.007681	0.003997	0.001081	-0.752441	0.333252	0.313477	0.316894	-0.608675	-0.481414	-0.545283
23598		9.470094	1.314430	-1.952377	0.002464	-0.000756	-0.000249	-0.748779	0.327881	0.313232	0.316919	-0.608658	-0.481423	-0.545279
23599		9.496327	1.293921	-1.989031	0.000848	-0.006603	0.001530	-0.749756	0.330078	0.309570	0.316917	-0.608698	-0.481425	-0.545234
23600		9.487027	1.276826	-1.979636	0.005102	-0.004283	0.000673	-0.742920	0.329346	0.308594	0.316965	-0.608705	-0.481446	-0.545181
23601		9.484320	1.280206	-1.950026	0.006002	-0.001833	0.002170	-0.753906	0.329590	0.311523	0.317056	-0.608705	-0.481443	-0.545130
23602		9.471402	1.321581	-1.976156	0.007800	-0.002844	0.000566	-0.752441	0.330566	0.307617	0.317160	-0.608696	-0.481456	-0.545067
23603		9.483453	1.301764	-1.970452	0.009316	-0.003314	-0.000976	-0.748779	0.330322	0.309082	0.317268	-0.608676	-0.481489	-0.544998
23604		9.505923	1.272914	-1.997223	0.009150	-0.004632	-0.003143	-0.744629	0.332520	0.308838	0.317355	-0.608655	-0.481539	-0.544927
23605		9.476385	1.281277	-1.992904	0.007118	-0.005817	-0.001682	-0.757568	0.325684	0.311035	0.317436	-0.608669	-0.481563	-0.544842
23606		9.487027	1.313847	-1.935680	0.007860	-0.008772	-0.003345	-0.746582	0.332275	0.304932	0.317514	-0.608686	-0.481604	-0.544742
23607		9.505237	1.306339	-1.881379	-0.000872	-0.002924	-0.004309	-0.748291	0.322266	0.308594	0.317548	-0.608695	-0.481568	-0.544744
23608		9.479807	1.285402	-1.928130	0.006667	-0.001612	-0.005505	-0.751709	0.333252	0.307617	0.317633	-0.608638	-0.481580	-0.544747
23609		9.462103	1.316410	-1.993531	0.000179	-0.001875	-0.001539	-0.745605	0.330811	0.302490	0.317744	-0.608636	-0.481502	-0.544754
23610		9.505267	1.391468	-2.028388	-0.006510	-0.003913	-0.003240	-0.746826	0.332764	0.304932	0.317746	-0.608671	-0.481407	-0.544797
23611		9.465094	1.317541	-1.975729	0.003239	-0.003290	-0.007439	-0.742188	0.330811	0.303955	0.317792	-0.608637	-0.481425	-0.544793
23612		9.472581	1.230100	-1.992533	0.006651	-0.004331	-0.006399	-0.751465	0.328613	0.317139	0.317835	-0.608610	-0.481470	-0.544758
23613		9.487091	1.290925	-2.003285	0.004416	-0.002273	-0.003294	-0.750488	0.336182	0.307373	0.317923	-0.608598	-0.481474	-0.544716
23614		9.471021	1.376454	-1.956739	0.005256	0.001089	-0.005199	-0.743164	0.331543	0.306396	0.318069	-0.608553	-0.481465	-0.544689
23615		9.455262	1.340321	-1.966000	0.005139	-0.002966	-0.007568	-0.750977	0.324951	0.313965	0.318101	-0.608526	-0.481507	-0.544664
23616		9.489410	1.351289	-2.003237	-0.002261	-0.008402	-0.005987	-0.746094	0.337402	0.309814	0.318036	-0.608553	-0.481527	-0.544654
23617		9.490351	1.307484	-1.967162	-0.002233	-0.002963	-0.004204	-0.744629	0.321289	0.312988	0.318072	-0.608579	-0.481503	-0.544625
23618		9.491951	1.298454	-1.928317	0.001557	0.001775	-0.003466	-0.752197	0.324951	0.307617	0.318045	-0.608551	-0.481503	-0.544673
23619		9.481884	1.372528	-1.982075	0.002702	0.003229	-0.005535	-0.750000	0.330078	0.310791	0.318103	-0.608458	-0.481494	-0.544751
23620		9.462740	1.337082	-2.009834	0.003161	-0.000080	-0.004424	-0.756348	0.332520	0.303711	0.318160	-0.608417	-0.481504	-0.544754
23621		9.454171	1.289398	-1.951306	-0.000396	-0.002622	-0.005020	-0.749512	0.327637	0.305908	0.318237	-0.608360	-0.481492	-0.544783
23622		9.470912	1.311502	-1.993540	-0.000573	0.000147	-0.006193	-0.744141	0.329590	0.299072	0.318240	-0.608307	-0.481488	-0.544844
23623		9.469246	1.339126	-1.971972	-0.000316	0.000975	-0.006154	-0.741455	0.324219	0.314697	0.318275	-0.608252	-0.481464	-0.544907
23624		9.459949	1.323721	-1.961654	-0.000281	-0.005375	-0.004537	-0.751465	0.326416	0.310303	0.318141	-0.608324	-0.481495	-0.544877
23625		9.466045	1.355198	-1.972299	-0.002359	-0.002931	-0.005582	-0.750732	0.325928	0.301270	0.318092	-0.608308	-0.481506	-0.544914
23626		9.549816	1.323816	-1.979826	-0.007377	-0.000040	-0.005664	-0.746826	0.322510	0.305908	0.318065	-0.608241	-0.481460	-0.545044
23627		9.482713	1.286612	-1.998360	-0.005526	0.003917	-0.008302	-0.742432	0.327637	0.310303	0.317976	-0.608169	-0.481439	-0.545195
23628		9.433130	1.311696	-1.967632	0.002558	-0.000350	-0.005092	-0.756104	0.323486	0.301758	0.317956	-0.608189	-0.481454	-0.545172
23629		9.464941	1.336327	-2.002593	-0.018469	-0.003907	-0.005063	-0.750000	0.337891	0.305420	0.317832	-0.608150	-0.481369	-0.545362
23630		9.491606	1.359699	-1.946959	-0.005953	-0.000019	-0.005084	-0.751221	0.331543	0.302734	0.317947	-0.608139	-0.481323	-0.545348
23631		9.477984	1.332909	-1.974611	-0.004310	0.007181	-0.006076	-0.751465	0.325439	0.307617	0.318058	-0.608019	-0.481278	-0.545457
23632		9.497535	1.361094	-2.075155	-0.007813	0.001900	-0.006880	-0.750977	0.328369	0.312744	0.317980	-0.607971	-0.481253	-0.545578
23633		9.478000	1.355740	-2.030920	-0.005170	0.006081	-0.006784	-0.749512	0.324707	0.295166	0.317936	-0.607942	-0.481237	-0.545651
23634		9.462401	1.275357	-2.010548	0.002712	0.006850	-0.007355	-0.753906	0.328857	0.299805	0.318060	-0.607723	-0.481261	-0.545801
23635		9.468301	1.329647	-2.036889	0.008615	0.011396	-0.007491	-0.749268	0.322021	0.312988	0.318289	-0.607470	-0.481321	-0.545895
23636		9.466349	1.379355	-2.031793	0.008613	0.010501	-0.004779	-0.746582	0.331055	0.301758	0.318263	-0.607403	-0.481369	-0.545943
23637		9.456781	1.367055	-1.979170	0.005368	0.006047	-0.005543	-0.752441	0.332031	0.312256	0.318433	-0.607301	-0.481398	-0.545931
23638		9.457644	1.355093	-1.988767	0.002673	0.004602	-0.005435	-0.752930	0.314697	0.300293	0.318487	-0.607286	-0.481438	-0.545882
23639		9.494421	1.381254	-1.953099	0.000883	0.008329	-0.002937	-0.753662	0.324951	0.304443	0.318416	-0.607100	-0.481452	-0.546118
23640		9.476232	1.396621	-1.917089	0.001202	0.009141	-0.002209	-0.751465	0.326904	0.303223	0.318483	-0.606974	-0.481451	-0.546220
23641		9.466697	1.367810	-1.924090	-0.002934	0.011761	-0.001693	-0.752686	0.328125	0.316406	0.318577	-0.606858	-0.481398	-0.546341
23642		9.476856	1.372207	-1.943270	-0.007794	0.006439	-0.002392	-0.749268	0.322266	0.311279	0.318445	-0.606950	-0.481332	-0.546373
23643		9.482213	1.345747	-1.944083	-0.009324	0.003292	0.000973	-0.752686	0.322510	0.301758	0.318265	-0.607042	-0.481244	-0.546454
23644		9.508073	1.329308	-1.938425	-0.004254	0.005372	0.000031	-0.746826	0.338867	0.312256	0.318281	-0.606936	-0.481212	-0.546590
23645		9.458528	1.327267	-1.938188	-0.003724	0.002941	-0.000883	-0.751953	0.325439	0.306396	0.318388	-0.607092	-0.481112	-0.546442
23646		9.486331	1.345623	-1.921497	-0.004510	0.004543	-0.000010	-0.756592	0.326904	0.312256	0.318375	-0.607071	-0.481063	-0.546516
23647		9.453674	1.345343	-1.904333	-0.001851	0.004638	-0.000907	-0.746582	0.323975	0.303955	0.318330	-0.607075	-0.481048	-0.546552
23648		9.532892	1.349236	-1.937761	-0.001608	0.001852	0.000956	-0.744873	0.335693	0.314941	0.318331	-0.607077	-0.481006	-0.546586
23649		9.507999	1.317577	-1.953820	-0.001442	0.004065	0.000409	-0.750732	0.321289	0.302002	0.318371	-0.607278	-0.480893	-0.546439
23650		9.432620	1.322706	-1.929183	0.007762	0.001702	-0.004653	-0.743896	0.327881	0.304443	0.318400	-0.607125	-0.480993	-0.546505
23651		9.484950	1.337661	-1.898620	-0.007006	-0.003759	0.000274	-0.746826	0.325928	0.304932	0.318375	-0.607232	-0.480910	-0.546472
23652		9.485966	1.369356	-1.937556	0.001451	-0.001346	0.000483	-0.753662	0.331787	0.302002	0.318399	-0.607257	-0.480896	-0.546443
23653		9.483218	1.347767	-1.937771	0.003530	0.004810	-0.002011	-0.753906	0.327393	0.303711	0.318617	-0.607134	-0.480896	-0.546453
23654		9.499256	1.347042	-1.970039	-0.002973	-0.000011	-0.002548	-0.747070	0.329346	0.305176	0.318645	-0.607071	-0.480895	-0.546506
23655		9.486764	1.341459	-2.007615	0.006180	0.002186	-0.003799	-0.751221	0.323242	0.298584	0.318745	-0.607049	-0.480919	-0.546452
23656		9.481044	1.279093	-1.949666	0.007980	0.002109	0.000919	-0.742676	0.324219	0.308838	0.318891	-0.606886	-0.480972	-0.546502
23657		9.474472	1.351235	-1.984585	0.010007	0.001474	-0.004151	-0.747559	0.330811	0.309570	0.318841	-0.606941	-0.481021	-0.546427
23658		9.465701	1.369913	-1.971981	0.010168	0.002793	-0.001984	-0.753906	0.329590	0.301514	0.318933	-0.606989	-0.481043	-0.546300
23659		9.468933	1.324370	-1.924942	0.005857	0.000479	-0.001814	-0.753418	0.329834	0.308838	0.319099	-0.606877	-0.481092	-0.546285
23660		9.489462	1.344409	-1.947748	0.002120	-0.000195	-0.000875	-0.746826	0.329102	0.305176	0.319119	-0.606909	-0.481100	-0.546230
23661		9.501060	1.347477	-1.959634	0.005479	0.001508	0.000374	-0.758301	0.331543	0.309814	0.319216	-0.606931	-0.481091	-0.546157
23662		9.466502	1.337592	-1.923297	0.005617	0.005089	-0.000073	-0.754395	0.334717	0.309326	0.319318	-0.606890	-0.481111	-0.546124
23663		9.478366	1.340612	-1.933915	0.004421	0.007262	-0.000518	-0.754883	0.332275	0.302490	0.319475	-0.606884	-0.481085	-0.546063
23664		9.468003	1.333952	-1.960597	0.002679	0.006427	-0.001832	-0.753174	0.330078	0.306885	0.319657	-0.606773	-0.481072	-0.546091
23665		9.459183	1.317419	-1.948816	0.007163	0.003253	-0.001717	-0.754150	0.330322	0.308838	0.319747	-0.606734	-0.481112	-0.546047
23666		9.476845	1.306140	-1.942747	0.006037	-0.002290	-0.000637	-0.749512	0.334961	0.303955	0.319778	-0.606762	-0.481165	-0.545951
23667		9.480460	1.340199	-1.922646	0.005278	-0.002056	0.000134	-0.745117	0.326172	0.299316	0.319948	-0.606799	-0.481153	-0.545820
23668		9.486706	1.360687	-1.903464	0.003351	-0.001016	0.000359	-0.754639	0.328857	0.299805	0.320016	-0.606775	-0.481145	-0.545814
23669		9.502583	1.349667	-1.907265	0.002812	-0.001306	0.000381	-0.750732	0.327881	0.302246	0.320127	-0.606684	-0.481161	-0.545836
23670		9.499749	1.327924	-1.908016	-0.001078	-0.000578	0.000043	-0.742432	0.329346	0.309082	0.320153	-0.606667	-0.481145	-0.545854
23671		9.481966	1.313467	-1.945143	-0.004842	0.000117	0.001083	-0.753906	0.326904	0.304199	0.320080	-0.606841	-0.481059	-0.545779
23672		9.461698	1.337997	-1.950406	-0.000579	-0.002534	0.001949	-0.752441	0.328857	0.305908	0.320073	-0.606833	-0.481061	-0.545791
23673		9.493324	1.332850	-1.897850	-0.013313	-0.007738	-0.000901	-0.751953	0.330566	0.300537	0.319926	-0.606939	-0.481005	-0.545808
23674		9.490862	1.253981	-1.881813	-0.006549	0.000633	0.000559	-0.749023	0.335205	0.309082	0.320000	-0.606910	-0.480932	-0.545862
23675		9.477923	1.279926	-1.966955	0.005428	0.005137	-0.002141	-0.754150	0.334229	0.300049	0.320129	-0.606944	-0.480919	-0.545759
23676		9.505291	1.365412	-1.996818	-0.000401	0.003291	-0.000427	-0.750000	0.333252	0.307129	0.320319	-0.606862	-0.480870	-0.545782
23677		9.482208	1.359641	-1.972229	0.005143	0.003850	-0.005686	-0.751221	0.331543	0.302979	0.320401	-0.606842	-0.480905	-0.545725
23678		9.459470	1.270638	-1.961755	0.009158	0.003091	-0.003971	-0.754150	0.331787	0.309326	0.320542	-0.606755	-0.480960	-0.545690
23679		9.485617	1.308256	-2.013940	0.006465	0.003472	-0.000258	-0.751465	0.325684	0.303955	0.320616	-0.606748	-0.480997	-0.545622
23680		9.468250	1.361375	-1.927701	0.006478	0.007084	-0.002086	-0.749023	0.333008	0.301514	0.320659	-0.606642	-0.481038	-0.545680
23681		9.480656	1.333150	-1.890044	0.006165	0.007163	-0.005532	-0.756348	0.327393	0.302246	0.320820	-0.606546	-0.481050	-0.545680
23682		9.502249	1.341011	-1.921829	-0.001399	0.007200	-0.004242	-0.748779	0.331299	0.301514	0.320835	-0.606410	-0.481058	-0.545816
23683		9.486502	1.361854	-1.947088	-0.008330	-0.002449	0.001172	-0.755371	0.323242	0.300049	0.320842	-0.606478	-0.480968	-0.545815
23684		9.457787	1.321616	-1.954137	-0.008177	-0.003849	0.002449	-0.748779	0.332275	0.302246	0.320740	-0.606453	-0.480933	-0.545934
23685		9.472648	1.324053	-1.947864	-0.011286	-0.007444	0.000349	-0.748291	0.332275	0.304932	0.320699	-0.606574	-0.480848	-0.545899
23686		9.485848	1.352862	-1.920010	-0.008393	-0.002433	0.000482	-0.758057	0.319092	0.301514	0.320678	-0.606681	-0.480767	-0.545864
23687		9.500870	1.329790	-1.943421	-0.002647	0.003518	-0.000930	-0.748291	0.322998	0.305176	0.320563	-0.606535	-0.480797	-0.546067
23688		9.480258	1.284422	-1.951331	0.002121	-0.000194	-0.000875	-0.760498	0.331299	0.302246	0.320473	-0.606545	-0.480824	-0.546085
23689		9.483865	1.293202	-1.961455	0.005767	0.001864	-0.002402	-0.754639	0.325439	0.304688	0.320600	-0.606409	-0.480889	-0.546104
23690		9.507899	1.302961	-1.935122	0.013275	0.004563	-0.003491	-0.749512	0.327393	0.298828	0.320659	-0.606278	-0.481007	-0.546111
23691		9.475195	1.328045	-1.887745	0.014851	0.003187	-0.001629	-0.742676	0.333984	0.301514	0.320835	-0.606147	-0.481092	-0.546078
23692		9.504711	1.339026	-1.952088	0.010547	0.001763	-0.004175	-0.745605	0.333740	0.299805	0.321010	-0.606148	-0.481123	-0.545948
23693		9.504733	1.339450	-1.951688	0.007292	0.004115	-0.003059	-0.752197	0.328857	0.307617	0.321197	-0.606105	-0.481127	-0.545881
23694		9.477030	1.302846	-1.907705	0.002926	0.004535	-0.002687	-0.750000	0.330078	0.308594	0.321181	-0.606097	-0.481150	-0.545879
23695		9.458374	1.318403	-1.873370	-0.003288	-0.000830	-0.003277	-0.757324	0.329346	0.299316	0.321086	-0.606183	-0.481144	-0.545845
23696		9.486043	1.330605	-1.947295	-0.011357	0.000268	-0.001178	-0.754883	0.327637	0.303223	0.321065	-0.606131	-0.481083	-0.545968
23697		9.485119	1.283322	-1.968067	-0.000550	0.007410	-0.000820	-0.752930	0.330322	0.299805	0.321097	-0.606050	-0.481066	-0.546055
23698		9.480149	1.310960	-1.964395	-0.002103	0.004698	-0.003672	-0.750977	0.330811	0.297119	0.321160	-0.605968	-0.481048	-0.546125
23699		9.516990	1.356267	-1.987493	-0.004315	0.006275	-0.003388	-0.741455	0.333740	0.304688	0.321254	-0.605876	-0.480996	-0.546218
23700		9.470563	1.273965	-1.941210	0.001134	0.009155	-0.002913	-0.756348	0.335938	0.299561	0.321350	-0.605924	-0.480925	-0.546170
23701		9.479702	1.256319	-1.951558	0.000754	0.008358	-0.004331	-0.759766	0.331543	0.298340	0.321531	-0.605800	-0.480909	-0.546215
23702		9.485673	1.361440	-1.916077	-0.000261	0.007763	-0.003600	-0.752197	0.329102	0.302246	0.321650	-0.605639	-0.480907	-0.546326
23703		9.491454	1.405710	-1.913113	-0.001429	0.008567	-0.004148	-0.754395	0.325928	0.307373	0.321673	-0.605569	-0.480888	-0.546406
23704		9.475110	1.312045	-1.913431	-0.010090	-0.001031	-0.002767	-0.749023	0.334717	0.300293	0.321480	-0.605634	-0.480867	-0.546467
23705		9.471297	1.253010	-1.965489	-0.006649	-0.003428	-0.001814	-0.747803	0.327881	0.305908	0.321513	-0.605706	-0.480807	-0.546420
23706		9.493525	1.324642	-1.916567	-0.004643	0.001850	-0.002290	-0.747070	0.335205	0.303223	0.321427	-0.605772	-0.480774	-0.546426
23707		9.513303	1.384112	-1.896686	-0.001219	0.004432	-0.003066	-0.742920	0.327393	0.302734	0.321512	-0.605807	-0.480724	-0.546381
23708		9.452202	1.362848	-1.945473	0.000862	0.001995	-0.002010	-0.750977	0.325928	0.307617	0.321494	-0.605854	-0.480704	-0.546357
23709		9.473185	1.290478	-1.952483	-0.002685	-0.000556	-0.002613	-0.752197	0.326904	0.307617	0.321363	-0.605909	-0.480720	-0.546359
23710		9.489088	1.306130	-1.924558	0.002893	0.003186	-0.003473	-0.748535	0.331299	0.303223	0.321310	-0.605903	-0.480765	-0.546357
23711		9.507821	1.333518	-1.865843	0.011127	0.008853	-0.001622	-0.761475	0.331787	0.303711	0.321468	-0.605841	-0.480786	-0.546314
23712		9.473673	1.378033	-1.886303	0.004185	0.002350	-0.001547	-0.752686	0.331299	0.297607	0.321544	-0.605760	-0.480834	-0.546318
23713		9.471077	1.366097	-1.916054	-0.004938	-0.001224	-0.000400	-0.750244	0.328369	0.293213	0.321585	-0.605754	-0.480785	-0.546344
23714		9.483092	1.302677	-1.881137	-0.006288	0.002347	-0.002129	-0.752197	0.326660	0.307617	0.321632	-0.605680	-0.480726	-0.546450
23715		9.533956	1.302274	-1.919162	0.003657	0.005672	-0.003356	-0.752197	0.335205	0.300049	0.321592	-0.605658	-0.480766	-0.546462
23716		9.464951	1.346756	-1.934322	0.002111	-0.003805	0.000958	-0.745605	0.322998	0.302979	0.321702	-0.605696	-0.480750	-0.546369
23717		9.450301	1.347558	-1.893312	-0.004729	-0.008080	-0.000208	-0.752930	0.329590	0.299561	0.321533	-0.605810	-0.480749	-0.546343
23718		9.489726	1.311831	-1.873447	-0.014813	-0.003674	-0.001203	-0.747803	0.328857	0.302246	0.321438	-0.605863	-0.480664	-0.546416
23719		9.486019	1.278421	-1.894207	0.001277	0.002317	-0.003410	-0.745850	0.331055	0.301758	0.321445	-0.605858	-0.480667	-0.546414
23720		9.515547	1.306032	-1.897411	0.005202	0.005666	-0.001389	-0.756104	0.331055	0.302246	0.321546	-0.605847	-0.480649	-0.546383
23721		9.503759	1.353992	-1.991891	-0.002216	-0.001144	-0.000606	-0.753906	0.326172	0.299316	0.321557	-0.605845	-0.480641	-0.546385
23722		9.476726	1.304294	-1.959611	0.002129	0.000700	-0.003591	-0.751221	0.325684	0.312744	0.321562	-0.605762	-0.480692	-0.546429
23723		9.497578	1.222723	-1.937187	0.009796	0.002900	-0.006113	-0.749268	0.324951	0.300049	0.321470	-0.605771	-0.480804	-0.546375
23724		9.470296	1.275322	-1.949417	0.018808	0.003356	-0.003302	-0.753174	0.330566	0.305664	0.321597	-0.605642	-0.480946	-0.546319
23725		9.490094	1.369144	-1.928696	0.015832	0.002445	-0.003138	-0.746094	0.325195	0.304932	0.321701	-0.605588	-0.481056	-0.546221
23726		9.487201	1.373492	-1.898560	0.003895	-0.002551	-0.003263	-0.751953	0.332764	0.306885	0.321620	-0.605637	-0.481104	-0.546171
23727		9.490500	1.347546	-1.910948	-0.000471	-0.002135	-0.002895	-0.755859	0.330078	0.299072	0.321580	-0.605715	-0.481100	-0.546112
23728		9.478626	1.309757	-1.901057	0.001206	-0.001280	-0.002270	-0.750000	0.336426	0.304199	0.321625	-0.605659	-0.481133	-0.546118
23729		9.486608	1.339833	-1.901483	-0.001331	-0.001409	0.000004	-0.752197	0.333008	0.301025	0.321669	-0.605757	-0.481071	-0.546039
23730		9.485682	1.362635	-1.920924	-0.002187	-0.005233	-0.001590	-0.750488	0.337646	0.306885	0.321671	-0.605807	-0.481060	-0.545992
23731		9.482650	1.341499	-1.922544	-0.004909	-0.005315	-0.001385	-0.744629	0.324707	0.301514	0.321640	-0.605959	-0.480998	-0.545896
23732		9.491109	1.314264	-1.906394	-0.002087	-0.003005	-0.002832	-0.751465	0.329590	0.299072	0.321554	-0.605996	-0.481012	-0.545894
23733		9.514130	1.311747	-1.900570	0.005422	0.005144	-0.002144	-0.751709	0.327148	0.299805	0.321660	-0.605904	-0.481033	-0.545914
23734		9.477222	1.308918	-1.952635	0.009028	0.004962	-0.001742	-0.746582	0.329102	0.307861	0.321762	-0.605796	-0.481093	-0.545920
23735		9.466482	1.292592	-1.951628	0.003919	-0.004809	-0.000643	-0.751465	0.334229	0.308105	0.321703	-0.605908	-0.481118	-0.545810
23736		9.484824	1.268425	-1.957239	0.005948	-0.003618	-0.002108	-0.743408	0.324951	0.304443	0.321709	-0.605986	-0.481151	-0.545691
23737		9.559325	1.303134	-1.939589	0.007987	0.003904	-0.004520	-0.750977	0.329834	0.298340	0.321702	-0.605960	-0.481213	-0.545669
23738		9.478520	1.264956	-1.915464	0.011949	0.009499	-0.004436	-0.747803	0.341309	0.298340	0.321875	-0.605796	-0.481279	-0.545690
23739		9.453909	1.330095	-1.896914	0.006503	0.003893	-0.005798	-0.746338	0.331299	0.309570	0.322055	-0.605777	-0.481251	-0.545630
23740		9.460989	1.348151	-1.917432	-0.016808	-0.006244	0.000174	-0.745117	0.333008	0.299561	0.321835	-0.606013	-0.481123	-0.545611
23741		9.539737	1.334084	-1.892704	-0.010026	0.001662	-0.001191	-0.741455	0.328125	0.314453	0.321819	-0.606082	-0.481000	-0.545651
23742		9.531810	1.305412	-1.891114	-0.000546	0.009189	-0.006268	-0.753906	0.322754	0.302979	0.321695	-0.606163	-0.480971	-0.545661
23743		9.497872	1.274291	-2.003241	-0.005798	0.009867	-0.006509	-0.745605	0.327881	0.307129	0.321627	-0.606029	-0.480999	-0.545825
23744		9.435244	1.279528	-2.029472	0.002606	0.006445	-0.002532	-0.750732	0.333740	0.305908	0.321611	-0.606047	-0.480985	-0.545827
23745		9.480389	1.277910	-1.977061	0.002229	0.002926	-0.004836	-0.753418	0.327881	0.304688	0.321618	-0.606067	-0.480977	-0.545808
23746		9.483718	1.303866	-1.926298	0.009987	0.003747	-0.006771	-0.758545	0.326416	0.311279	0.321652	-0.605968	-0.481094	-0.545795
23747		9.493479	1.334372	-1.916094	0.015053	0.005836	-0.007714	-0.757812	0.334961	0.301025	0.321664	-0.605843	-0.481276	-0.545765
23748		9.496824	1.360205	-1.865219	0.006911	0.003327	-0.004477	-0.753906	0.335693	0.303467	0.321773	-0.605765	-0.481313	-0.545756
23749		9.497072	1.370409	-1.893651	0.001944	0.006184	-0.003894	-0.750244	0.333496	0.302002	0.321840	-0.605745	-0.481277	-0.545770
23750		9.479449	1.347326	-1.900148	0.004827	0.005760	-0.005539	-0.752686	0.334473	0.304199	0.321907	-0.605704	-0.481279	-0.545774
23751		9.498160	1.359132	-1.902218	0.000261	0.001718	-0.002684	-0.757812	0.328369	0.300537	0.321922	-0.605736	-0.481247	-0.545758
23752		9.483027	1.348036	-1.879165	-0.001540	0.006333	-0.002920	-0.752441	0.324951	0.308105	0.321952	-0.605633	-0.481259	-0.545843
23753		9.506222	1.310732	-1.873536	-0.001316	0.005809	-0.003670	-0.743652	0.334473	0.301514	0.321883	-0.605603	-0.481291	-0.545889
23754		9.487932	1.345194	-1.897081	-0.005277	0.005652	-0.001984	-0.759766	0.326172	0.298584	0.321895	-0.605676	-0.481160	-0.545918
23755		9.468823	1.331481	-1.942791	0.000352	0.003056	-0.001207	-0.748779	0.322754	0.303955	0.321939	-0.605556	-0.481210	-0.545980
23756		9.473902	1.330313	-1.914276	0.000188	-0.005486	0.000301	-0.752197	0.333740	0.300537	0.321857	-0.605601	-0.481265	-0.545930
23757		9.492169	1.332069	-1.888673	-0.009777	-0.003847	-0.000210	-0.750244	0.328613	0.294434	0.321805	-0.605696	-0.481170	-0.545939
23758		9.488040	1.305371	-1.819914	-0.010024	-0.001066	-0.002085	-0.752197	0.334229	0.302002	0.321779	-0.605687	-0.481114	-0.546014
23759		9.595852	1.324792	-1.877464	-0.008321	0.003863	0.000214	-0.748047	0.329346	0.292480	0.321781	-0.605739	-0.480992	-0.546063
23760		9.442785	1.314820	-1.949080	-0.007627	0.000035	0.000589	-0.755615	0.326416	0.303711	0.321816	-0.605732	-0.480912	-0.546119
23761		9.444071	1.305893	-1.910675	-0.012772	-0.007944	-0.004445	-0.745850	0.328125	0.303223	0.321624	-0.605795	-0.480918	-0.546158
23762		9.489776	1.301055	-1.900519	-0.021301	-0.006708	0.001861	-0.749023	0.335938	0.305908	0.321420	-0.605992	-0.480757	-0.546201
23763		9.509737	1.277064	-1.896976	0.002698	-0.009426	-0.003654	-0.754395	0.332764	0.297363	0.321377	-0.606125	-0.480765	-0.546071
23764		9.524764	1.279971	-1.889415	0.004374	0.012252	-0.002258	-0.742432	0.327637	0.300293	0.321550	-0.605986	-0.480737	-0.546149
23765		9.499401	1.367666	-1.888578	-0.000711	0.006978	-0.005718	-0.749023	0.321045	0.301514	0.321554	-0.605952	-0.480712	-0.546206
23766		9.473163	1.312137	-1.944514	0.012653	0.007469	-0.009494	-0.753418	0.334717	0.304199	0.321596	-0.605765	-0.480881	-0.546240
23767		9.488114	1.270780	-1.908362	0.009531	0.003912	-0.002546	-0.756836	0.332275	0.305176	0.321702	-0.605741	-0.480900	-0.546187
23768		9.461521	1.345142	-1.930478	0.005987	-0.004977	-0.002199	-0.759277	0.331055	0.302246	0.321710	-0.605765	-0.480961	-0.546102
23769		9.465577	1.366698	-1.921765	0.011023	-0.004236	-0.003927	-0.751221	0.328857	0.303467	0.321771	-0.605706	-0.481088	-0.546021
23770		9.502296	1.334921	-1.871331	0.004847	-0.002824	-0.001962	-0.751709	0.326904	0.306885	0.321773	-0.605720	-0.481136	-0.545961
23771		9.507244	1.369381	-1.841602	0.005108	-0.001105	-0.004646	-0.755371	0.330078	0.305176	0.321730	-0.605715	-0.481215	-0.545922
23772		9.498197	1.353188	-1.830961	0.002852	0.000946	-0.001546	-0.751953	0.322754	0.291260	0.321742	-0.605708	-0.481237	-0.545904
23773		9.485135	1.334313	-1.889280	0.002379	-0.002081	-0.001720	-0.750488	0.336182	0.299561	0.321804	-0.605587	-0.481322	-0.545927
23774		9.485224	1.344167	-1.918768	0.002159	0.002053	-0.002808	-0.756592	0.338135	0.303467	0.321883	-0.605591	-0.481285	-0.545909
23775		9.508125	1.332320	-1.883239	0.004595	0.002678	-0.002953	-0.747314	0.331787	0.301025	0.321968	-0.605584	-0.481272	-0.545877
23776		9.464667	1.289835	-1.897234	0.007537	-0.001369	-0.002069	-0.749512	0.333252	0.297363	0.322026	-0.605600	-0.481298	-0.545802
23777		9.482499	1.297499	-1.950925	0.006205	-0.006390	-0.000226	-0.753174	0.335938	0.301025	0.322096	-0.605633	-0.481322	-0.545703
23778		9.476690	1.350076	-1.919336	0.002628	-0.004861	0.000156	-0.745605	0.329346	0.302246	0.322141	-0.605692	-0.481308	-0.545623
23779		9.480251	1.343230	-1.822683	0.002256	-0.008381	-0.002148	-0.755615	0.333984	0.303955	0.322091	-0.605776	-0.481343	-0.545529
23780		9.479947	1.317772	-1.855863	0.003710	-0.009721	-0.001658	-0.751953	0.322998	0.296387	0.322072	-0.605844	-0.481393	-0.545419
23781		9.561605	1.318001	-1.921938	-0.002562	-0.004205	0.000604	-0.747314	0.333984	0.301025	0.322051	-0.605814	-0.481428	-0.545435
23782		9.478598	1.305514	-1.878725	0.001750	-0.003710	-0.003178	-0.750000	0.328857	0.304443	0.322058	-0.605865	-0.481424	-0.545378
23783		9.471916	1.311202	-1.869001	0.004254	-0.008542	-0.004404	-0.754883	0.326660	0.296143	0.321996	-0.605910	-0.481509	-0.545290
23784		9.481270	1.315598	-1.892523	-0.011542	-0.009661	-0.000468	-0.748047	0.332764	0.304688	0.321894	-0.605948	-0.481498	-0.545317
23785		9.495968	1.292548	-1.918491	0.001968	-0.011453	-0.000255	-0.751709	0.324951	0.297607	0.321845	-0.606080	-0.481513	-0.545186
23786		9.509650	1.308025	-1.902699	0.003959	-0.006170	-0.000739	-0.747314	0.326904	0.300049	0.321858	-0.606046	-0.481595	-0.545144
23787		9.499547	1.358933	-1.940300	-0.000714	-0.008410	-0.004707	-0.744873	0.335449	0.307129	0.321781	-0.606077	-0.481651	-0.545105
23788		9.495497	1.316278	-1.933313	0.006499	-0.005151	-0.005742	-0.756104	0.331543	0.300537	0.321761	-0.606162	-0.481681	-0.544996
23789		9.469399	1.262778	-1.942727	0.011081	-0.007858	-0.001418	-0.747070	0.334717	0.310303	0.321836	-0.606135	-0.481797	-0.544879
23790		9.476883	1.327779	-1.943524	0.009311	-0.007334	-0.002635	-0.759277	0.334473	0.303711	0.321820	-0.606246	-0.481843	-0.544725
23791		9.475451	1.376439	-1.933310	0.011275	-0.006127	-0.004796	-0.749268	0.334229	0.303955	0.321878	-0.606205	-0.481970	-0.544624
23792		9.484653	1.336035	-1.929429	0.003462	-0.013272	-0.002588	-0.758057	0.330566	0.306641	0.321832	-0.606314	-0.482020	-0.544485
23793		9.481407	1.324036	-1.962395	0.001655	-0.012268	-0.000984	-0.755859	0.327393	0.304199	0.321764	-0.606379	-0.482098	-0.544384
23794		9.500247	1.338729	-1.918128	0.001370	-0.008121	-0.002762	-0.749756	0.335693	0.299805	0.321708	-0.606383	-0.482184	-0.544336
23795		9.490072	1.345091	-1.927678	0.003140	-0.005036	-0.003385	-0.754150	0.332275	0.314209	0.321746	-0.606404	-0.482202	-0.544274
23796		9.488947	1.332704	-1.949172	0.003105	-0.004555	-0.000564	-0.741943	0.323975	0.304443	0.321694	-0.606489	-0.482229	-0.544186
23797		9.454928	1.328869	-1.984483	0.000072	-0.008180	-0.001967	-0.749023	0.332764	0.301514	0.321599	-0.606562	-0.482271	-0.544125
23798		9.476578	1.304308	-1.972107	-0.000590	-0.012051	-0.001488	-0.748291	0.334717	0.312500	0.321553	-0.606653	-0.482293	-0.544031
23799		9.498159	1.305353	-1.928947	0.003203	-0.008659	-0.000859	-0.750488	0.330322	0.311279	0.321492	-0.606796	-0.482299	-0.543902
23800		9.495907	1.296428	-1.911388	0.004311	-0.009445	-0.001004	-0.746338	0.334229	0.310791	0.321428	-0.606890	-0.482357	-0.543784
23801		9.483927	1.311735	-1.960712	0.002602	-0.009823	0.001195	-0.750244	0.325439	0.307373	0.321378	-0.607048	-0.482344	-0.543648
23802		9.483438	1.311772	-1.963053	0.000103	-0.009548	-0.002067	-0.748779	0.334473	0.305176	0.321285	-0.607093	-0.482421	-0.543584
23803		9.537128	1.310512	-1.985020	0.006428	-0.006026	-0.003723	-0.748047	0.335693	0.303711	0.321300	-0.607128	-0.482469	-0.543495
23804		9.478137	1.282057	-1.947397	0.013041	-0.006650	-0.003604	-0.754395	0.330322	0.307373	0.321375	-0.607141	-0.482553	-0.543360
23805		9.454589	1.285161	-1.955056	0.009056	-0.008164	-0.002693	-0.749512	0.325439	0.303223	0.321381	-0.607140	-0.482673	-0.543252
23806		9.503841	1.323376	-1.954488	-0.002652	-0.005547	-0.000868	-0.746094	0.325928	0.300781	0.321330	-0.607150	-0.482707	-0.543240
23807		9.481379	1.304497	-1.942270	0.010979	-0.001981	-0.006598	-0.751221	0.323242	0.310791	0.321378	-0.607052	-0.482848	-0.543196
23808		9.486421	1.287722	-1.974731	0.008956	-0.003174	-0.005125	-0.756592	0.329346	0.302246	0.321338	-0.607005	-0.482991	-0.543145
23809		9.503599	1.366444	-2.025924	0.005827	-0.006304	-0.004393	-0.744141	0.331543	0.314697	0.321357	-0.606942	-0.483115	-0.543094
23810		9.473994	1.321274	-1.964239	0.005730	-0.004922	-0.004986	-0.750488	0.328613	0.295898	0.321277	-0.607037	-0.483147	-0.543007
23811		9.467504	1.282699	-1.926177	0.005919	-0.004079	-0.005640	-0.753662	0.328613	0.305908	0.321338	-0.606935	-0.483265	-0.542980
23812		9.499809	1.338042	-2.000858	0.005572	-0.004411	-0.003546	-0.750488	0.335205	0.315186	0.321338	-0.606903	-0.483358	-0.542932
23813		9.472831	1.368045	-1.995672	0.003134	-0.002316	-0.002506	-0.744873	0.327881	0.303467	0.321296	-0.606991	-0.483346	-0.542870
23814		9.483383	1.340556	-1.969463	-0.005914	-0.002322	-0.002464	-0.745117	0.337402	0.308105	0.321230	-0.607025	-0.483318	-0.542896
23815		9.461066	1.296140	-1.987469	-0.004396	-0.002789	-0.004014	-0.751465	0.332520	0.304443	0.321168	-0.607130	-0.483245	-0.542880
23816		9.465204	1.292292	-2.009289	-0.000467	-0.005751	-0.001058	-0.748535	0.337891	0.307373	0.321158	-0.607167	-0.483254	-0.542837
23817		9.504817	1.327005	-1.986565	0.000762	-0.002956	-0.001661	-0.745850	0.324463	0.308105	0.321164	-0.607242	-0.483213	-0.542786
23818		9.474286	1.357521	-2.000583	0.002505	-0.004832	-0.001237	-0.742920	0.326416	0.306152	0.321115	-0.607269	-0.483263	-0.542740
23819		9.467972	1.318342	-1.962277	0.004715	-0.002795	-0.003366	-0.749512	0.326416	0.305664	0.321097	-0.607274	-0.483313	-0.542700
23820		9.492758	1.315596	-1.947322	0.006478	0.003014	-0.003108	-0.747559	0.329834	0.316406	0.321145	-0.607194	-0.483380	-0.542702
23821		9.492809	1.315987	-1.946811	0.008376	0.003350	-0.003241	-0.748291	0.327393	0.309570	0.321135	-0.607211	-0.483399	-0.542671
23822		9.475853	1.323452	-1.992950	0.005599	-0.000332	-0.001875	-0.755615	0.321045	0.305176	0.321136	-0.607206	-0.483441	-0.542640
23823		9.457914	1.334586	-1.999738	0.000639	-0.003813	-0.000316	-0.748047	0.331299	0.298096	0.321118	-0.607141	-0.483540	-0.542635
23824		9.463215	1.298493	-1.973060	-0.000346	-0.002172	-0.001515	-0.743408	0.327148	0.311035	0.321169	-0.607111	-0.483556	-0.542623
23825		9.520772	1.296698	-1.974281	0.004994	0.000272	-0.005267	-0.747803	0.334229	0.304443	0.321119	-0.607127	-0.483584	-0.542611
23826		9.488557	1.302044	-2.028145	0.003198	-0.002329	-0.001817	-0.746826	0.334473	0.308838	0.321154	-0.607148	-0.483587	-0.542564
23827		9.469752	1.298764	-1.936539	0.000801	-0.007049	-0.002643	-0.752197	0.328857	0.316162	0.321100	-0.607245	-0.483577	-0.542495
23828		9.504048	1.300072	-1.943914	-0.014139	-0.002582	-0.002500	-0.745361	0.334473	0.305176	0.320896	-0.607364	-0.483483	-0.542567
23829		9.496859	1.293524	-1.952488	0.001032	0.003718	-0.005401	-0.750000	0.332275	0.307373	0.320918	-0.607350	-0.483457	-0.542593
23830		9.495093	1.304165	-1.990388	0.000619	0.006123	-0.003111	-0.749268	0.329590	0.313965	0.320952	-0.607313	-0.483429	-0.542639
23831		9.504689	1.353228	-2.038956	-0.004310	0.002156	-0.004374	-0.750488	0.331299	0.309082	0.320854	-0.607354	-0.483384	-0.542692
23832		9.461326	1.302303	-2.022490	-0.001146	0.001196	-0.006094	-0.753174	0.328857	0.296631	0.320809	-0.607344	-0.483388	-0.542725
23833		9.457103	1.247154	-2.033004	0.001249	0.005917	-0.005267	-0.746826	0.337891	0.306641	0.320914	-0.607176	-0.483457	-0.542790
23834		9.462375	1.291685	-2.030954	0.007163	0.006404	-0.006416	-0.746338	0.332031	0.306641	0.320993	-0.607138	-0.483450	-0.542793
23835		9.487033	1.359485	-2.012287	0.010907	0.002603	-0.002805	-0.749512	0.323730	0.306396	0.321080	-0.607104	-0.483488	-0.542744
23836		9.468398	1.374729	-1.977941	-0.001684	0.002744	-0.002460	-0.747070	0.327393	0.303955	0.321057	-0.607057	-0.483506	-0.542795
23837		9.496371	1.288566	-1.965768	-0.001087	0.003905	-0.004520	-0.747559	0.326416	0.312988	0.321056	-0.607004	-0.483512	-0.542849
23838		9.498229	1.315061	-1.923856	0.001307	0.008626	-0.003694	-0.751465	0.328857	0.310059	0.321032	-0.606978	-0.483479	-0.542923
23839		9.468986	1.377109	-1.973467	-0.001731	0.009558	-0.000595	-0.745117	0.327393	0.303955	0.321052	-0.606944	-0.483412	-0.543007
23840		9.473833	1.373288	-1.991949	-0.004295	0.009837	-0.004548	-0.749023	0.328369	0.301514	0.321055	-0.606880	-0.483360	-0.543124
23841		9.470825	1.330759	-1.980671	-0.003946	0.009286	-0.003919	-0.752441	0.333008	0.313232	0.321094	-0.606786	-0.483331	-0.543232
23842		9.484661	1.290358	-1.952626	0.001082	0.010034	-0.005671	-0.750000	0.330566	0.309326	0.321089	-0.606755	-0.483281	-0.543314
23843		9.524161	1.286785	-1.977559	0.009937	0.011048	-0.001444	-0.744385	0.334473	0.308105	0.321203	-0.606680	-0.483274	-0.543337
23844		9.476502	1.309320	-1.935983	0.005926	0.008173	-0.001316	-0.748535	0.329102	0.302979	0.321274	-0.606689	-0.483201	-0.543350
23845		9.462272	1.364175	-1.949826	0.001414	0.003639	-0.001260	-0.756104	0.328125	0.299805	0.321321	-0.606652	-0.483193	-0.543370
23846		9.477576	1.357741	-1.911828	-0.002549	0.007080	-0.001401	-0.747070	0.332764	0.304443	0.321397	-0.606534	-0.483204	-0.543447
23847		9.501141	1.311142	-1.876320	-0.001127	0.007995	-0.003545	-0.754883	0.328369	0.307617	0.321427	-0.606507	-0.483140	-0.543515
23848		9.552193	1.320222	-1.942466	-0.012114	0.010848	0.000325	-0.749268	0.336426	0.309570	0.321397	-0.606486	-0.483010	-0.543673
23849		9.429242	1.340261	-1.965783	-0.007685	0.011318	-0.002093	-0.745117	0.329346	0.304932	0.321379	-0.606521	-0.482840	-0.543795
23850		9.453679	1.316164	-1.938760	-0.023079	0.006412	-0.001191	-0.751465	0.332275	0.302734	0.321228	-0.606608	-0.482621	-0.543982
23851		9.514587	1.301337	-1.937619	-0.018416	0.012275	0.000923	-0.744629	0.335205	0.305420	0.321203	-0.606612	-0.482416	-0.544174
23852		9.496741	1.300311	-1.960094	-0.001947	0.018649	-0.002746	-0.749756	0.331787	0.308350	0.321285	-0.606563	-0.482260	-0.544319
23853		9.511901	1.299381	-1.998510	-0.003113	0.014071	0.004000	-0.750977	0.332520	0.301270	0.321354	-0.606565	-0.482095	-0.544421
23854		9.473596	1.411615	-1.914383	-0.005665	0.009860	0.004610	-0.753662	0.340576	0.310791	0.321441	-0.606556	-0.481957	-0.544502
23855		9.457100	1.472665	-2.016544	-0.028221	-0.001524	0.002829	-0.749268	0.327881	0.301025	0.321224	-0.606807	-0.481643	-0.544628
23856		9.441709	1.299146	-1.991377	-0.022090	-0.008355	-0.001616	-0.744629	0.329346	0.304443	0.321024	-0.606928	-0.481541	-0.544702
23857		9.465373	1.103063	-1.934697	-0.005377	0.001573	-0.004344	-0.749268	0.329346	0.300293	0.320961	-0.606956	-0.481488	-0.544755
23858		9.526814	1.144620	-1.942194	0.017894	0.015929	0.000383	-0.755127	0.332031	0.298340	0.321236	-0.606765	-0.481538	-0.544760
23859		9.479682	1.303084	-1.933708	0.020615	0.016021	0.000171	-0.747803	0.327148	0.302979	0.321560	-0.606534	-0.481625	-0.544750
23860		9.462707	1.440911	-1.942516	0.008584	0.007396	0.000526	-0.748779	0.335449	0.301758	0.321676	-0.606463	-0.481636	-0.544752
23861		9.479838	1.388856	-1.866885	-0.011941	0.003121	0.002549	-0.757324	0.330322	0.305908	0.321652	-0.606547	-0.481469	-0.544820
23862		9.548554	1.304626	-1.781760	-0.008214	0.007419	-0.000238	-0.757568	0.323486	0.300537	0.321640	-0.606525	-0.481383	-0.544927
23863		9.569374	1.315701	-1.772152	0.000972	0.015978	-0.001769	-0.751709	0.328369	0.301025	0.321763	-0.606324	-0.481401	-0.545063
23864		9.498456	1.331105	-1.874535	0.007947	0.012978	-0.004614	-0.744629	0.330322	0.302002	0.321892	-0.606164	-0.481436	-0.545133
23865		9.449536	1.302894	-1.903757	0.002439	0.011921	-0.002165	-0.748291	0.332520	0.301758	0.321968	-0.606107	-0.481369	-0.545210
23866		9.491087	1.263745	-1.920399	-0.002072	0.007386	-0.002122	-0.745117	0.325195	0.299805	0.321998	-0.606090	-0.481295	-0.545277
23867		9.488385	1.277890	-1.918730	0.010551	-0.000913	-0.005068	-0.754639	0.330566	0.306396	0.322040	-0.606029	-0.481396	-0.545231
23868		9.483325	1.273378	-1.870057	0.009525	-0.010079	-0.001431	-0.754883	0.334229	0.297607	0.322029	-0.606080	-0.481482	-0.545105
23869		9.451420	1.316505	-1.875795	0.010231	-0.013904	-0.001051	-0.756592	0.327393	0.303711	0.322082	-0.606107	-0.481612	-0.544929
23870		9.588067	1.357696	-1.862176	-0.001131	-0.010092	-0.004082	-0.751953	0.334229	0.298584	0.321990	-0.606136	-0.481686	-0.544885
23871		9.464461	1.298874	-1.863957	-0.000347	-0.004479	-0.008641	-0.759033	0.326904	0.299561	0.321957	-0.606114	-0.481748	-0.544874
23872		9.496845	1.292119	-1.851453	0.005817	-0.004040	-0.007007	-0.744873	0.320557	0.308594	0.321970	-0.606012	-0.481899	-0.544847
23873		9.477322	1.288063	-1.928777	-0.018390	-0.007190	0.000264	-0.755615	0.336182	0.298828	0.321707	-0.606192	-0.481754	-0.544931
23874		9.478171	1.314256	-1.890739	-0.001873	-0.016189	-0.002353	-0.754883	0.329102	0.302002	0.321653	-0.606282	-0.481814	-0.544809
23875		9.494697	1.364947	-1.855535	0.000963	-0.012516	-0.003024	-0.747070	0.330322	0.303955	0.321590	-0.606327	-0.481897	-0.544723
23876		9.544898	1.365279	-1.896586	0.000373	-0.004226	-0.006593	-0.751465	0.341309	0.299805	0.321522	-0.606356	-0.481918	-0.544713
23877		9.467416	1.335522	-1.885020	0.003978	-0.005276	-0.003466	-0.747803	0.329590	0.307617	0.321576	-0.606385	-0.481942	-0.544626
23878		9.483626	1.299173	-1.919811	-0.007376	-0.000045	0.003371	-0.750244	0.329102	0.302246	0.321515	-0.606494	-0.481808	-0.544659
23879		9.407079	1.305640	-2.023092	-0.006717	0.012395	-0.000012	-0.756836	0.332275	0.299316	0.321556	-0.606441	-0.481695	-0.544794
23880		9.468501	1.318170	-1.942196	0.001997	0.003986	0.008480	-0.741211	0.332031	0.306152	0.321715	-0.606420	-0.481641	-0.544771
23881		9.591882	1.192657	-1.882081	0.019935	0.061179	0.027694	-0.753418	0.328369	0.303467	0.322398	-0.606183	-0.481231	-0.544995
23882		9.558169	1.368884	-1.602056	0.045990	0.095467	0.027921	-0.753174	0.333740	0.304443	0.323508	-0.605517	-0.480936	-0.545338
23883		9.962368	1.490833	-1.249965	0.079518	0.173881	0.001126	-0.750977	0.333252	0.301514	0.325149	-0.604061	-0.480714	-0.546170
23884		10.232744	1.518525	-0.717474	0.057046	0.332242	-0.019505	-0.751953	0.331299	0.289795	0.327408	-0.601507	-0.479825	-0.548417
23885		10.120656	1.331027	-0.160165	0.051566	0.467672	-0.053010	-0.750977	0.334717	0.276123	0.330224	-0.597795	-0.478604	-0.551843
23886		10.238774	1.331488	0.402783	0.046572	0.623584	-0.079219	-0.759766	0.331543	0.267090	0.333770	-0.592855	-0.476849	-0.556539
23887		9.983778	1.656063	1.400632	-0.137198	0.924828	-0.141088	-0.773682	0.318115	0.244873	0.337260	-0.586154	-0.472968	-0.564783
23888		9.330477	1.978720	2.411966	-0.335514	1.275933	-0.235560	-0.774170	0.323242	0.226562	0.340669	-0.577005	-0.466900	-0.577074
23889		7.911860	2.189394	2.976713	-0.713772	1.676005	-0.273278	-0.787354	0.316650	0.194580	0.343241	-0.566261	-0.456335	-0.594383
23890		6.831943	2.693695	1.780579	-0.764055	1.989456	-0.198584	-0.807129	0.297363	0.159180	0.347627	-0.553443	-0.443239	-0.613511
23891		6.612535	-1.401152	-1.230799	-0.287608	2.322403	-0.018924	-0.807861	0.299072	0.117920	0.358260	-0.536437	-0.430878	-0.631054
23892		7.416316	0.655945	-1.110640	-0.882683	1.838870	0.017394	-0.822266	0.297119	0.082520	0.362278	-0.525777	-0.415349	-0.647919
23893		7.154547	2.512801	0.526636	-1.092447	1.328054	-0.220856	-0.816406	0.299561	0.067139	0.360203	-0.518583	-0.401846	-0.663208
23894		9.062386	2.405408	1.538896	-0.810546	1.168521	-0.043517	-0.825684	0.301270	0.041260	0.360450	-0.512250	-0.389948	-0.674993
23895		10.460224	-1.190663	2.247365	-1.144434	1.471427	-0.023732	-0.819824	0.304932	0.019531	0.360141	-0.504660	-0.373602	-0.689955
23896		10.201173	-0.087208	-0.258444	0.076129	1.144765	-0.227492	-0.830566	0.283691	-0.000977	0.364101	-0.493308	-0.370276	-0.697835
23897		11.316040	3.108311	0.924623	0.250395	0.905287	-0.244693	-0.829590	0.277100	-0.017578	0.367750	-0.482998	-0.369814	-0.703356
23898		13.468406	1.043814	1.395768	-0.512955	0.716743	-0.054295	-0.825684	0.276855	-0.036621	0.367507	-0.478705	-0.362317	-0.710286
23899		13.735635	0.553412	-1.601612	0.928620	-0.291934	-0.021978	-0.830811	0.278809	-0.030273	0.371633	-0.476760	-0.372014	-0.704411
23900		17.827091	4.547648	0.913149	0.864298	-0.860052	0.018218	-0.826904	0.282959	-0.022217	0.372973	-0.480287	-0.383465	-0.695104
23901		22.934215	3.036238	2.338263	0.456392	-1.190140	0.211033	-0.828125	0.283203	0.005859	0.371904	-0.489392	-0.391594	-0.684717
23902		20.914932	0.420616	-2.004682	1.669892	-2.024556	0.363770	-0.821045	0.288818	0.029785	0.375174	-0.500440	-0.412875	-0.662071
23903		19.172715	5.780345	-2.127522	2.130876	-2.537781	0.572186	-0.814941	0.296875	0.076660	0.379908	-0.513861	-0.438528	-0.631910
23904		16.904601	8.207795	1.015270	0.902775	-2.242689	0.574929	-0.812012	0.318848	0.108398	0.377767	-0.530131	-0.452634	-0.609406
23905		9.613123	1.897550	0.981361	-0.060594	-1.854335	0.348576	-0.796631	0.312256	0.151611	0.369516	-0.546261	-0.458645	-0.595569
23906		2.903708	-0.877446	1.894038	0.453223	-1.843481	0.211276	-0.790527	0.332520	0.187988	0.363468	-0.558832	-0.469279	-0.579116
23907		0.446055	2.298122	3.931934	0.922525	-1.301764	0.167716	-0.791016	0.337891	0.200195	0.363413	-0.564946	-0.480700	-0.563645
23908		4.692576	2.930866	3.929927	0.029211	-0.417270	0.063809	-0.782959	0.336914	0.213623	0.361603	-0.568011	-0.482525	-0.560157
23909		3.106707	-2.308624	5.176642	-0.698227	0.425335	0.037430	-0.788086	0.329834	0.206299	0.359420	-0.568345	-0.475577	-0.567122
23910		-1.073670	-1.771045	-0.695059	0.097684	0.253594	-0.027403	-0.783203	0.333740	0.196533	0.361411	-0.565822	-0.475520	-0.568425
23911		-1.091008	2.367807	-2.334930	0.231709	0.394091	-0.095277	-0.792969	0.331787	0.186523	0.364734	-0.561328	-0.476118	-0.570256
23912		-0.649219	2.272309	0.742996	-0.216400	0.313090	-0.117716	-0.789795	0.327393	0.184570	0.364279	-0.559238	-0.474135	-0.574238
23913		0.836053	0.272411	2.219481	-0.404000	0.150649	-0.231631	-0.794922	0.321533	0.176758	0.360677	-0.558534	-0.472288	-0.578702
23914		1.136093	-0.173587	0.910152	-0.630329	0.401827	-0.245535	-0.802002	0.310059	0.191162	0.356932	-0.556835	-0.467734	-0.586310
23915		1.119068	-0.563983	1.214750	-0.765138	0.756196	-0.208159	-0.806641	0.307617	0.166992	0.354374	-0.553396	-0.460352	-0.596865
23916		3.765510	-0.246923	2.064266	-0.786991	1.175056	-0.162986	-0.805908	0.301270	0.158203	0.354492	-0.546951	-0.450443	-0.610148
23917		9.897751	3.831153	1.101955	-1.692712	1.944523	-0.146693	-0.813477	0.292725	0.125000	0.352534	-0.538504	-0.429714	-0.633308
23918		19.399909	5.245759	-0.330462	-1.690903	1.748005	0.036872	-0.808838	0.289551	0.105225	0.350704	-0.531999	-0.408209	-0.653719
23919		26.018366	8.551227	-7.182138	-0.544469	-0.516752	-0.406430	-0.820557	0.286133	0.124512	0.341093	-0.536522	-0.408644	-0.654836
23920		38.710944	5.267253	2.628834	-0.893611	-0.914622	-0.343637	-0.811768	0.272705	0.142822	0.327598	-0.546020	-0.407460	-0.654613
23921		30.988027	-6.996910	-0.361683	-0.543573	-0.891106	-0.030067	-0.817139	0.268066	0.162598	0.319124	-0.555328	-0.406815	-0.651362
23922		23.858395	-2.022711	-1.343474	2.535121	-1.092209	0.551979	-0.801758	0.286865	0.175049	0.335534	-0.556495	-0.427795	-0.628269
23923		9.696649	10.949973	-3.467376	1.413990	-1.242929	0.332873	-0.801758	0.307129	0.183838	0.341200	-0.561983	-0.441707	-0.610453
23924		2.794280	6.545179	0.572789	-0.260645	-0.993296	0.237555	-0.794434	0.317139	0.198730	0.335759	-0.571890	-0.442289	-0.603812
23925		2.361575	-0.527049	3.180101	-0.088545	-0.839670	0.056183	-0.790771	0.311523	0.221924	0.331081	-0.578805	-0.444664	-0.598034
23926		3.082896	-1.582091	3.997624	-0.004994	-0.298142	0.044298	-0.789062	0.314453	0.225830	0.329805	-0.581241	-0.445573	-0.595695
23927		2.292374	0.969989	4.494597	-0.202713	0.243142	-0.050504	-0.796875	0.308594	0.229248	0.329419	-0.579926	-0.443402	-0.598802
23928		0.009409	0.527825	0.129850	-0.426204	0.475965	-0.283551	-0.802002	0.293213	0.218018	0.326873	-0.576471	-0.440358	-0.605739
23929		-1.586004	-0.837579	-3.528577	-0.369926	0.453418	-0.159537	-0.810059	0.288818	0.214844	0.325506	-0.573532	-0.437008	-0.611662
23930		-0.586172	0.227944	0.279361	-0.374069	-0.120242	-0.164532	-0.797119	0.289795	0.222900	0.320925	-0.574944	-0.436019	-0.613460
23931		0.388926	-0.112446	-0.190951	-0.408888	-0.272556	-0.231791	-0.805176	0.285400	0.223389	0.314729	-0.577410	-0.435638	-0.614624
23932		1.196436	-0.537509	0.779028	-0.250978	-0.157059	-0.146234	-0.788086	0.279053	0.229492	0.311040	-0.578722	-0.435405	-0.615433
23933		3.519193	-0.984610	2.869204	-0.407837	0.465681	-0.121735	-0.807129	0.271484	0.222900	0.309705	-0.576073	-0.431232	-0.621499
23934		6.796586	-0.025183	2.590528	-1.322966	1.526629	-0.242205	-0.812256	0.260498	0.199707	0.306471	-0.567774	-0.416698	-0.640368
23935		9.813831	-1.211524	-0.858267	-1.289435	2.226907	0.060861	-0.824219	0.256836	0.160889	0.309285	-0.554870	-0.397177	-0.662354
23936		26.790827	6.695006	5.117332	-1.207381	1.802924	0.449432	-0.824951	0.260498	0.131836	0.313526	-0.546566	-0.376918	-0.678896
23937		28.353903	8.111811	2.522486	-1.159936	1.734706	0.007039	-0.823730	0.260010	0.100830	0.313765	-0.536188	-0.360060	-0.695996
23938		26.014563	2.536613	-4.660757	0.052575	0.090850	-0.216009	-0.831543	0.262207	0.102783	0.312711	-0.534174	-0.361493	-0.697275
23939		27.492241	-4.083822	-3.772566	1.226277	-1.040581	0.310273	-0.828125	0.266846	0.125977	0.318962	-0.539723	-0.373981	-0.683447
23940		23.708714	3.829509	-0.235270	2.945653	-1.678413	0.527611	-0.815186	0.288574	0.139893	0.335246	-0.544325	-0.401926	-0.655573
23941		15.323866	6.711676	0.209556	1.844398	-1.670871	0.350316	-0.812744	0.302734	0.152344	0.342159	-0.551837	-0.421422	-0.633093
23942		6.902535	4.091420	1.392927	1.518175	-1.156812	0.065665	-0.809570	0.302979	0.174316	0.347071	-0.554644	-0.437809	-0.616632
23943		2.248876	4.437639	2.902738	1.404877	-0.525417	0.126782	-0.799072	0.314697	0.157227	0.354855	-0.553173	-0.450142	-0.604524
23944		1.800417	1.399838	2.245016	-0.031456	-0.103984	0.153887	-0.804199	0.319336	0.170410	0.355305	-0.554897	-0.449259	-0.603335
23945		0.723205	-0.851897	2.792167	-0.078859	0.217331	-0.042454	-0.799561	0.315918	0.165771	0.355719	-0.553336	-0.448046	-0.605424
23946		-1.620254	0.208114	-0.782458	0.259288	-0.447674	-0.151478	-0.789795	0.308350	0.169189	0.353878	-0.554706	-0.453048	-0.601514
23947		-0.876414	0.796226	-1.123025	0.038919	-0.528545	-0.048180	-0.795654	0.305664	0.176270	0.350762	-0.558232	-0.455999	-0.597836
23948		0.667594	-0.791783	1.062795	0.085127	-0.262217	-0.058033	-0.794678	0.310059	0.187012	0.349426	-0.559413	-0.458272	-0.595772
23949		0.900406	-1.785529	2.615185	0.679927	-0.311631	-0.131033	-0.800293	0.309082	0.194824	0.351413	-0.557981	-0.465628	-0.590218
23950		1.173522	-1.543484	1.241357	0.821787	-0.054681	-0.020588	-0.801758	0.308594	0.177246	0.356626	-0.554617	-0.472178	-0.585034
23951		1.481293	1.092919	1.745934	0.190875	0.484064	-0.069724	-0.798340	0.322754	0.170898	0.360298	-0.549702	-0.472005	-0.587558
23952		6.332123	2.642743	2.715670	-0.373877	0.977910	-0.160682	-0.804443	0.317871	0.153809	0.362360	-0.543240	-0.465794	-0.597177
23953		11.964055	2.539273	-3.634898	0.253365	0.811323	-0.187243	-0.801514	0.309326	0.141846	0.367453	-0.534940	-0.465126	-0.602059
23954		21.622245	1.620871	2.383217	0.026688	1.325993	0.197057	-0.804932	0.315674	0.121094	0.376754	-0.525987	-0.457800	-0.609765
23955		35.836587	19.019670	13.409458	-1.306225	2.109340	-0.459181	-0.804688	0.299072	0.074951	0.376508	-0.513299	-0.440639	-0.632932
23956		14.066713	-0.777285	-6.821969	-2.094136	1.898477	-0.685572	-0.828613	0.291992	0.049316	0.367809	-0.504087	-0.419064	-0.659544
23957		6.719871	-20.229599	-15.101869	0.971976	-0.174154	-0.218621	-0.830322	0.281738	0.044189	0.371263	-0.499886	-0.429032	-0.654377
23958		17.572065	17.093561	-1.700965	2.779869	-1.475835	0.320120	-0.819580	0.292725	0.063477	0.383124	-0.500344	-0.456251	-0.628257
23959		11.350945	6.017770	3.486934	-1.430582	-1.448915	0.346087	-0.804688	0.291504	0.108154	0.368532	-0.520429	-0.449627	-0.625438
23960		4.996932	-4.488477	-2.573799	-0.251549	-1.686577	-0.153453	-0.804932	0.292480	0.145264	0.356075	-0.533895	-0.456337	-0.616379
23961		6.823805	0.380352	-3.191215	0.787566	-1.546780	-0.236740	-0.806885	0.287354	0.171387	0.350574	-0.540948	-0.470728	-0.602402
23962		9.399811	0.858149	2.433720	0.795089	-1.135943	0.083635	-0.801514	0.296875	0.188721	0.349828	-0.546470	-0.481178	-0.589457
23963		9.083078	2.503676	3.000088	0.395722	-0.739122	0.191878	-0.791016	0.302490	0.191650	0.349476	-0.551389	-0.486007	-0.581063
23964		9.756748	5.570554	2.401795	-0.541724	-0.330256	0.237383	-0.786133	0.306152	0.206055	0.345466	-0.557653	-0.481753	-0.581026
23965		9.992130	3.347542	1.840691	-0.712332	-0.188707	0.100865	-0.794678	0.307861	0.217285	0.340075	-0.562804	-0.476531	-0.583540
23966		10.251810	1.377955	0.826609	-0.184768	-0.007592	0.000726	-0.791992	0.303711	0.226318	0.338757	-0.563735	-0.475100	-0.584574
23967		9.594224	1.224506	0.197041	-0.003503	0.114253	0.048044	-0.794678	0.306396	0.216797	0.339727	-0.563313	-0.474228	-0.585125
23968		9.387085	2.081089	-0.552465	-0.024491	0.097555	0.099058	-0.788330	0.301025	0.209717	0.340868	-0.563367	-0.472843	-0.585531
23969		8.986637	2.399771	-0.524551	-0.170453	-0.082709	0.149841	-0.790039	0.312988	0.215088	0.340273	-0.565609	-0.470862	-0.585312
23970		9.293695	2.255219	-0.152712	-0.121541	-0.205950	0.132869	-0.788574	0.303223	0.220947	0.339186	-0.568518	-0.469711	-0.584048
23971		10.122464	1.215999	0.370950	-0.078940	-0.143757	0.156598	-0.783447	0.309082	0.224609	0.338921	-0.570809	-0.468707	-0.582772
23972		10.498127	0.591977	0.729895	0.093799	0.011726	0.159287	-0.783691	0.324707	0.217529	0.340804	-0.571307	-0.468169	-0.581617
23973		10.650559	0.887029	0.673657	0.158417	0.140539	0.132999	-0.783691	0.321045	0.216553	0.343749	-0.570512	-0.467441	-0.581250
23974		10.431664	1.408218	0.403929	-0.058546	0.272995	0.098202	-0.785400	0.322021	0.213623	0.345639	-0.569422	-0.464983	-0.583166
23975		10.247433	1.569719	-0.078684	-0.449895	0.464845	0.022933	-0.786133	0.318359	0.205566	0.345289	-0.568159	-0.459393	-0.589007
23976		9.355760	1.360162	-0.809322	-0.847900	0.545619	-0.068821	-0.778809	0.312256	0.205566	0.341862	-0.567410	-0.451131	-0.598045
23977		8.393517	1.480002	-2.004007	-0.724199	0.325115	-0.184461	-0.779297	0.304199	0.205811	0.337095	-0.567143	-0.445418	-0.605242
23978		7.870302	-0.453733	-1.958143	-0.200633	-0.342444	-0.064051	-0.786377	0.298828	0.210938	0.333197	-0.570368	-0.445600	-0.604235
23979		8.257391	-1.228862	-2.818255	-0.530541	-0.514290	0.092503	-0.783447	0.306885	0.223633	0.327216	-0.576992	-0.443024	-0.603108
23980		10.376588	-1.714832	-1.404592	0.027701	-0.329541	0.124047	-0.784668	0.309814	0.229980	0.326498	-0.580168	-0.443434	-0.600142
23981		10.087590	2.487917	1.385458	0.493806	0.014389	-0.127103	-0.779541	0.301514	0.233887	0.329188	-0.577429	-0.447779	-0.598084
23982		8.892901	3.435326	-2.534809	0.832751	-0.460272	-0.242088	-0.788086	0.302002	0.232178	0.330733	-0.576138	-0.457571	-0.591024
23983		10.080894	1.990507	-0.965392	-0.072536	-0.383743	-0.029465	-0.781006	0.309570	0.237793	0.327807	-0.579096	-0.458875	-0.588748
23984		9.004586	-0.036620	-0.901750	-0.495354	-0.418012	0.040489	-0.781494	0.307617	0.260498	0.322085	-0.584538	-0.456406	-0.588446
23985		8.907484	2.080769	-1.994715	-0.019292	-0.456940	0.011423	-0.781250	0.306885	0.254395	0.319351	-0.588187	-0.457851	-0.585169
23986		9.525114	4.278388	-2.155559	-0.243710	-0.571430	0.065882	-0.769775	0.308594	0.274658	0.314785	-0.593749	-0.457689	-0.582145
23987		9.943137	2.977822	-0.416065	-0.463381	-0.540930	0.059342	-0.770996	0.297852	0.293213	0.308622	-0.599980	-0.455745	-0.580580
23988		10.359821	1.814553	-0.290055	-0.609296	-0.469998	0.169335	-0.765381	0.304443	0.309570	0.302579	-0.606701	-0.451900	-0.579782
23989		10.278019	2.284941	-0.929569	-0.335305	-0.403734	0.109343	-0.759521	0.300781	0.309082	0.298480	-0.611640	-0.450002	-0.578191
23990		10.011551	1.621008	-1.380383	-0.015727	-0.236236	0.021973	-0.758301	0.298584	0.315430	0.297181	-0.613594	-0.450473	-0.576420
23991		9.579932	0.970308	-1.323140	0.025225	-0.091003	0.004141	-0.759521	0.306396	0.323242	0.296892	-0.614215	-0.450915	-0.575561
23992		9.710091	0.041122	-1.523112	-0.171012	-0.000920	0.090406	-0.752441	0.301270	0.318115	0.296168	-0.615507	-0.448791	-0.576214
23993		9.733890	0.988175	-2.187906	-0.065010	-0.003733	0.074384	-0.759033	0.302734	0.313721	0.296156	-0.616282	-0.447622	-0.576301
23994		9.133466	3.061314	-2.657243	0.135495	-0.039356	-0.008672	-0.754150	0.303467	0.321289	0.296941	-0.616039	-0.448711	-0.575308
23995		9.549787	2.214204	-1.953561	0.417014	-0.054184	-0.069028	-0.754150	0.307617	0.318359	0.299320	-0.614569	-0.452337	-0.572803
23996		9.780474	0.300499	-1.346624	0.594592	0.063468	-0.092015	-0.766357	0.306396	0.311768	0.303546	-0.611458	-0.456903	-0.570280
23997		9.709095	0.760186	-1.543308	0.425153	0.122320	-0.006889	-0.758545	0.312256	0.307129	0.307474	-0.608899	-0.459561	-0.568776
23998		9.414145	1.684014	-1.743050	0.159857	0.121034	0.065654	-0.761719	0.305908	0.302734	0.309835	-0.607871	-0.459637	-0.568532
23999		9.310666	1.387701	-1.852893	0.074834	0.008099	0.047373	-0.755127	0.318115	0.309814	0.310831	-0.607732	-0.459921	-0.567907
24000		9.421300	0.648505	-1.758921	0.346501	-0.017956	-0.048026	-0.766113	0.315430	0.291992	0.312951	-0.606373	-0.462675	-0.565955
24001		9.275438	1.038715	-1.474012	0.395018	-0.010297	-0.039686	-0.763672	0.315918	0.295410	0.315659	-0.604623	-0.465805	-0.563751
24002		9.360296	0.975906	-1.165358	0.316360	0.082254	-0.034225	-0.757080	0.324219	0.291504	0.318316	-0.602572	-0.468002	-0.562633
24003		9.305899	1.554973	-1.372309	0.229589	0.000071	-0.104079	-0.757568	0.325195	0.297607	0.319287	-0.601154	-0.470231	-0.561741
24004		9.217939	1.584427	-1.393846	0.146176	-0.072865	-0.052534	-0.760254	0.322021	0.287842	0.319521	-0.600926	-0.471775	-0.560556
24005		9.404081	1.254741	-1.127723	0.116864	-0.148553	0.033690	-0.768066	0.328613	0.291748	0.319757	-0.601758	-0.472822	-0.558644
24006		9.617355	1.826857	-1.209780	-0.013833	-0.109619	-0.001572	-0.750244	0.323242	0.297119	0.318982	-0.602647	-0.473022	-0.557959
24007		9.865654	1.646811	-1.368900	-0.168023	-0.069338	-0.030820	-0.756592	0.328613	0.306641	0.317044	-0.603738	-0.472214	-0.558567
24008		9.806420	0.876656	-1.350465	-0.111501	-0.053692	-0.029214	-0.760254	0.320557	0.298584	0.315583	-0.604582	-0.471630	-0.558976
24009		9.528929	0.944462	-1.571526	0.011697	-0.060026	-0.018057	-0.758301	0.322510	0.302246	0.315184	-0.604904	-0.471989	-0.558548
24010		9.617963	1.329485	-1.852322	0.014373	-0.044151	-0.014206	-0.755859	0.320312	0.304443	0.314894	-0.605176	-0.472221	-0.558220
24011		9.790073	1.291166	-2.009275	-0.057492	-0.007938	-0.036086	-0.754883	0.318115	0.302734	0.314124	-0.605338	-0.472014	-0.558654
24012		9.383991	1.159705	-2.256080	-0.146981	0.004947	-0.063651	-0.754395	0.315674	0.312012	0.312574	-0.605579	-0.471353	-0.559820
24013		9.245840	1.370837	-2.089372	-0.068812	-0.024083	-0.035400	-0.754395	0.316895	0.302979	0.311607	-0.605914	-0.471159	-0.560160
24014		9.495202	1.320068	-2.325016	-0.082799	-0.079834	-0.014620	-0.759766	0.319092	0.310547	0.310374	-0.606811	-0.470845	-0.560136
24015		9.510224	1.175950	-2.077924	-0.066155	-0.077232	-0.027482	-0.761230	0.311523	0.305664	0.309160	-0.607581	-0.470713	-0.560084
24016		9.455781	1.473734	-1.963953	0.036975	-0.057642	-0.053639	-0.758789	0.313721	0.313477	0.308751	-0.607528	-0.471583	-0.559636
24017		9.446070	1.720966	-1.920291	-0.012880	0.020539	-0.053548	-0.753418	0.314941	0.311768	0.308364	-0.607201	-0.471733	-0.560077
24018		9.639734	1.692475	-1.700410	-0.136732	0.025427	-0.048564	-0.752441	0.301270	0.307373	0.307071	-0.607403	-0.470868	-0.561295
24019		9.484969	1.369622	-1.647035	-0.081095	0.048470	-0.053096	-0.757568	0.318359	0.299072	0.306428	-0.607014	-0.470607	-0.562285
24020		9.546007	1.655695	-1.639624	-0.024150	0.071505	-0.048455	-0.763428	0.319336	0.311768	0.306266	-0.606492	-0.470187	-0.563287
24021		9.564234	1.964860	-1.778205	-0.106441	0.068601	-0.052782	-0.758545	0.311523	0.300049	0.305353	-0.606344	-0.469227	-0.564741
24022		9.383092	1.705277	-1.656171	-0.150591	0.006549	-0.045146	-0.762207	0.299072	0.302246	0.303883	-0.606740	-0.468230	-0.565935
24023		9.378671	1.421815	-1.791048	-0.089364	-0.049960	-0.035034	-0.760986	0.300049	0.309814	0.302731	-0.607182	-0.468090	-0.566194
24024		9.522423	1.458828	-1.685163	-0.054913	-0.061174	-0.023418	-0.763916	0.300537	0.314941	0.301800	-0.607708	-0.468090	-0.566127
24025		9.567230	1.608573	-1.758945	-0.087943	-0.033564	-0.021037	-0.768555	0.292725	0.318115	0.300772	-0.608198	-0.467718	-0.566455
24026		9.393841	1.700313	-1.657686	-0.083239	-0.042229	-0.035579	-0.756836	0.299561	0.322021	0.299695	-0.608530	-0.467708	-0.566678
24027		9.379844	1.775372	-1.626349	-0.062382	-0.039076	-0.033780	-0.756348	0.290527	0.329102	0.298693	-0.608952	-0.467575	-0.566863
24028		9.544927	1.591902	-1.759352	-0.048798	-0.027667	-0.028610	-0.763184	0.300781	0.316895	0.297947	-0.609182	-0.467644	-0.566952
24029		9.551346	1.562813	-1.629155	-0.035351	-0.020543	-0.030872	-0.757568	0.296387	0.326172	0.297294	-0.609378	-0.467556	-0.567156
24030		9.482065	1.724102	-1.764738	-0.036946	-0.016133	-0.027543	-0.761230	0.293701	0.329590	0.296664	-0.609574	-0.467481	-0.567337
24031		9.454523	1.644146	-1.850211	-0.031725	-0.011349	-0.024583	-0.759521	0.295654	0.316895	0.296133	-0.609703	-0.467463	-0.567490
24032		9.382707	1.636137	-1.864502	-0.000491	-0.038670	-0.032712	-0.762939	0.293457	0.313232	0.295655	-0.609854	-0.467752	-0.567340
24033		9.383105	1.686147	-1.870826	0.003871	-0.045472	-0.024498	-0.755615	0.294189	0.317383	0.295271	-0.610028	-0.468082	-0.567080
24034		9.541973	1.696177	-1.899754	0.009012	-0.039533	-0.012246	-0.754883	0.297119	0.322510	0.295014	-0.610267	-0.468290	-0.566785
24035		9.422088	1.554800	-1.842980	-0.003548	-0.044803	-0.024000	-0.756592	0.294434	0.325439	0.294495	-0.610585	-0.468452	-0.566579
24036		9.459587	1.751523	-1.870392	0.016712	-0.027951	-0.020785	-0.761963	0.287598	0.328613	0.294267	-0.610696	-0.468729	-0.566348
24037		9.501706	1.775486	-1.792478	0.035416	-0.011069	-0.019594	-0.761475	0.297607	0.322510	0.294350	-0.610520	-0.469236	-0.566075
24038		9.429948	1.705862	-1.861239	0.025776	-0.018803	-0.018345	-0.752930	0.286865	0.320068	0.294248	-0.610567	-0.469461	-0.565891
24039		9.495146	1.681109	-1.811305	0.029465	-0.013618	-0.013841	-0.759766	0.286377	0.328613	0.294354	-0.610445	-0.469878	-0.565621
24040		9.435391	1.706861	-1.871884	-0.007025	-0.013402	-0.019234	-0.754883	0.282715	0.323242	0.294112	-0.610434	-0.470105	-0.565571
24041		9.427259	1.725391	-1.892693	0.016264	-0.014992	-0.011724	-0.759521	0.293213	0.324707	0.294144	-0.610339	-0.470496	-0.565331
24042		9.451525	1.632951	-1.850362	0.037431	-0.009611	-0.008340	-0.755615	0.293945	0.322021	0.294290	-0.610288	-0.470781	-0.565073
24043		9.433361	1.701214	-1.804104	0.039648	-0.003872	-0.010757	-0.756592	0.290039	0.327393	0.294475	-0.610181	-0.471059	-0.564861
24044		9.458939	1.766090	-1.806701	0.019478	-0.015469	-0.009867	-0.760498	0.298340	0.320801	0.294456	-0.610199	-0.471318	-0.564635
24045		9.415490	1.711239	-1.897683	0.001093	-0.014632	-0.002919	-0.760498	0.288330	0.322754	0.294308	-0.610394	-0.471229	-0.564575
24046		9.491071	1.735226	-1.882426	-0.005903	-0.008273	-0.000419	-0.753418	0.287842	0.318359	0.294247	-0.610454	-0.471252	-0.564523
24047		9.368702	1.703415	-1.974979	0.016079	-0.012430	-0.002997	-0.753906	0.287598	0.327637	0.294334	-0.610441	-0.471459	-0.564319
24048		9.417571	1.684718	-1.970524	0.011315	-0.021644	0.005598	-0.757080	0.291016	0.326660	0.294350	-0.610593	-0.471611	-0.564019
24049		9.444077	1.702324	-1.909878	0.008222	-0.023906	0.003460	-0.758301	0.284424	0.324707	0.294294	-0.610787	-0.471711	-0.563755
24050		9.472295	1.728760	-1.957709	0.019291	-0.012899	-0.001157	-0.756592	0.299805	0.334717	0.294421	-0.610738	-0.472006	-0.563494
24051		9.474888	1.704660	-1.892096	0.001060	0.002719	0.007259	-0.760742	0.289062	0.317627	0.294397	-0.610924	-0.471786	-0.563490
24052		9.449729	1.651854	-1.822341	-0.006001	-0.005172	0.003432	-0.758057	0.291260	0.320557	0.294407	-0.610959	-0.471762	-0.563466
24053		9.418138	1.725120	-1.850095	0.041666	0.006540	0.002756	-0.751465	0.289307	0.334473	0.294815	-0.610776	-0.471995	-0.563256
24054		9.456311	1.675092	-1.961893	0.037894	0.002149	0.003986	-0.754150	0.291016	0.329346	0.295130	-0.610688	-0.472248	-0.562975
24055		9.455884	1.665241	-1.803169	0.027810	0.006251	0.004357	-0.759766	0.297607	0.320312	0.295406	-0.610601	-0.472390	-0.562805
24056		9.377971	1.626101	-1.942435	0.049034	-0.002683	0.002739	-0.758789	0.296387	0.323486	0.295774	-0.610515	-0.472624	-0.562509
24057		9.431706	1.728136	-1.887478	0.030072	-0.016555	0.012583	-0.764404	0.298584	0.322754	0.295981	-0.610650	-0.472731	-0.562163
24058		9.442673	1.730953	-1.813927	0.009983	-0.015997	0.012606	-0.753174	0.298584	0.321289	0.296028	-0.610860	-0.472670	-0.561961
24059		9.461396	1.601480	-1.862354	0.043647	-0.009874	0.008730	-0.759277	0.290039	0.329590	0.296354	-0.610890	-0.472853	-0.561603
24060		9.478552	1.515610	-2.024142	0.003709	0.001050	0.011137	-0.752930	0.298340	0.318115	0.296487	-0.610918	-0.472851	-0.561503
24061		9.444925	1.639136	-1.897601	-0.013012	-0.004658	0.008228	-0.760010	0.289795	0.327393	0.296430	-0.611092	-0.472640	-0.561522
24062		9.457319	1.665026	-1.867854	0.011789	0.002492	0.007180	-0.751953	0.293945	0.322510	0.296619	-0.611041	-0.472725	-0.561406
24063		9.462759	1.609033	-2.052958	0.035109	0.004664	0.005050	-0.753418	0.298584	0.321045	0.296977	-0.610917	-0.472916	-0.561191
24064		9.434277	1.590946	-1.990229	0.030854	-0.004058	0.004513	-0.759521	0.295898	0.324463	0.297224	-0.610905	-0.473052	-0.560958
24065		9.403808	1.576525	-1.847171	0.027359	0.002278	0.006055	-0.760254	0.296387	0.330078	0.297495	-0.610841	-0.473175	-0.560781
24066		9.467581	1.611102	-2.015520	0.030045	0.008335	0.002901	-0.754883	0.292969	0.319824	0.297774	-0.610727	-0.473318	-0.560636
24067		9.459757	1.594017	-1.915051	0.034848	0.006109	0.003052	-0.755859	0.294434	0.322510	0.298148	-0.610544	-0.473552	-0.560440
24068		9.424095	1.569023	-1.863114	0.031216	-0.018541	0.003121	-0.755615	0.298828	0.319824	0.298326	-0.610570	-0.473835	-0.560077
24069		9.450301	1.570775	-1.960846	0.030239	0.000619	0.003550	-0.759766	0.304443	0.325195	0.298600	-0.610499	-0.473980	-0.559886
24070		9.492491	1.615290	-1.854120	0.032052	0.019904	0.004491	-0.756104	0.298340	0.338379	0.298952	-0.610358	-0.473992	-0.559842
24071		9.490466	1.603953	-1.840278	0.037692	0.025601	0.000367	-0.755615	0.306152	0.319824	0.299335	-0.610123	-0.474141	-0.559767
24072		9.424750	1.625161	-1.982792	0.049842	0.011468	-0.001098	-0.765625	0.301758	0.318359	0.299745	-0.609944	-0.474335	-0.559578
24073		9.431884	1.657247	-1.889602	0.007378	0.016859	0.000294	-0.747803	0.296875	0.322510	0.299899	-0.609829	-0.474260	-0.559684
24074		9.437124	1.586319	-1.883601	0.009858	0.005867	-0.002994	-0.753906	0.303955	0.317139	0.300011	-0.609750	-0.474348	-0.559636
24075		9.483709	1.536271	-1.856169	0.045288	0.003278	-0.001525	-0.754639	0.297119	0.319824	0.300361	-0.609609	-0.474586	-0.559401
24076		9.480020	1.534763	-1.923293	0.024960	0.023249	0.001000	-0.752930	0.301514	0.318359	0.300724	-0.609356	-0.474681	-0.559400
24077		9.400706	1.639150	-1.887742	-0.002943	0.004372	0.003421	-0.751465	0.303955	0.317139	0.300759	-0.609396	-0.474581	-0.559423
24078		9.532804	1.654372	-1.808947	-0.006408	0.015243	0.001814	-0.748291	0.295654	0.321533	0.300814	-0.609382	-0.474400	-0.559561
24079		9.430468	1.495021	-1.937306	0.011672	0.017516	-0.003502	-0.757080	0.303223	0.320557	0.301016	-0.609192	-0.474485	-0.559588
24080		9.465444	1.524525	-1.811001	-0.001354	-0.006369	-0.000470	-0.761719	0.303467	0.314941	0.300948	-0.609298	-0.474444	-0.559543
24081		9.449208	1.636628	-1.819151	-0.030849	0.004886	0.001915	-0.760742	0.299805	0.322510	0.300756	-0.609426	-0.474130	-0.559773
24082		9.452103	1.599873	-1.860405	0.003012	0.005914	0.000314	-0.762939	0.308105	0.324951	0.300808	-0.609406	-0.474103	-0.559791
24083		9.509079	1.586776	-1.930505	-0.005119	0.003694	-0.002836	-0.759033	0.302979	0.315186	0.300699	-0.609500	-0.473948	-0.559877
24084		9.449623	1.623782	-1.926345	-0.030344	-0.005524	-0.004702	-0.760010	0.305908	0.321777	0.300407	-0.609661	-0.473734	-0.560041
24085		9.384500	1.573589	-1.919825	-0.025455	-0.016347	-0.002497	-0.762207	0.299561	0.320557	0.300055	-0.609946	-0.473534	-0.560088
24086		9.429844	1.615343	-1.928899	-0.007318	-0.019562	-0.001247	-0.757080	0.299561	0.326172	0.299874	-0.610124	-0.473538	-0.559987
24087		9.442630	1.564124	-1.889167	-0.022240	-0.015469	0.000172	-0.759766	0.311035	0.317871	0.299597	-0.610361	-0.473415	-0.559981
24088		9.482739	1.588262	-1.827235	-0.004906	-0.006294	-0.000224	-0.753906	0.301270	0.322754	0.299462	-0.610548	-0.473237	-0.560000
24089		9.495468	1.603259	-1.858008	-0.001839	0.008683	-0.006137	-0.754883	0.301514	0.312988	0.299450	-0.610507	-0.473198	-0.560085
24090		9.419238	1.603749	-1.881943	-0.016142	0.003141	-0.003514	-0.751465	0.301514	0.328125	0.299354	-0.610537	-0.473061	-0.560219
24091		9.408171	1.635098	-1.856254	-0.021502	0.001868	0.000273	-0.755371	0.307861	0.318115	0.299172	-0.610682	-0.472856	-0.560331
24092		9.451015	1.575208	-1.867616	0.002931	0.005422	0.005227	-0.754395	0.302246	0.314941	0.299227	-0.610764	-0.472689	-0.560353
24093		9.481060	1.544989	-1.864604	0.009499	0.003631	0.003896	-0.765137	0.302979	0.315186	0.299369	-0.610754	-0.472664	-0.560309
24094		9.495179	1.593701	-1.832554	0.004438	0.005963	0.000936	-0.753906	0.296387	0.312500	0.299441	-0.610733	-0.472590	-0.560357
24095		9.456728	1.629177	-1.790231	-0.007712	0.013798	0.001794	-0.754639	0.308105	0.325928	0.299553	-0.610629	-0.472506	-0.560480
24096		9.394223	1.606135	-1.899056	-0.005082	-0.008492	-0.000416	-0.756104	0.300537	0.322998	0.299393	-0.610834	-0.472381	-0.560448
24097		9.472059	1.640805	-1.853730	-0.010435	-0.016058	0.002796	-0.761963	0.301758	0.324951	0.299233	-0.611041	-0.472314	-0.560364
24098		9.424377	1.599757	-1.900994	-0.031838	-0.015974	0.000068	-0.753418	0.300537	0.331055	0.298863	-0.611330	-0.472088	-0.560437
24099		9.441245	1.581043	-1.828870	-0.022561	-0.016799	0.004977	-0.751465	0.298096	0.326172	0.298591	-0.611632	-0.471916	-0.560397
24100		9.477508	1.545867	-1.882995	-0.000950	-0.025412	0.001956	-0.757812	0.295166	0.320312	0.298458	-0.611849	-0.471990	-0.560169
24101		9.519908	1.531624	-1.866858	0.009569	-0.011661	0.001775	-0.749268	0.309814	0.320312	0.298524	-0.611871	-0.472118	-0.560001
24102		9.448889	1.525291	-1.955209	0.002634	0.001123	-0.003610	-0.755371	0.303223	0.316406	0.298489	-0.611945	-0.472033	-0.560010
24103		9.420014	1.570746	-1.797079	0.014411	-0.001198	-0.005364	-0.753662	0.301758	0.324707	0.298571	-0.611898	-0.472123	-0.559942
24104		9.447121	1.553458	-1.835061	0.016404	-0.006745	-0.001785	-0.751465	0.301270	0.324951	0.298635	-0.611923	-0.472232	-0.559789
24105		9.498863	1.555961	-1.867498	-0.006403	-0.015284	-0.003773	-0.758545	0.304932	0.328369	0.298468	-0.612076	-0.472241	-0.559704
24106		9.490242	1.596264	-1.855750	-0.008177	-0.010762	-0.002526	-0.753906	0.294189	0.319092	0.298267	-0.612262	-0.472143	-0.559689
24107		9.438275	1.612302	-1.967279	0.017514	-0.011514	-0.004430	-0.757324	0.304688	0.324219	0.298378	-0.612195	-0.472399	-0.559488
24108		9.440272	1.511421	-1.898346	0.012870	-0.003473	-0.005475	-0.751953	0.302490	0.325684	0.298387	-0.612212	-0.472458	-0.559416
24109		9.472765	1.594416	-1.919411	0.005696	-0.004634	-0.006480	-0.751953	0.298340	0.320312	0.298347	-0.612241	-0.472515	-0.559357
24110		9.417006	1.536134	-1.955211	0.012223	-0.007340	-0.005788	-0.753418	0.299561	0.327881	0.298401	-0.612203	-0.472681	-0.559229
24111		9.437886	1.569496	-1.950336	0.006060	-0.019637	-0.002242	-0.756836	0.297119	0.327881	0.298312	-0.612340	-0.472792	-0.559033
24112		9.456551	1.626547	-1.964324	0.005110	-0.017500	-0.008331	-0.756348	0.303955	0.322266	0.298196	-0.612405	-0.472954	-0.558887
24113		9.437666	1.596888	-1.866435	0.008882	-0.004152	-0.007379	-0.756836	0.301025	0.323486	0.298177	-0.612409	-0.473018	-0.558838
24114		9.480259	1.569476	-1.956978	0.006222	0.003300	-0.005090	-0.753906	0.307129	0.325195	0.298211	-0.612363	-0.473046	-0.558847
24115		9.437727	1.664305	-1.932251	-0.005573	-0.007886	-0.002436	-0.758301	0.296387	0.322021	0.298064	-0.612519	-0.472952	-0.558833
24116		9.430538	1.660911	-1.852672	-0.007848	-0.004092	-0.004040	-0.755615	0.299072	0.323730	0.297990	-0.612531	-0.472953	-0.558859
24117		9.440957	1.574692	-1.883060	0.018523	-0.008198	-0.003516	-0.758545	0.301025	0.318359	0.298075	-0.612510	-0.473122	-0.558693
24118		9.511412	1.574816	-1.978547	0.015085	-0.004561	-0.002933	-0.757812	0.300293	0.328369	0.298167	-0.612475	-0.473230	-0.558591
24119		9.404149	1.642936	-1.865377	-0.026646	-0.015588	-0.003012	-0.760986	0.291992	0.323730	0.297832	-0.612708	-0.473081	-0.558641
24120		9.411358	1.604983	-1.882308	-0.001598	-0.009882	-0.002206	-0.750732	0.305420	0.322021	0.297796	-0.612716	-0.473164	-0.558581
24121		9.499501	1.560617	-1.985408	0.018112	-0.011229	-0.003777	-0.758789	0.297852	0.324219	0.297842	-0.612762	-0.473296	-0.558394
24122		9.457351	1.542501	-1.921250	0.012633	-0.002965	-0.004733	-0.759033	0.297607	0.321289	0.297905	-0.612709	-0.473415	-0.558318
24123		9.456732	1.522054	-1.872304	0.043836	0.016381	-0.006675	-0.758057	0.299072	0.325195	0.298322	-0.612378	-0.473701	-0.558215
24124		9.471230	1.655888	-2.002755	0.040866	0.012712	-0.008217	-0.762207	0.300049	0.322021	0.298657	-0.612106	-0.473974	-0.558103
24125		9.432301	1.667023	-2.044173	-0.005358	-0.004272	-0.009874	-0.752686	0.298828	0.324951	0.298525	-0.612111	-0.473986	-0.558158
24126		9.361976	1.523779	-1.874848	-0.027828	-0.024302	-0.000152	-0.755371	0.296387	0.312744	0.298185	-0.612397	-0.473875	-0.558120
24127		9.413296	1.512553	-1.971712	-0.000142	-0.031909	0.000623	-0.749268	0.299561	0.333008	0.298083	-0.612564	-0.474017	-0.557871
24128		9.457536	1.566817	-1.924243	0.014995	-0.030198	-0.001062	-0.760254	0.302979	0.324707	0.297999	-0.612762	-0.474219	-0.557527
24129		9.500331	1.622093	-1.884492	0.002799	-0.015141	-0.002303	-0.759033	0.300293	0.324463	0.297901	-0.612885	-0.474246	-0.557419
24130		9.478257	1.576116	-1.956466	0.003085	-0.007526	-0.006571	-0.753662	0.301025	0.328369	0.297839	-0.612906	-0.474306	-0.557379
24131		9.443405	1.583971	-2.020127	0.004238	0.000263	-0.007356	-0.749512	0.303223	0.326416	0.297818	-0.612883	-0.474353	-0.557376
24132		9.415959	1.580220	-1.976100	0.008008	-0.004841	-0.005284	-0.749756	0.302246	0.324219	0.297817	-0.612902	-0.474429	-0.557292
24133		9.375866	1.557002	-2.033399	0.002342	-0.021258	-0.007774	-0.757568	0.297607	0.329102	0.297674	-0.613023	-0.474557	-0.557125
24134		9.438652	1.611699	-2.046930	-0.015948	-0.022550	-0.007217	-0.760254	0.302490	0.332764	0.297368	-0.613213	-0.474560	-0.557078
24135		9.487299	1.588105	-1.971810	-0.005415	-0.006526	-0.008665	-0.753662	0.306152	0.327881	0.297182	-0.613297	-0.474533	-0.557107
24136		9.419916	1.548926	-2.003092	0.012077	-0.004093	-0.011185	-0.756836	0.311035	0.331787	0.297149	-0.613289	-0.474638	-0.557044
24137		9.414632	1.567303	-1.923206	0.038133	-0.005870	-0.006983	-0.753906	0.303711	0.329834	0.297282	-0.613281	-0.474839	-0.556810
24138		9.452009	1.635483	-1.936718	0.033322	0.008508	-0.008840	-0.746338	0.297852	0.324951	0.297503	-0.613111	-0.475040	-0.556708
24139		9.458007	1.584313	-2.021890	0.003314	-0.004852	-0.011293	-0.752197	0.303955	0.324707	0.297472	-0.613054	-0.475190	-0.556659
24140		9.418585	1.613835	-1.914116	0.018181	-0.004872	-0.011026	-0.754883	0.301270	0.321777	0.297510	-0.612999	-0.475369	-0.556547
24141		9.393445	1.672376	-1.967623	0.024515	-0.009333	-0.007684	-0.754639	0.296631	0.323730	0.297613	-0.612938	-0.475603	-0.556358
24142		9.447866	1.618737	-1.945895	0.020967	-0.012448	-0.003458	-0.753906	0.309814	0.322510	0.297716	-0.612908	-0.475827	-0.556145
24143		9.481607	1.530427	-1.970920	0.005818	-0.000173	-0.008240	-0.761719	0.297119	0.327881	0.297686	-0.612917	-0.475838	-0.556142
24144		9.476655	1.557648	-1.958447	0.025102	0.003109	-0.008737	-0.762695	0.302002	0.325439	0.297834	-0.612759	-0.476034	-0.556070
24145		9.386268	1.598247	-1.997889	0.034522	0.005958	-0.012048	-0.750000	0.296631	0.321289	0.298032	-0.612556	-0.476273	-0.555983
24146		9.383479	1.588122	-2.029202	0.013834	-0.006860	-0.008761	-0.758789	0.304688	0.324219	0.298100	-0.612467	-0.476490	-0.555858
24147		9.452503	1.648117	-2.080762	0.015500	-0.004627	-0.007281	-0.754150	0.294678	0.321533	0.298126	-0.612448	-0.476598	-0.555771
24148		9.401625	1.547266	-1.989761	-0.004708	-0.008573	-0.005343	-0.752930	0.305664	0.323975	0.298061	-0.612451	-0.476665	-0.555746
24149		9.430821	1.546664	-1.909266	-0.010404	-0.020957	-0.006006	-0.755615	0.297852	0.328125	0.297815	-0.612650	-0.476661	-0.555661
24150		9.446128	1.638036	-1.970372	-0.002801	-0.015829	-0.006854	-0.752197	0.298096	0.326904	0.297660	-0.612743	-0.476731	-0.555582
24151		9.447993	1.622427	-2.064424	-0.014391	-0.008648	-0.003177	-0.756836	0.300781	0.328613	0.297499	-0.612844	-0.476679	-0.555602
24152		9.425920	1.592105	-2.072620	-0.033813	-0.001514	-0.009490	-0.750488	0.306152	0.327881	0.297157	-0.612960	-0.476473	-0.555833
24153		9.427736	1.584961	-2.034961	-0.012610	-0.014452	-0.013749	-0.750000	0.296387	0.319336	0.296869	-0.613093	-0.476484	-0.555832
24154		9.432499	1.571782	-2.069771	-0.007805	-0.010861	-0.007442	-0.749512	0.296631	0.320557	0.296767	-0.613113	-0.476555	-0.555803
24155		9.433249	1.526435	-2.094184	-0.006981	0.000578	-0.003639	-0.761475	0.292480	0.326416	0.296760	-0.613081	-0.476555	-0.555843
24156		9.404638	1.641083	-1.960850	-0.009185	-0.003302	-0.005941	-0.749512	0.290527	0.330566	0.296647	-0.613082	-0.476534	-0.555920
24157		9.423575	1.650508	-2.043932	0.003952	0.003039	-0.008521	-0.758057	0.293457	0.329590	0.296672	-0.612973	-0.476640	-0.555936
24158		9.437745	1.608289	-2.069787	0.014246	0.000223	-0.006054	-0.752686	0.307861	0.330078	0.296746	-0.612883	-0.476763	-0.555889
24159		9.398128	1.604577	-1.933219	-0.001649	-0.004009	-0.005185	-0.752197	0.304443	0.331299	0.296653	-0.612970	-0.476734	-0.555869
24160		9.404516	1.641832	-2.043215	0.004357	-0.006995	-0.004517	-0.742676	0.300049	0.329346	0.296596	-0.613044	-0.476765	-0.555791
24161		9.417907	1.693260	-2.013087	-0.001028	0.003043	-0.008836	-0.743408	0.301758	0.333008	0.296576	-0.613000	-0.476817	-0.555806
24162		9.432696	1.655258	-1.949138	0.005083	-0.003580	-0.006386	-0.752197	0.294678	0.325195	0.296557	-0.613020	-0.476896	-0.555726
24163		9.438005	1.605424	-1.994919	0.006093	-0.004784	-0.002332	-0.755859	0.295654	0.334717	0.296599	-0.613000	-0.476978	-0.555654
24164		9.427174	1.634274	-2.011735	-0.015479	-0.004318	-0.003410	-0.753174	0.299072	0.330078	0.296413	-0.613102	-0.476873	-0.555732
24165		9.419996	1.642304	-1.959959	-0.010373	0.000152	-0.004824	-0.756592	0.298340	0.324951	0.296303	-0.613143	-0.476803	-0.555805
24166		9.460013	1.678386	-1.926128	-0.006290	-0.006809	-0.003660	-0.751465	0.292236	0.325439	0.296208	-0.613200	-0.476782	-0.555810
24167		9.514053	1.770694	-1.971003	-0.028983	-0.002911	-0.002925	-0.754150	0.290283	0.333008	0.295995	-0.613282	-0.476628	-0.555966
24168		9.477778	1.726294	-1.958189	-0.046594	-0.019753	0.001156	-0.753906	0.301514	0.336914	0.295534	-0.613598	-0.476357	-0.556095
24169		9.492710	1.700804	-1.875141	-0.101925	-0.021013	0.008191	-0.742188	0.294922	0.333740	0.294650	-0.614243	-0.475596	-0.556503
24170		9.460703	1.626677	-2.005068	-0.150513	-0.028154	0.013334	-0.748535	0.295898	0.334717	0.293449	-0.615086	-0.474559	-0.557091
24171		9.296050	1.600776	-2.074185	-0.201751	-0.030478	0.011200	-0.750488	0.291504	0.331787	0.291805	-0.616131	-0.473157	-0.557992
24172		9.297709	1.661387	-2.179849	-0.296264	-0.050969	0.020198	-0.751465	0.293457	0.339844	0.289395	-0.617674	-0.471113	-0.559269
24173		9.270352	1.703259	-2.031364	-0.356102	-0.063367	0.026166	-0.750732	0.292969	0.336670	0.286451	-0.619589	-0.468608	-0.560770
24174		9.365916	1.576613	-2.228079	-0.370518	-0.082104	0.023506	-0.754395	0.292725	0.344482	0.283292	-0.621635	-0.466093	-0.562204
24175		9.523105	1.395302	-2.329673	-0.382402	-0.089582	0.028107	-0.754639	0.285156	0.345947	0.279990	-0.623818	-0.463441	-0.563630
24176		9.486748	1.304243	-2.234322	-0.347920	-0.093259	0.027770	-0.746094	0.288574	0.350830	0.276945	-0.625856	-0.461056	-0.564830
24177		9.470839	1.401633	-2.299177	-0.279566	-0.065190	0.031443	-0.740967	0.291260	0.353027	0.274628	-0.627493	-0.459031	-0.565794
24178		9.295600	1.625884	-2.446275	-0.259252	-0.039845	0.034884	-0.744629	0.281738	0.360107	0.272648	-0.628904	-0.457038	-0.566797
24179		9.374423	1.733701	-2.494029	-0.294594	-0.016191	0.061745	-0.739746	0.274414	0.355469	0.270689	-0.630402	-0.454492	-0.568118
24180		9.261069	2.085101	-2.084596	-0.435576	-0.069441	0.134878	-0.749268	0.279053	0.364746	0.267885	-0.633095	-0.450594	-0.569556
24181		9.201444	2.384916	-2.707032	-0.539044	-0.069150	0.204601	-0.743164	0.277588	0.380615	0.264685	-0.636554	-0.445312	-0.571347
24182		8.916325	1.956354	-2.738601	-0.478858	-0.017599	0.229941	-0.736328	0.269775	0.377930	0.262379	-0.639597	-0.440058	-0.573081
24183		9.059508	2.257938	-2.571600	-0.459320	-0.084989	0.222878	-0.734863	0.274414	0.383301	0.259849	-0.642930	-0.435262	-0.574166
24184		9.663853	2.365995	-2.907428	-0.331158	0.013042	0.176036	-0.741211	0.269287	0.382324	0.258528	-0.644889	-0.431419	-0.575464
24185		9.272431	2.410197	-1.706861	-0.259256	-0.039364	0.167261	-0.736816	0.276855	0.387695	0.257434	-0.646904	-0.428315	-0.576011
24186		9.480294	1.854797	-1.755487	-0.289978	-0.002043	0.187697	-0.735352	0.282227	0.387451	0.256425	-0.648883	-0.424691	-0.576919
24187		9.608761	1.551990	-2.009645	-0.183676	0.000034	0.145204	-0.737061	0.281738	0.384766	0.255990	-0.650276	-0.422167	-0.577396
24188		9.593407	1.382941	-1.591728	-0.048443	0.011644	0.123452	-0.733398	0.280273	0.378174	0.256570	-0.651013	-0.420756	-0.577337
24189		9.518834	1.384802	-1.265897	0.113901	0.104587	0.136828	-0.736084	0.284424	0.382812	0.259099	-0.650583	-0.420145	-0.577138
24190		9.562677	1.681228	-1.093423	0.210718	0.105733	0.160758	-0.729248	0.294678	0.382812	0.262543	-0.649989	-0.419990	-0.576363
24191		9.492252	1.817211	-1.176140	0.122941	0.141845	0.170711	-0.740234	0.288818	0.378418	0.265539	-0.649493	-0.419018	-0.576257
24192		9.354746	2.310953	-1.307218	0.079248	0.089494	0.160579	-0.733154	0.299805	0.374512	0.267793	-0.649437	-0.417932	-0.576066
24193		9.177537	2.061917	-1.630345	0.140294	0.069499	0.154596	-0.732422	0.301758	0.365723	0.270428	-0.649292	-0.417435	-0.575358
24194		9.350122	2.147213	-1.543963	0.217639	-0.005059	0.175505	-0.728027	0.319824	0.373047	0.273482	-0.649488	-0.417595	-0.573575
24195		9.741553	2.320841	-1.400066	0.201404	-0.004074	0.189089	-0.735107	0.319092	0.364502	0.276478	-0.649866	-0.417512	-0.571768
24196		10.596607	2.201708	-1.394396	0.299807	0.140728	0.147705	-0.732178	0.327637	0.364014	0.280727	-0.648603	-0.417933	-0.570823
24197		10.821421	1.123305	-0.994749	0.481484	0.399250	0.057189	-0.736572	0.328125	0.351562	0.287133	-0.644383	-0.419463	-0.571293
24198		10.860577	0.469557	-0.320857	0.523217	0.685148	-0.021485	-0.742432	0.323730	0.335449	0.294782	-0.637487	-0.420852	-0.574106
24199		10.293101	0.352300	-0.227852	0.359035	1.127151	-0.100433	-0.747559	0.333252	0.319336	0.302821	-0.627482	-0.419985	-0.581531
24200		10.309737	0.670318	0.063302	0.126518	1.409852	-0.136107	-0.763672	0.326904	0.281250	0.310165	-0.616003	-0.416524	-0.592322
24201		10.410718	1.296583	0.817971	-0.215549	1.506057	-0.150171	-0.770020	0.327393	0.250977	0.315191	-0.604801	-0.410117	-0.605536
24202		9.782325	1.161203	0.212510	-0.519282	1.238324	-0.151265	-0.786865	0.317627	0.243896	0.316476	-0.596616	-0.402363	-0.618058
24203		9.725509	1.010916	-1.457412	-0.226040	0.903721	-0.213590	-0.795410	0.316406	0.217773	0.317612	-0.589472	-0.398512	-0.626765
24204		8.946036	1.423159	-2.223212	-0.372442	0.771441	-0.339283	-0.797119	0.305420	0.205078	0.316021	-0.583207	-0.394917	-0.635643
24205		8.021282	2.251897	-1.615806	-0.684793	0.393852	-0.471466	-0.803711	0.301270	0.207520	0.309226	-0.580428	-0.391281	-0.643725
24206		8.464290	2.233400	-0.701193	-0.672518	0.028798	-0.577625	-0.805664	0.276367	0.199463	0.299821	-0.580003	-0.389860	-0.649395
24207		8.909191	2.455224	-0.670935	-0.836750	-0.088198	-0.659214	-0.806396	0.262939	0.205322	0.288011	-0.580558	-0.388121	-0.655259
24208		8.793990	1.740546	-2.301694	-0.616593	-0.244699	-0.785491	-0.814941	0.231934	0.225342	0.275989	-0.580892	-0.389615	-0.659238
24209		8.393634	0.524663	-1.770454	-0.149621	-0.443046	-0.779849	-0.824219	0.235107	0.225586	0.266304	-0.581211	-0.395532	-0.659416
24210		8.966628	-0.717081	-0.944063	0.372315	-0.563136	-0.522098	-0.812500	0.217285	0.238770	0.261949	-0.582019	-0.404175	-0.655194
24211		9.464291	-1.080063	-0.950778	0.099976	-0.417756	-0.324961	-0.818359	0.217773	0.242188	0.257970	-0.583448	-0.408713	-0.652682
24212		9.656777	-0.456866	-1.475717	0.264096	-0.332977	-0.228717	-0.812500	0.215576	0.251709	0.256388	-0.584138	-0.413546	-0.649637
24213		9.944921	0.906561	-0.951788	0.844562	-0.176496	-0.221139	-0.808838	0.205078	0.250488	0.259906	-0.581704	-0.422526	-0.644624
24214		11.214190	1.615791	-0.569849	1.184962	-0.053537	-0.123495	-0.820068	0.216064	0.251465	0.267286	-0.577542	-0.433098	-0.638302
24215		11.509588	2.310681	0.727720	1.126914	0.105615	0.048324	-0.819092	0.220215	0.236572	0.276348	-0.573184	-0.441272	-0.632749
24216		10.237651	1.834229	1.382449	0.630123	0.138359	0.179996	-0.812744	0.231445	0.245850	0.283055	-0.570890	-0.444401	-0.629661
24217		8.634222	2.257935	-0.493594	0.181673	0.061683	0.044606	-0.821289	0.233887	0.242676	0.285043	-0.570081	-0.445254	-0.628893
24218		7.578063	3.249840	-0.905327	0.421257	0.128332	-0.144442	-0.820312	0.237061	0.224609	0.287571	-0.566850	-0.449041	-0.627970
24219		9.597345	4.304765	1.566659	0.286238	-0.245495	0.002430	-0.813477	0.229736	0.227295	0.288252	-0.567805	-0.452050	-0.624627
24220		10.752654	4.202856	1.098454	-0.350071	-0.099423	0.188575	-0.814941	0.239502	0.234863	0.286707	-0.570897	-0.448282	-0.625236
24221		9.514568	1.274716	-0.032038	-0.603587	-0.156027	0.057568	-0.806641	0.230957	0.244141	0.281976	-0.574638	-0.443609	-0.627290
24222		9.683910	2.610975	0.046548	-0.502140	-0.109894	0.012824	-0.811768	0.232910	0.250488	0.277889	-0.577349	-0.439927	-0.629213
24223		9.623010	2.896235	-0.494407	-0.043371	-0.018065	-0.056180	-0.809082	0.229492	0.245361	0.277033	-0.577393	-0.439973	-0.629519
24224		9.518127	2.645156	-0.577146	0.196531	-0.068974	-0.018658	-0.803223	0.232666	0.251709	0.277955	-0.577174	-0.441825	-0.628014
24225		9.266470	2.328849	-1.330731	0.459814	-0.140624	-0.007484	-0.813232	0.228760	0.253906	0.280482	-0.576670	-0.445940	-0.624435
24226		9.029337	2.543639	-1.372644	0.387533	-0.202609	-0.060958	-0.800781	0.236328	0.255615	0.281635	-0.576590	-0.450041	-0.621038
24227		8.905917	2.349355	-1.148223	0.341296	-0.252803	-0.042315	-0.806152	0.240234	0.257568	0.282389	-0.577147	-0.453864	-0.617385
24228		9.265780	3.044823	-0.809904	0.340116	-0.261610	-0.018603	-0.805420	0.238770	0.260010	0.283223	-0.577920	-0.457474	-0.613605
24229		9.355443	3.032525	-0.804341	0.221464	-0.182696	-0.010577	-0.802979	0.239014	0.257812	0.283701	-0.578525	-0.459832	-0.611046
24230		9.731964	2.919157	-0.404821	-0.021505	-0.114577	0.009030	-0.802979	0.235352	0.260010	0.282979	-0.579556	-0.459950	-0.610314
24231		9.498854	2.504434	-0.351256	-0.047251	-0.051580	-0.002823	-0.806885	0.237793	0.267334	0.282336	-0.580113	-0.459743	-0.610240
24232		9.563037	2.537697	-0.789599	-0.133794	-0.080450	0.006281	-0.808105	0.241943	0.262695	0.280924	-0.581291	-0.458883	-0.610417
24233		9.704893	2.385473	-0.886694	-0.154103	-0.018450	0.032607	-0.802246	0.233154	0.271729	0.279927	-0.582226	-0.457406	-0.611093
24234		9.548457	1.787818	-0.962145	-0.194595	-0.002011	0.041699	-0.801025	0.241699	0.266113	0.278811	-0.583189	-0.455586	-0.612043
24235		9.621518	1.611159	-1.131430	-0.229360	0.019939	0.031670	-0.804932	0.238525	0.269775	0.277509	-0.584068	-0.453440	-0.613388
24236		9.294783	1.866635	-1.079576	-0.103121	-0.003131	0.037310	-0.805664	0.247559	0.271973	0.277006	-0.584724	-0.452287	-0.613841
24237		9.807099	1.808236	-1.284536	-0.113071	0.009666	0.062446	-0.809814	0.240234	0.272217	0.276677	-0.585514	-0.450778	-0.614347
24238		9.409106	1.787462	-0.786202	-0.057465	0.044257	0.048382	-0.798096	0.237793	0.266846	0.276811	-0.585739	-0.449683	-0.614874
24239		9.543870	2.585901	-0.657853	-0.010091	0.018042	0.069049	-0.800537	0.238281	0.270996	0.277398	-0.586048	-0.448978	-0.614830
24240		9.317987	2.361250	-0.555616	-0.068866	0.055762	0.050281	-0.807861	0.240967	0.266113	0.277593	-0.586181	-0.447825	-0.615456
24241		9.297861	2.482265	-0.557888	-0.082661	-0.057043	0.068322	-0.806885	0.248047	0.270020	0.277147	-0.587356	-0.446746	-0.615322
24242		9.431691	2.968276	-0.571914	-0.020700	-0.061441	0.122219	-0.803223	0.250000	0.271240	0.277526	-0.588694	-0.445726	-0.614611
24243		9.309294	2.516379	-0.335243	-0.100881	-0.049157	0.144578	-0.798096	0.243896	0.267822	0.277567	-0.590330	-0.443895	-0.614348
24244		9.779358	1.988280	-0.738816	-0.075669	0.032809	0.134710	-0.805908	0.245850	0.269043	0.278235	-0.591108	-0.442122	-0.614578
24245		9.395323	1.520274	-0.628257	0.065249	0.058382	0.122651	-0.807861	0.255859	0.270508	0.279926	-0.591161	-0.441371	-0.614297
24246		9.634468	2.366725	-1.065356	0.086124	0.070091	0.144497	-0.793213	0.254883	0.270264	0.281952	-0.591238	-0.440508	-0.613917
24247		9.133222	3.078595	-1.171950	0.174621	0.012668	0.157085	-0.796387	0.258545	0.280273	0.284525	-0.591433	-0.440576	-0.612491
24248		9.456192	3.289641	-1.356029	-0.008356	-0.072059	0.165408	-0.791504	0.263672	0.276611	0.285282	-0.593011	-0.439483	-0.611397
24249		9.553840	1.875505	-1.029046	-0.128992	-0.006841	0.175369	-0.797852	0.268311	0.272705	0.285607	-0.594559	-0.437158	-0.611409
24250		9.373612	0.904502	-0.884139	0.145631	-0.031692	0.158829	-0.793701	0.273926	0.277832	0.287656	-0.595247	-0.437053	-0.609852
24251		9.563946	1.548552	-1.264415	0.312849	-0.002686	0.130075	-0.794434	0.276855	0.268311	0.290880	-0.594970	-0.438340	-0.607665
24252		9.500088	2.276442	-1.045706	0.270274	0.018670	0.148117	-0.792725	0.288574	0.267334	0.294053	-0.594745	-0.439073	-0.605827
24253		10.017543	1.235575	-0.844769	0.186839	0.028346	0.228644	-0.793457	0.290527	0.262939	0.297222	-0.595249	-0.438464	-0.604224
24254		9.549572	1.950318	-0.554910	0.515489	0.081271	0.238819	-0.798096	0.289795	0.264404	0.303202	-0.594139	-0.440066	-0.601173
24255		9.640318	3.328330	-0.910693	0.433812	0.130368	0.195963	-0.793213	0.305420	0.258545	0.308506	-0.592669	-0.441239	-0.599062
24256		9.704601	2.850359	-1.246786	0.143785	0.258391	0.100633	-0.794189	0.310791	0.250000	0.311607	-0.590890	-0.440361	-0.599860
24257		10.623413	0.019834	-0.814871	0.241355	0.396897	0.130666	-0.794434	0.306641	0.238525	0.316386	-0.587865	-0.439402	-0.601033
24258		10.026858	-0.160555	-0.395804	0.979949	0.469752	0.204561	-0.799561	0.322510	0.220703	0.327595	-0.581615	-0.443226	-0.598295
24259		9.699489	3.340262	-0.987623	1.591172	0.386094	0.193374	-0.797119	0.340088	0.194336	0.342508	-0.573338	-0.451784	-0.591493
24260		10.255821	4.043434	-2.854121	1.051383	0.382835	0.122492	-0.800293	0.342529	0.185059	0.352884	-0.566863	-0.456660	-0.587879
24261		10.228390	1.790265	-3.539675	0.070320	0.116046	0.075987	-0.798584	0.349121	0.187744	0.354418	-0.566324	-0.455872	-0.588086
24262		9.613333	0.179122	-0.790741	-0.354816	-0.356856	0.131338	-0.806152	0.351318	0.190430	0.350580	-0.571528	-0.453591	-0.587115
24263		10.926150	-1.771356	-0.418679	0.307989	-0.479437	0.161898	-0.795166	0.350586	0.195557	0.350896	-0.574924	-0.456338	-0.581455
24264		10.360593	-2.063640	-0.076599	0.410198	-0.079525	0.089327	-0.797607	0.348633	0.199951	0.353818	-0.574421	-0.458712	-0.578305
24265		9.069903	0.471203	1.869958	0.366780	0.261822	-0.136300	-0.796631	0.351318	0.192627	0.356775	-0.570279	-0.460965	-0.578795
24266		7.866440	3.326007	2.106948	0.680635	0.313573	-0.280353	-0.805664	0.358398	0.177490	0.361160	-0.563557	-0.466189	-0.578476
24267		6.403437	5.417131	0.813020	0.232013	-0.009167	-0.221494	-0.805664	0.347900	0.172607	0.360697	-0.561709	-0.468911	-0.578363
24268		6.220179	3.299734	-2.018280	-0.568607	-0.516614	-0.142657	-0.798584	0.331543	0.191895	0.352324	-0.567428	-0.467716	-0.578908
24269		8.232407	-0.307764	-1.052808	-0.888838	-0.596711	-0.132047	-0.800049	0.331299	0.219971	0.341498	-0.574874	-0.464757	-0.580430
24270		8.653285	-2.125641	-0.639391	-0.586322	-0.529832	-0.239571	-0.798828	0.329590	0.229980	0.332187	-0.580041	-0.464190	-0.581147
24271		9.229600	-0.903126	-0.583992	0.082113	-0.301105	-0.350314	-0.800537	0.322266	0.240967	0.328116	-0.580204	-0.468115	-0.580148
24272		12.408089	-1.119179	-1.224906	0.519708	0.039731	-0.356035	-0.809814	0.319580	0.221680	0.329120	-0.576075	-0.473827	-0.579056
24273		13.357840	0.532029	0.176243	0.567633	0.179171	-0.177587	-0.802490	0.316895	0.212891	0.332552	-0.571767	-0.477924	-0.577997
24274		12.589759	0.707452	-0.211965	0.287103	0.135449	0.186055	-0.810303	0.329834	0.211426	0.336481	-0.570982	-0.477704	-0.576680
24275		9.319935	3.079121	-2.349107	-0.010652	0.097067	0.004982	-0.809570	0.322021	0.222412	0.336434	-0.570914	-0.476446	-0.577814
24276		8.273394	2.061415	-3.801613	-0.177465	-0.039652	-0.296693	-0.805664	0.317627	0.211914	0.332319	-0.570601	-0.476943	-0.580089
24277		9.098445	0.164826	-2.077531	0.145280	-0.022293	-0.169075	-0.804688	0.316406	0.219238	0.331612	-0.569526	-0.478805	-0.580016
24278		9.126593	-0.351262	-0.631321	0.287434	-0.078109	-0.072814	-0.811523	0.308350	0.211426	0.332198	-0.568921	-0.481180	-0.578307
24279		9.851179	1.049215	-0.830750	0.298820	-0.112912	-0.003512	-0.799072	0.312256	0.213379	0.333394	-0.568678	-0.483561	-0.575866
24280		9.466788	2.781325	-0.841048	0.197188	0.112976	-0.054345	-0.811768	0.312988	0.216064	0.334906	-0.566921	-0.484639	-0.575816
24281		9.353888	2.575748	-0.179041	0.233888	0.068998	-0.096973	-0.814453	0.313965	0.213379	0.335904	-0.565211	-0.486306	-0.575510
24282		10.272196	2.549172	-0.869700	0.188818	0.074635	-0.065717	-0.811523	0.317871	0.201904	0.336764	-0.563905	-0.487318	-0.575432
24283		10.016634	2.722676	-1.030462	-0.091700	0.121029	-0.014035	-0.810303	0.312988	0.203857	0.336263	-0.563810	-0.485651	-0.577225
24284		9.402371	2.700661	-1.018291	-0.110713	0.152363	-0.018883	-0.799805	0.313477	0.202393	0.335913	-0.563406	-0.483923	-0.579271
24285		9.087828	2.461457	-0.982187	0.085295	0.105411	-0.106744	-0.809326	0.305420	0.200684	0.336096	-0.561948	-0.484477	-0.580117
24286		9.443088	2.168718	-1.100746	0.112771	0.046355	-0.081235	-0.803955	0.307129	0.195312	0.336435	-0.560799	-0.485498	-0.580179
24287		9.647747	2.186178	-1.109220	0.136084	0.068365	0.007946	-0.814209	0.309814	0.188721	0.337723	-0.559947	-0.485935	-0.579888
24288		9.497156	2.133580	-0.940384	0.095941	0.055548	-0.007942	-0.816162	0.309814	0.190186	0.338396	-0.559363	-0.486101	-0.579919
24289		9.291962	2.332021	-1.020016	0.175849	0.051625	0.002856	-0.815674	0.311035	0.194824	0.339649	-0.558557	-0.486774	-0.579399
24290		9.234115	2.549042	-0.832930	0.168664	0.037654	0.046579	-0.813232	0.311768	0.189453	0.341021	-0.558203	-0.487108	-0.578654
24291		9.442285	2.775261	-0.894176	0.030500	-0.010963	0.062659	-0.814209	0.313965	0.190918	0.341348	-0.558802	-0.486625	-0.578290
24292		9.231376	2.747007	-1.422446	-0.064972	-0.036184	0.059308	-0.813721	0.317871	0.193848	0.340773	-0.560015	-0.485530	-0.578375
24293		9.359256	2.460504	-1.597885	-0.114190	-0.071014	0.094827	-0.813232	0.316162	0.190186	0.339765	-0.562024	-0.483832	-0.578442
24294		9.644832	2.296768	-1.765092	-0.133890	-0.062742	0.111928	-0.804932	0.317871	0.190430	0.338971	-0.563989	-0.482016	-0.578511
24295		9.446876	1.416826	-1.449642	-0.166778	0.004167	0.067524	-0.812988	0.317139	0.189697	0.338132	-0.565261	-0.480075	-0.579374
24296		9.408635	1.500403	-1.011334	-0.047167	0.036793	0.047727	-0.815918	0.323242	0.187500	0.338173	-0.565662	-0.479009	-0.579842
24297		9.192710	2.093802	-0.646525	0.068336	0.021585	0.074642	-0.811523	0.321045	0.207031	0.338906	-0.566044	-0.478392	-0.579549
24298		9.745391	2.469923	-0.396609	-0.005692	0.031307	0.157686	-0.815918	0.329834	0.192627	0.339765	-0.567170	-0.476678	-0.579358
24299		9.761505	2.990889	-0.479599	-0.066761	0.056999	0.161096	-0.815918	0.322021	0.193115	0.340223	-0.568506	-0.474174	-0.579834
24300		9.523867	2.154824	-0.800204	-0.169295	0.103067	0.166930	-0.813477	0.330322	0.185547	0.340713	-0.569566	-0.471215	-0.580917
24301		9.601226	2.089503	-0.750143	-0.099755	0.119652	0.197910	-0.806396	0.331299	0.192139	0.341873	-0.570521	-0.468257	-0.581690
24302		9.861911	1.743884	-0.974780	-0.043496	0.130427	0.222524	-0.805908	0.342773	0.189941	0.343757	-0.571229	-0.465593	-0.582024
24303		9.733443	1.592013	-1.373198	0.070645	0.037600	0.221045	-0.811768	0.345459	0.187744	0.345588	-0.572377	-0.463801	-0.581241
24304		10.318214	1.684570	-1.565870	0.166780	-0.035991	0.282862	-0.801514	0.357910	0.181885	0.348156	-0.573949	-0.462640	-0.579080
24305		10.946119	1.719147	-1.236163	0.171292	0.017130	0.289372	-0.800781	0.354736	0.173828	0.350990	-0.575266	-0.461031	-0.577343
24306		11.787778	0.673563	-0.561447	0.074679	0.106996	0.280363	-0.794922	0.361816	0.183105	0.354095	-0.575850	-0.458971	-0.576505
24307		12.705640	0.746488	-0.265944	0.130661	0.125125	0.304332	-0.799072	0.368652	0.171875	0.357709	-0.576327	-0.456895	-0.575447
24308		13.565713	1.071815	0.635825	0.083791	0.197797	0.329028	-0.793213	0.377686	0.164795	0.361607	-0.576575	-0.454003	-0.575051
24309		12.128616	0.546434	1.318319	0.067726	0.363541	0.370011	-0.801270	0.385254	0.171143	0.366584	-0.575948	-0.449872	-0.575773
24310		11.011563	0.818507	0.291210	0.009680	0.406680	0.351464	-0.793457	0.389893	0.152832	0.370985	-0.575322	-0.445046	-0.577328
24311		11.081274	1.529146	0.028362	-0.086077	0.488391	0.283666	-0.797119	0.394775	0.144531	0.374934	-0.573917	-0.439886	-0.580124
24312		9.975919	1.794950	0.387803	-0.266607	0.500898	0.182525	-0.792725	0.390625	0.135498	0.376886	-0.572679	-0.434065	-0.584451
24313		9.762198	1.550816	-0.114120	-0.235038	0.404940	0.147457	-0.798584	0.398193	0.132568	0.378645	-0.571488	-0.429560	-0.587799
24314		9.787966	0.527882	-0.477462	-0.333822	0.404926	0.125299	-0.798096	0.408936	0.125244	0.379189	-0.570867	-0.424130	-0.591980
24315		9.288921	-0.272937	-0.393499	-0.189844	0.374606	0.071557	-0.794922	0.398438	0.123535	0.379820	-0.569755	-0.419856	-0.595682
24316		9.014942	-0.259040	-0.356659	-0.079276	0.438755	0.042622	-0.796875	0.401855	0.114014	0.381838	-0.567106	-0.416844	-0.599025
24317		8.794768	0.639778	-0.749957	0.058937	0.423741	0.022987	-0.795410	0.403320	0.104248	0.384491	-0.563868	-0.414945	-0.601697
24318		8.781959	2.128768	-0.893291	0.098938	0.261122	-0.020238	-0.803711	0.398926	0.099609	0.386249	-0.561430	-0.414414	-0.603216
24319		8.921185	1.148794	-0.612360	-0.067995	0.039284	0.039789	-0.797852	0.403320	0.094482	0.386249	-0.561682	-0.413439	-0.603650
24320		9.502276	0.079954	-0.071097	-0.154283	0.076664	0.002732	-0.802246	0.402344	0.094238	0.385507	-0.561921	-0.411796	-0.605024
24321		9.706652	-0.538098	-0.350012	-0.117986	0.168220	-0.066544	-0.805908	0.397705	0.092773	0.384969	-0.560921	-0.410494	-0.607175
24322		9.038042	-0.561788	0.002355	0.117077	0.056835	-0.062180	-0.801514	0.393066	0.083496	0.385636	-0.559582	-0.411600	-0.607238
24323		9.117801	0.330233	-0.152744	0.507728	-0.067118	0.006156	-0.807617	0.399414	0.087646	0.389167	-0.557460	-0.416019	-0.603917
24324		9.027696	0.948643	-0.064895	0.472768	-0.060617	0.003703	-0.798828	0.400146	0.088623	0.392111	-0.555664	-0.419817	-0.601032
24325		8.989676	1.166371	0.359700	0.187142	-0.076086	-0.081417	-0.801514	0.393311	0.083008	0.392376	-0.554920	-0.422136	-0.599921
24326		9.424405	0.875302	0.358023	-0.032376	-0.168569	-0.100776	-0.806641	0.394287	0.085693	0.390705	-0.555668	-0.423635	-0.599263
24327		9.202283	-0.029929	-0.055535	-0.080018	-0.251127	-0.033629	-0.802002	0.399658	0.099121	0.388631	-0.557712	-0.424576	-0.598046
24328		9.139868	-0.718268	-0.254589	0.037259	-0.224888	-0.024362	-0.810059	0.393799	0.100586	0.387359	-0.559213	-0.425945	-0.596494
24329		9.055131	-0.380131	-0.192591	0.107717	-0.188587	-0.129891	-0.811035	0.387451	0.091553	0.386120	-0.559417	-0.428578	-0.595219
24330		8.575420	0.378058	-0.095363	0.045382	-0.229652	-0.223129	-0.804688	0.373047	0.106934	0.383723	-0.559567	-0.431785	-0.594309
24331		8.126052	1.012107	0.203996	0.066752	-0.225368	-0.146394	-0.816162	0.386475	0.109131	0.382218	-0.559878	-0.434762	-0.592813
24332		7.543532	0.715032	-0.373335	-0.018727	-0.327401	-0.044917	-0.814697	0.388184	0.115234	0.379887	-0.562221	-0.436408	-0.590883
24333		8.133752	0.892909	0.302576	-0.132506	-0.262679	-0.055625	-0.816406	0.380615	0.120117	0.377018	-0.564571	-0.436949	-0.590079
24334		8.468852	1.607058	0.181942	-0.307210	-0.179588	-0.096978	-0.806152	0.376953	0.131348	0.373171	-0.566807	-0.436219	-0.590920
24335		8.494382	1.631149	-0.477162	-0.532704	-0.200181	0.018119	-0.808594	0.370605	0.134033	0.368470	-0.570851	-0.433088	-0.592278
24336		9.217856	1.017008	-1.213048	-0.454149	-0.211744	0.033604	-0.804688	0.373535	0.140869	0.364416	-0.574634	-0.430526	-0.592996
24337		9.767041	0.390217	-0.618608	-0.434027	-0.173262	0.025322	-0.813477	0.375488	0.156250	0.360601	-0.578008	-0.427929	-0.593928
24338		10.387827	0.381319	-0.643349	-0.367053	-0.146262	-0.008410	-0.805420	0.367432	0.156738	0.357090	-0.580729	-0.425880	-0.594868
24339		9.833780	-0.224272	-0.356397	-0.276584	-0.129312	-0.036226	-0.803711	0.368652	0.165039	0.354180	-0.582710	-0.424691	-0.595519
24340		9.793324	-0.187657	-0.330478	0.064299	-0.060667	-0.038547	-0.808594	0.374756	0.168945	0.354070	-0.582678	-0.425713	-0.594886
24341		10.037589	0.001868	-0.379659	0.341717	0.009537	-0.069254	-0.804932	0.364258	0.159180	0.356081	-0.580759	-0.428657	-0.593446
24342		10.059442	0.353417	-0.359221	0.435929	0.099373	-0.082776	-0.807129	0.365479	0.149170	0.359210	-0.577618	-0.432060	-0.592157
24343		9.712107	1.481660	-0.294927	0.499394	0.100420	-0.070607	-0.798584	0.363037	0.145020	0.362872	-0.574233	-0.435814	-0.590462
24344		9.709624	1.793730	-0.639518	0.258610	0.065080	-0.037992	-0.808105	0.359375	0.145752	0.364855	-0.572359	-0.437712	-0.589656
24345		9.652044	0.654098	-0.178530	0.124515	0.101533	-0.015790	-0.813477	0.375000	0.146729	0.366229	-0.570948	-0.438296	-0.589738
24346		9.418747	0.814396	-0.261041	0.157338	0.070899	-0.004238	-0.806885	0.365723	0.139648	0.367708	-0.569713	-0.439115	-0.589403
24347		9.292814	0.909686	-0.627428	0.124730	0.103793	0.031664	-0.809326	0.373779	0.141113	0.369429	-0.568555	-0.439323	-0.589291
24348		9.276121	0.573521	-0.394689	0.138438	0.118103	0.027503	-0.813965	0.369629	0.131836	0.371275	-0.567218	-0.439568	-0.589235
24349		9.032883	0.529210	-0.140605	0.159185	0.134581	0.109204	-0.810303	0.378662	0.132568	0.373969	-0.566097	-0.439327	-0.588790
24350		8.468705	0.534534	-0.297328	0.149473	0.158802	0.151362	-0.811523	0.378174	0.124756	0.377023	-0.565081	-0.438579	-0.588376
24351		8.840303	0.557907	-0.473522	0.124794	0.145183	0.088567	-0.800537	0.386963	0.118652	0.379371	-0.563924	-0.438166	-0.588285
24352		9.179643	-0.078045	-0.399114	0.162345	0.107648	0.036273	-0.810303	0.376465	0.118652	0.381390	-0.562579	-0.438558	-0.587974
24353		8.675753	0.009849	-0.008858	0.188590	0.058920	0.044201	-0.809082	0.381348	0.114502	0.383390	-0.561497	-0.439345	-0.587120
24354		8.620173	0.670774	0.369404	0.106746	0.055222	0.043083	-0.809814	0.379150	0.110107	0.384781	-0.560829	-0.439545	-0.586698
24355		8.344255	1.131622	0.389839	-0.109882	-0.002445	0.024972	-0.805420	0.393555	0.111572	0.384206	-0.561521	-0.438566	-0.587145
24356		8.323849	0.622496	0.097118	-0.151176	-0.041658	0.088328	-0.802734	0.391846	0.123047	0.383580	-0.563059	-0.436993	-0.587254
24357		8.847427	0.704823	0.224434	-0.087805	-0.054907	0.110007	-0.798340	0.398193	0.118652	0.383486	-0.564506	-0.435798	-0.586815
24358		9.856003	0.597117	-0.024134	-0.085640	-0.022266	0.121932	-0.804443	0.393066	0.128174	0.383671	-0.565767	-0.434369	-0.586539
24359		9.813208	0.285379	0.088895	-0.098338	0.009268	0.107840	-0.800293	0.399902	0.120605	0.383833	-0.566776	-0.432808	-0.586613
24360		9.094705	0.339434	-0.573840	-0.017785	0.008631	0.120008	-0.795654	0.399170	0.123047	0.384651	-0.567468	-0.431745	-0.586191
24361		8.942089	1.075239	-0.499895	-0.036304	-0.021612	0.126491	-0.799072	0.409424	0.124023	0.385224	-0.568501	-0.430650	-0.585618
24362		10.465679	0.824152	-0.535476	-0.058954	-0.061774	0.100875	-0.796631	0.407471	0.124512	0.385226	-0.569804	-0.429752	-0.585010
24363		10.458526	-0.055706	-0.373581	-0.092222	-0.015513	0.085399	-0.798340	0.405518	0.122314	0.385129	-0.570840	-0.428506	-0.584978
24364		8.699409	0.272888	-0.682132	-0.139539	0.022504	0.086139	-0.798584	0.408447	0.129883	0.384904	-0.571824	-0.426735	-0.585460
24365		9.944118	1.249100	-0.609264	-0.043110	0.005990	0.063525	-0.790771	0.414062	0.135254	0.385112	-0.572345	-0.425906	-0.585417
24366		12.611606	1.143526	-0.182954	0.095537	-0.019482	0.018834	-0.800781	0.413086	0.130859	0.385850	-0.572151	-0.426522	-0.584673
24367		12.428455	-0.231841	-0.076865	0.259860	0.104712	-0.013664	-0.795654	0.415039	0.125488	0.388182	-0.570076	-0.427980	-0.584090
24368		10.150895	-0.503505	-0.009601	0.435089	0.237036	-0.051960	-0.800293	0.412598	0.108398	0.392184	-0.565966	-0.430331	-0.583686
24369		8.329727	2.037963	-0.186329	0.213426	0.038307	-0.063535	-0.790771	0.415527	0.112305	0.393456	-0.564313	-0.432120	-0.583108
24370		9.692455	3.133985	-0.366601	-0.084757	-0.151485	-0.035979	-0.792725	0.419189	0.112549	0.391800	-0.565660	-0.432458	-0.582668
24371		11.206196	0.673977	0.346929	-0.117139	-0.102929	0.001696	-0.794922	0.414062	0.112793	0.390449	-0.567014	-0.432050	-0.582561
24372		10.157694	-1.349900	0.557773	0.130997	0.005877	-0.070107	-0.805908	0.419434	0.116699	0.390919	-0.565970	-0.433437	-0.582230
24373		9.197919	-0.079909	0.079412	0.395092	0.030158	-0.084807	-0.794189	0.409180	0.111328	0.393272	-0.563378	-0.436715	-0.580709
24374		9.038126	2.345956	-0.630526	0.140287	-0.092702	-0.081876	-0.796143	0.416992	0.107910	0.393182	-0.562931	-0.438731	-0.579683
24375		10.077527	1.219352	-0.620324	-0.097721	-0.155636	-0.118009	-0.794434	0.409180	0.119385	0.390806	-0.563912	-0.439569	-0.579701
24376		10.010937	-0.913458	0.229104	-0.015215	-0.073942	-0.161806	-0.796143	0.409912	0.119629	0.389142	-0.563652	-0.440921	-0.580046
24377		8.947424	-0.052788	0.493728	0.206487	-0.017901	-0.172913	-0.804443	0.401611	0.111572	0.389265	-0.561845	-0.443673	-0.579618
24378		8.882405	1.913414	-0.258752	0.157750	-0.056319	-0.140892	-0.803955	0.405273	0.109619	0.389059	-0.560719	-0.446048	-0.579023
24379		9.089037	1.528107	-0.441007	0.020135	-0.111310	-0.144578	-0.807129	0.405029	0.120605	0.387554	-0.560641	-0.447703	-0.578831
24380		9.222341	0.010238	-0.060707	0.089567	-0.072134	-0.132259	-0.803955	0.394531	0.114746	0.386840	-0.560012	-0.449578	-0.578464
24381		9.263847	0.584291	-0.149887	0.250624	-0.004360	-0.169006	-0.810303	0.397949	0.121338	0.387368	-0.557897	-0.452559	-0.577831
24382		10.671306	1.558282	-0.513230	0.131290	-0.063075	-0.132082	-0.803711	0.396240	0.117188	0.386992	-0.556991	-0.454688	-0.577283
24383		13.232480	-0.098419	1.549255	-0.228635	0.190786	-0.014107	-0.807617	0.402100	0.118408	0.386404	-0.556660	-0.452162	-0.579975
24384		13.889693	0.222594	1.731755	-0.199742	0.306059	-0.025935	-0.809814	0.388184	0.104736	0.386574	-0.555283	-0.449343	-0.583363
24385		11.864972	1.348224	0.004812	0.033508	0.362106	-0.023030	-0.805908	0.387939	0.098877	0.388687	-0.552366	-0.447951	-0.585794
24386		8.618689	2.520289	-1.785299	-0.047511	0.129255	-0.097621	-0.814209	0.397217	0.101562	0.388386	-0.551124	-0.447601	-0.587428
24387		9.056690	2.946722	-2.020025	-0.451834	-0.137367	-0.099035	-0.804443	0.388428	0.103516	0.383791	-0.553789	-0.445564	-0.589487
24388		10.236829	0.418782	-1.349922	-0.456821	-0.269951	-0.074064	-0.808105	0.380859	0.113037	0.378594	-0.557567	-0.443947	-0.590505
24389		9.788644	-0.667781	-0.588038	-0.205587	-0.221995	-0.111636	-0.806396	0.386230	0.118652	0.375126	-0.559573	-0.444224	-0.590613
24390		9.153853	0.275500	-0.131614	0.057234	-0.109001	-0.099143	-0.818115	0.377197	0.123535	0.374214	-0.559580	-0.445800	-0.589996
24391		9.259978	1.526010	0.937675	-0.035249	-0.053407	-0.036117	-0.814941	0.379150	0.129883	0.373426	-0.559954	-0.446020	-0.589975
24392		9.423351	1.706146	0.729495	-0.120413	-0.075803	-0.027863	-0.809814	0.382324	0.130859	0.371979	-0.560939	-0.445644	-0.590238
24393		9.591616	1.598141	0.829460	-0.217565	-0.020008	-0.028174	-0.808838	0.375977	0.133789	0.370157	-0.561963	-0.444276	-0.591439
24394		9.845498	1.857275	0.422854	-0.240700	0.004329	-0.021866	-0.808838	0.383057	0.133789	0.368349	-0.562942	-0.442586	-0.592903
24395		9.948728	1.911640	0.031206	-0.162636	0.014173	0.012179	-0.814941	0.372559	0.137695	0.367396	-0.563678	-0.441166	-0.593852
24396		9.803122	1.781548	-0.523255	-0.151759	-0.016921	0.006267	-0.811523	0.383057	0.145264	0.366298	-0.564552	-0.440039	-0.594535
24397		9.501994	1.749226	-0.916079	-0.158347	-0.068211	-0.003309	-0.809326	0.375977	0.140137	0.364804	-0.565790	-0.439138	-0.594943
24398		9.647493	1.400965	-0.617345	-0.092887	-0.108527	0.048831	-0.801758	0.382324	0.144287	0.363936	-0.567309	-0.438553	-0.594460
24399		9.510019	1.631464	-0.435560	-0.016784	-0.123273	0.073144	-0.805664	0.375977	0.144775	0.363709	-0.568727	-0.438410	-0.593348
24400		9.706142	1.441672	-0.459236	0.064926	-0.100072	0.102981	-0.800049	0.381836	0.148682	0.364406	-0.569756	-0.438578	-0.591807
24401		9.939087	0.967306	-0.662891	0.189929	-0.042631	0.139076	-0.802979	0.386230	0.145020	0.366575	-0.569988	-0.439139	-0.589825
24402		9.772822	1.403440	-0.745672	0.321660	-0.033589	0.152835	-0.803467	0.381348	0.144531	0.369828	-0.569615	-0.440530	-0.587111
24403		9.942467	1.427606	-0.936064	0.408490	-0.013924	0.160818	-0.801514	0.396729	0.144287	0.373854	-0.568721	-0.442423	-0.583997
24404		10.096834	1.915059	-0.933153	0.387447	-0.039677	0.145398	-0.809814	0.395996	0.146240	0.377470	-0.568016	-0.444359	-0.580878
24405		10.436757	1.969886	-0.640501	0.304590	-0.121916	0.242479	-0.807861	0.406982	0.134521	0.380733	-0.568818	-0.445404	-0.577152
24406		10.257539	1.057777	-0.583141	0.221452	-0.167340	0.261933	-0.802490	0.408936	0.141357	0.383281	-0.570440	-0.445906	-0.573465
24407		10.648227	0.765810	-0.133938	0.113418	-0.184236	0.236810	-0.793457	0.415283	0.134277	0.384777	-0.572547	-0.445894	-0.570364
24408		11.152168	0.481228	0.170456	-0.018495	-0.197262	0.219202	-0.790771	0.418457	0.144043	0.385125	-0.575277	-0.445112	-0.567988
24409		11.250568	0.048345	0.106840	-0.054056	-0.175944	0.176578	-0.794434	0.414795	0.151611	0.385028	-0.577783	-0.444277	-0.566161
24410		11.483951	0.301596	0.014501	-0.031646	-0.174763	0.148376	-0.786865	0.424072	0.149658	0.384891	-0.580007	-0.443813	-0.564341
24411		11.256734	1.000135	-0.457761	-0.062123	-0.127327	0.026144	-0.788574	0.423340	0.157471	0.383935	-0.581366	-0.443767	-0.563629
24412		11.333115	0.468162	-0.825669	-0.130205	-0.181913	0.056473	-0.791260	0.426270	0.162842	0.382393	-0.583600	-0.443286	-0.562747
24413		11.711155	-0.035090	-0.968484	-0.278130	-0.054193	0.032684	-0.782959	0.430176	0.166992	0.380307	-0.585505	-0.441321	-0.563725
24414		11.309261	-0.333561	-0.699690	-0.136203	-0.060551	-0.008775	-0.787598	0.417480	0.161865	0.378937	-0.586550	-0.440671	-0.564070
24415		11.221406	0.296951	-0.721549	-0.164836	-0.052976	-0.022990	-0.784668	0.420654	0.170898	0.377284	-0.587590	-0.439913	-0.564686
24416		10.871095	0.546636	-0.380010	-0.213661	-0.003701	-0.002650	-0.783203	0.423828	0.166992	0.375691	-0.588624	-0.438413	-0.565837
24417		10.647190	0.251867	-0.620275	-0.310837	0.027236	0.017030	-0.785400	0.416504	0.173828	0.373690	-0.589998	-0.435922	-0.567653
24418		10.353967	0.017759	-0.563848	-0.328929	0.042013	0.032063	-0.785645	0.417725	0.179932	0.371732	-0.591422	-0.433128	-0.569592
24419		9.918775	0.381512	-0.669563	-0.330379	0.044748	0.049951	-0.784668	0.417236	0.179688	0.369900	-0.592921	-0.430166	-0.571468
24420		9.585576	0.378507	-0.725689	-0.412417	0.046861	0.056591	-0.792969	0.412109	0.173584	0.367510	-0.594806	-0.426549	-0.573757
24421		9.233595	0.352429	-0.825856	-0.461190	0.076505	0.065820	-0.786377	0.411133	0.189697	0.364961	-0.596729	-0.422383	-0.576464
24422		8.959316	-0.113555	-1.031840	-0.441857	0.098035	0.075089	-0.788330	0.404541	0.179688	0.362730	-0.598440	-0.418165	-0.579167
24423		8.737438	-0.371339	-1.000779	-0.322953	0.115015	0.101793	-0.778320	0.408936	0.187744	0.361653	-0.599607	-0.414538	-0.581237
24424		8.657654	-0.321586	-0.661072	-0.147964	0.202574	0.084222	-0.789062	0.412598	0.184570	0.362218	-0.599252	-0.411893	-0.583129
24425		8.359339	0.409980	-0.294017	-0.059801	0.188704	0.089804	-0.784180	0.402588	0.188477	0.363406	-0.598620	-0.409913	-0.584432
24426		8.152425	1.090600	-0.433343	-0.120997	0.154299	0.149996	-0.793701	0.408447	0.179443	0.364389	-0.598821	-0.407199	-0.585511
24427		8.172941	0.951178	-0.490542	-0.252947	0.126165	0.185869	-0.794922	0.411133	0.177002	0.364495	-0.600001	-0.403380	-0.586879
24428		8.510575	0.187655	-0.569998	-0.363570	0.091908	0.190472	-0.786133	0.415283	0.183838	0.363624	-0.601944	-0.398863	-0.588515
24429		8.457308	-0.103671	-0.714769	-0.355810	0.088412	0.156495	-0.780273	0.420410	0.180176	0.362542	-0.603696	-0.394650	-0.590226
24430		8.275388	0.100227	-0.929788	-0.268047	0.059059	0.141940	-0.779053	0.419189	0.177734	0.361871	-0.605182	-0.391313	-0.591336
24431		8.472141	0.036493	-0.840854	-0.237434	0.094699	0.145957	-0.784180	0.419434	0.190430	0.361630	-0.606274	-0.388013	-0.592538
24432		8.565384	-0.072380	-0.481290	-0.105754	0.126394	0.115279	-0.779541	0.417480	0.184082	0.362303	-0.606387	-0.385770	-0.593476
24433		8.426502	0.379585	-0.406508	0.032469	0.110450	0.092460	-0.774658	0.417969	0.171387	0.363777	-0.605876	-0.384800	-0.593725
24434		8.566464	0.467939	-0.742155	0.064664	0.096114	0.101002	-0.770508	0.418457	0.179688	0.365493	-0.605360	-0.384074	-0.593668
24435		8.853441	0.185920	-0.654113	0.019401	0.067891	0.094806	-0.768066	0.439209	0.176025	0.366684	-0.605233	-0.383177	-0.593642
24436		9.242631	0.183928	-0.771638	0.040860	0.034747	0.054521	-0.775146	0.432373	0.177734	0.367595	-0.605062	-0.382879	-0.593445
24437		9.630892	0.078457	-0.696554	0.106899	0.004605	0.029812	-0.777100	0.433594	0.180420	0.368666	-0.604692	-0.383407	-0.592817
24438		9.866090	-0.139392	-0.658968	0.168024	0.003504	0.021441	-0.778564	0.432617	0.166016	0.370129	-0.604007	-0.384454	-0.591925
24439		9.598538	-0.177760	-0.247881	0.286643	-0.006612	0.002902	-0.779785	0.431152	0.167969	0.372300	-0.602748	-0.386574	-0.590464
24440		9.417683	0.153427	-0.082489	0.381293	-0.043036	-0.004710	-0.772217	0.438232	0.173584	0.374941	-0.601273	-0.389610	-0.588298
24441		9.709004	0.215037	-0.172367	0.288413	-0.042054	-0.016697	-0.769531	0.432617	0.161621	0.376801	-0.600161	-0.392027	-0.586637
24442		9.734670	-0.155358	-0.318027	0.271736	-0.030108	-0.044243	-0.775146	0.432129	0.149902	0.378385	-0.598892	-0.394478	-0.585269
24443		9.572302	0.080058	-0.479483	0.303095	-0.060812	-0.057357	-0.772217	0.434814	0.152832	0.379952	-0.597624	-0.397404	-0.583569
24444		9.814247	0.591401	-0.352211	0.225630	-0.105146	-0.036254	-0.771973	0.430664	0.157959	0.380871	-0.597146	-0.399806	-0.581816
24445		9.858692	0.576465	-0.285624	0.055165	-0.125028	-0.035744	-0.777100	0.428467	0.163818	0.380414	-0.597626	-0.401055	-0.580761
24446		9.809932	0.094578	-0.335810	-0.051675	-0.112856	-0.058850	-0.773193	0.431885	0.163818	0.379046	-0.598409	-0.401643	-0.580442
24447		9.587745	-0.016403	-0.409369	-0.013831	-0.120695	-0.064776	-0.776367	0.425537	0.163574	0.377886	-0.599038	-0.402582	-0.579900
24448		9.709998	-0.059503	-0.567313	0.035298	-0.111363	-0.069373	-0.778809	0.429199	0.163330	0.377101	-0.599340	-0.403872	-0.579201
24449		9.650538	0.261504	-0.423369	0.000964	-0.094308	-0.069628	-0.781738	0.436279	0.170166	0.376145	-0.599678	-0.404833	-0.578802
24450		9.617028	0.288917	-0.543333	0.024926	-0.097377	-0.073450	-0.779053	0.434082	0.176514	0.375330	-0.599906	-0.406002	-0.578275
24451		9.583344	0.278839	-0.584471	0.017300	-0.088388	-0.054938	-0.782715	0.422852	0.180420	0.374635	-0.600200	-0.406931	-0.577768
24452		9.830871	0.200472	-0.635802	0.005515	-0.026144	-0.046033	-0.774902	0.424316	0.179443	0.374223	-0.600145	-0.407422	-0.577747
24453		9.651788	-0.132077	-0.772675	0.040787	-0.013868	-0.060129	-0.776367	0.421387	0.173584	0.374042	-0.599763	-0.408213	-0.577702
24454		9.490285	0.075688	-0.808890	0.099571	-0.008950	-0.071316	-0.780518	0.425537	0.170166	0.374246	-0.599011	-0.409494	-0.577444
24455		9.611720	0.295881	-0.659348	0.095805	-0.009501	-0.067935	-0.779785	0.421143	0.175049	0.374445	-0.598295	-0.410725	-0.577183
24456		9.359783	0.345786	-0.514801	0.022340	0.009734	-0.084360	-0.785645	0.416016	0.182129	0.374072	-0.597701	-0.411455	-0.577520
24457		9.093772	0.584304	-0.575402	0.011983	-0.009135	-0.086399	-0.782715	0.421631	0.175293	0.373502	-0.597283	-0.412212	-0.577781
24458		8.984966	0.351558	-0.751769	-0.085433	-0.038450	-0.090421	-0.781494	0.416260	0.176758	0.372033	-0.597507	-0.412433	-0.578339
24459		8.772593	-0.328085	-0.699233	-0.172057	-0.002855	-0.101129	-0.782471	0.415771	0.180664	0.370021	-0.597818	-0.411941	-0.579657
24460		8.582516	-0.061857	-0.468527	0.015489	-0.000586	-0.116692	-0.782471	0.414307	0.175293	0.369309	-0.597164	-0.412911	-0.580096
24461		8.986307	0.747244	-0.750773	0.095959	0.042328	-0.101289	-0.784668	0.410889	0.168945	0.369533	-0.595902	-0.414152	-0.580365
24462		9.733313	0.494457	-0.624732	-0.040867	0.079062	-0.067964	-0.783447	0.407227	0.174316	0.369168	-0.595176	-0.413986	-0.581460
24463		9.153770	-0.404171	-0.424189	-0.043520	0.060467	-0.057167	-0.790039	0.410645	0.173096	0.368762	-0.594654	-0.413802	-0.582382
24464		8.399603	0.351734	-0.490664	0.033263	0.014035	-0.048405	-0.785400	0.402344	0.167969	0.368752	-0.594161	-0.414325	-0.582519
24465		8.342445	1.162760	-0.750755	-0.086113	-0.007776	-0.013934	-0.781494	0.404541	0.166748	0.367990	-0.594554	-0.413827	-0.582954
24466		9.823692	0.575719	-0.612528	-0.180416	0.045711	0.019298	-0.787598	0.413330	0.166748	0.367050	-0.595160	-0.412149	-0.584117
24467		9.621282	-0.612271	-0.347628	-0.066728	0.139767	0.024209	-0.791016	0.414307	0.167236	0.367480	-0.594578	-0.410829	-0.585367
24468		8.408168	-0.397547	-0.372381	0.029327	0.047688	0.029020	-0.787598	0.417725	0.171143	0.368184	-0.594254	-0.410596	-0.585418
24469		9.307625	0.543119	-1.125462	0.069136	0.068884	0.020568	-0.785645	0.419922	0.169922	0.369234	-0.593548	-0.410615	-0.585459
24470		10.358045	0.403637	-0.531392	0.027819	0.036841	0.006915	-0.781250	0.421143	0.165771	0.369717	-0.593196	-0.410581	-0.585535
24471		10.460784	-0.543463	0.005619	0.261687	0.005919	-0.004590	-0.784912	0.412598	0.167725	0.371693	-0.591925	-0.412486	-0.584230
24472		10.089587	-0.251760	-0.082770	0.683630	0.054907	-0.019481	-0.779053	0.422852	0.154053	0.376905	-0.588239	-0.417336	-0.581161
24473		9.998814	0.567589	-0.367054	0.567040	0.055272	-0.053300	-0.788330	0.415283	0.156982	0.381007	-0.584882	-0.421558	-0.578823
24474		9.086159	0.779332	-0.522729	0.254649	0.001679	-0.067090	-0.783691	0.421875	0.144531	0.382414	-0.583316	-0.423862	-0.577792
24475		8.853960	1.220790	-0.429456	0.204386	-0.141530	-0.015017	-0.784180	0.432129	0.150146	0.383080	-0.583289	-0.426106	-0.575723
24476		9.561703	0.686117	-0.324860	0.065276	-0.177069	0.008908	-0.789551	0.420898	0.158203	0.382724	-0.584305	-0.427338	-0.574014
24477		10.458740	0.363973	-0.035578	0.030304	-0.171693	0.011529	-0.788574	0.421143	0.157227	0.382138	-0.585466	-0.428275	-0.572522
24478		10.714695	0.164719	-0.269036	0.184755	-0.121135	0.006337	-0.784912	0.425537	0.159668	0.382913	-0.585495	-0.430111	-0.570595
24479		10.080203	-0.006672	-1.020623	0.174834	-0.088483	0.006486	-0.786865	0.424561	0.156250	0.383796	-0.585334	-0.431712	-0.568954
24480		9.932252	0.543760	-1.001484	0.064813	-0.100148	-0.013997	-0.781006	0.431396	0.150391	0.383661	-0.585672	-0.432739	-0.567917
24481		10.364120	0.792007	-0.625271	-0.087608	-0.170233	-0.043462	-0.786621	0.429443	0.155762	0.381833	-0.587070	-0.433235	-0.567326
24482		10.558552	-0.161478	-0.525851	-0.012052	-0.166820	-0.072512	-0.783936	0.431641	0.170654	0.380365	-0.587925	-0.434463	-0.566488
24483		9.861956	-0.009228	-0.542647	0.100102	-0.079353	-0.074756	-0.785889	0.425537	0.167480	0.380188	-0.587612	-0.436080	-0.565689
24484		10.308491	1.492412	-0.555493	0.135218	-0.016177	-0.099308	-0.789795	0.434814	0.160156	0.380428	-0.586551	-0.437825	-0.565280
24485		10.732088	0.902736	-0.603888	0.017466	-0.083520	-0.097696	-0.786865	0.417236	0.165771	0.379462	-0.586526	-0.439048	-0.565007
24486		10.342870	-0.204072	-0.893327	-0.019488	-0.032179	-0.077871	-0.782959	0.416748	0.170898	0.378620	-0.586430	-0.439617	-0.565228
24487		10.110392	0.558765	-0.586916	0.078510	0.011659	-0.104110	-0.791504	0.421631	0.164551	0.378558	-0.585416	-0.440860	-0.565353
24488		10.421225	1.366955	-0.747298	-0.086573	0.000830	-0.114396	-0.784912	0.417480	0.169189	0.377160	-0.585197	-0.441066	-0.566353
24489		9.891052	0.349186	-0.546217	-0.103462	0.009008	-0.084985	-0.784912	0.417969	0.165039	0.375892	-0.585161	-0.440895	-0.567365
24490		9.162851	0.293177	-0.593554	-0.030588	-0.014579	-0.075889	-0.789551	0.420410	0.168945	0.375096	-0.584997	-0.441285	-0.567759
24491		9.484950	0.904387	-0.282244	-0.053943	0.001734	-0.098755	-0.792725	0.411865	0.164307	0.374062	-0.584697	-0.441601	-0.568503
24492		9.339219	0.364665	-0.350493	-0.066789	-0.003832	-0.061591	-0.787109	0.417236	0.168701	0.373151	-0.584705	-0.441578	-0.569111
24493		9.165737	0.158121	-0.415196	0.019920	0.025060	-0.051637	-0.801025	0.413086	0.171875	0.373122	-0.584153	-0.441963	-0.569397
24494		9.663376	0.880223	-0.630538	0.079036	0.026351	-0.078942	-0.793213	0.409668	0.168457	0.373324	-0.583167	-0.442966	-0.569497
24495		10.088538	1.182951	-0.575257	0.042877	0.020234	-0.078179	-0.795898	0.415527	0.170166	0.373232	-0.582399	-0.443729	-0.569750
24496		9.689310	0.714764	-0.692082	-0.016644	-0.000469	-0.076913	-0.794189	0.406494	0.169434	0.372615	-0.582056	-0.444158	-0.570169
24497		9.872482	0.770022	-0.909836	-0.025196	-0.012961	-0.094439	-0.800293	0.410156	0.171631	0.371726	-0.581750	-0.444709	-0.570632
24498		10.784260	1.079863	-0.946940	-0.021318	-0.037304	-0.099127	-0.785400	0.409668	0.167969	0.370705	-0.581568	-0.445438	-0.570913
24499		11.204257	0.347285	-0.020143	-0.209151	0.117646	-0.089459	-0.793701	0.401367	0.168457	0.369257	-0.581200	-0.444032	-0.573315
24500		11.184391	-0.181306	-0.753761	-0.043213	0.156697	-0.081191	-0.792236	0.399170	0.170166	0.369271	-0.579834	-0.443569	-0.575046
24501		10.519416	0.428039	-1.007852	0.050683	0.154097	-0.077689	-0.798096	0.397705	0.166016	0.369976	-0.578070	-0.443764	-0.576217
24502		9.681125	1.288326	-1.367427	0.025037	0.044446	-0.068265	-0.796631	0.396484	0.164795	0.369951	-0.577265	-0.444214	-0.576693
24503		9.442455	0.810702	-0.980842	-0.062650	-0.053073	-0.056178	-0.795410	0.397949	0.164551	0.368839	-0.577635	-0.444396	-0.576895
24504		9.568257	1.023005	-0.544928	-0.073745	-0.117729	-0.068826	-0.795654	0.396973	0.169434	0.367202	-0.578448	-0.444888	-0.576745
24505		9.584457	0.794720	-0.399895	-0.077982	-0.088508	-0.051835	-0.798828	0.395020	0.168701	0.365818	-0.579162	-0.445092	-0.576750
24506		9.365606	0.504414	-0.416991	-0.077916	-0.019502	-0.045816	-0.798828	0.389160	0.166016	0.364857	-0.579412	-0.444936	-0.577229
