// Start Time: Unknown
// Update Rate: 40.0Hz
// Filter Profile: human (46.1)
// Firmware Version: 4.3.4
PacketCounter	SampleTimeFine	Acc_X	Acc_Y	Acc_Z	Gyr_X	Gyr_Y	Gyr_Z	Mag_X	Mag_Y	Mag_Z	Quat_q0	Quat_q1	Quat_q2	Quat_q3
23593		9.525483	1.199217	1.969598	0.007547	-0.000034	0.005750	-0.864990	0.612061	-0.086426	0.476600	-0.445900	-0.447978	-0.611017
23594		9.540391	1.159108	1.961751	0.008110	0.006173	0.006777	-0.867188	0.616211	-0.084229	0.476731	-0.445842	-0.447965	-0.610966
23595		9.546346	1.147381	2.021785	0.005075	0.004068	0.007717	-0.867188	0.612061	-0.082031	0.476814	-0.445853	-0.447940	-0.610912
23596		9.534131	1.191653	1.968928	0.001974	0.004344	0.007733	-0.871826	0.620605	-0.086670	0.476854	-0.445902	-0.447895	-0.610878
23597		9.548144	1.140281	2.032264	0.001923	0.001975	0.007771	-0.871582	0.618408	-0.084473	0.476937	-0.445920	-0.447852	-0.610832
23598		9.555975	1.154679	2.005474	0.004383	0.001110	0.007286	-0.867188	0.616211	-0.084229	0.477030	-0.445927	-0.447829	-0.610771
23599		9.560228	1.196476	1.969462	0.000926	0.003143	0.008565	-0.867188	0.614258	-0.086426	0.477100	-0.445973	-0.447761	-0.610732
23600		9.536378	1.160787	1.971686	0.003437	0.004648	0.008043	-0.863037	0.616455	-0.088623	0.477207	-0.445972	-0.447704	-0.610691
23601		9.546669	1.152185	1.978626	0.004369	0.005863	0.006326	-0.865234	0.618408	-0.084473	0.477347	-0.445924	-0.447648	-0.610658
23602		9.561199	1.151882	1.988313	0.001797	0.005228	0.008367	-0.867432	0.618408	-0.084473	0.477446	-0.445957	-0.447564	-0.610618
23603		9.543856	1.157031	1.995922	0.003897	0.007633	0.006705	-0.864990	0.612061	-0.086426	0.477555	-0.445954	-0.447490	-0.610589
23604		9.549760	1.140057	2.000784	0.004014	0.007623	0.007591	-0.867188	0.614258	-0.084229	0.477664	-0.445910	-0.447433	-0.610578
23605		9.590878	1.130178	2.033866	-0.002063	0.004929	0.007026	-0.869629	0.620605	-0.084473	0.477714	-0.445963	-0.447329	-0.610576
23606		9.540986	1.155351	1.959197	0.002497	0.006467	0.004880	-0.867432	0.618408	-0.093262	0.477818	-0.445998	-0.447222	-0.610548
23607		9.528870	1.144763	1.937712	0.000506	0.007185	0.005726	-0.860840	0.614258	-0.090820	0.477985	-0.445953	-0.447099	-0.610539
23608		9.501049	1.107485	2.026127	-0.001184	0.005287	0.002905	-0.867188	0.616211	-0.086426	0.478068	-0.445913	-0.447023	-0.610559
23609		9.562629	1.104791	2.078837	0.006190	0.004303	0.002195	-0.869141	0.612061	-0.090820	0.478155	-0.445897	-0.446994	-0.610524
23610		9.581448	1.164582	2.003918	0.004442	0.001654	0.000151	-0.869629	0.620605	-0.082275	0.478222	-0.445843	-0.446978	-0.610523
23611		9.556445	1.170746	1.989863	0.003216	0.001225	-0.001568	-0.864990	0.614258	-0.086426	0.478237	-0.445910	-0.446932	-0.610496
23612		9.532357	1.157602	1.999460	0.005560	-0.001145	-0.000495	-0.869629	0.618408	-0.082275	0.478260	-0.445906	-0.446947	-0.610470
23613		9.535110	1.129795	1.976253	0.007253	0.000648	-0.000855	-0.862793	0.614258	-0.084229	0.478279	-0.445942	-0.446949	-0.610427
23614		9.523892	1.136664	1.938432	0.004731	0.003897	-0.001297	-0.869629	0.620605	-0.086670	0.478302	-0.445916	-0.446936	-0.610438
23615		9.551729	1.164388	1.988223	0.000868	0.005215	-0.001902	-0.867188	0.614258	-0.086426	0.478350	-0.445934	-0.446857	-0.610445
23616		9.536761	1.183267	1.989452	-0.004518	0.005587	0.001143	-0.867188	0.616211	-0.086426	0.478355	-0.445953	-0.446761	-0.610497
23617		9.545086	1.179735	1.987887	-0.000130	0.006384	-0.001109	-0.867188	0.612061	-0.088623	0.478378	-0.445937	-0.446699	-0.610536
23618		9.562187	1.117702	2.013632	-0.000767	0.002661	0.000123	-0.867188	0.616211	-0.084229	0.478380	-0.445908	-0.446678	-0.610571
23619		9.546335	1.176229	1.998834	-0.001297	0.005193	-0.001164	-0.865234	0.622803	-0.088867	0.478365	-0.445934	-0.446613	-0.610611
23620		9.537668	1.139415	1.986372	0.000107	0.004743	-0.000076	-0.867188	0.612061	-0.084229	0.478455	-0.445953	-0.446510	-0.610603
23621		9.545975	1.156105	1.992700	-0.001413	0.003691	0.000392	-0.869385	0.614258	-0.086426	0.478409	-0.445967	-0.446481	-0.610650
23622		9.527591	1.167065	2.023234	-0.005039	0.003367	0.000818	-0.869385	0.616211	-0.086426	0.478374	-0.446000	-0.446413	-0.610703
23623		9.563699	1.164548	1.973607	0.002267	0.006387	-0.000072	-0.865234	0.616211	-0.082275	0.478401	-0.445972	-0.446372	-0.610732
23624		9.548698	1.163473	1.967065	-0.003119	0.009787	-0.001912	-0.867188	0.612061	-0.088623	0.478365	-0.445992	-0.446272	-0.610818
23625		9.528242	1.143312	2.029148	-0.005049	0.008123	-0.000144	-0.864990	0.609863	-0.086182	0.478364	-0.445936	-0.446205	-0.610909
23626		9.586416	1.178846	1.970076	0.002505	0.007775	-0.003921	-0.864990	0.612061	-0.084229	0.478339	-0.445833	-0.446223	-0.610991
23627		9.552259	1.173604	2.008196	-0.008087	0.007533	-0.001652	-0.867432	0.618408	-0.091064	0.478256	-0.445858	-0.446129	-0.611106
23628		9.513617	1.133722	1.947053	-0.001122	0.007452	-0.003495	-0.873779	0.616211	-0.084473	0.478319	-0.445785	-0.446067	-0.611155
23629		9.519776	1.139624	1.992924	-0.010483	0.007533	-0.002689	-0.863037	0.618408	-0.086670	0.478192	-0.445848	-0.445959	-0.611288
23630		9.534667	1.212375	1.957744	-0.003056	0.008924	-0.003427	-0.867188	0.612061	-0.086426	0.478220	-0.445848	-0.445850	-0.611346
23631		9.559681	1.152641	2.037587	-0.002709	0.010407	-0.003209	-0.865234	0.618408	-0.080078	0.478181	-0.445779	-0.445813	-0.611453
23632		9.554755	1.165249	2.045363	0.002800	0.006889	-0.003661	-0.867188	0.614258	-0.082031	0.478112	-0.445864	-0.445755	-0.611487
23633		9.538250	1.203645	1.990054	0.000875	0.003601	-0.002637	-0.864990	0.612061	-0.090820	0.478008	-0.445920	-0.445746	-0.611534
23634		9.542498	1.172389	1.976926	0.002042	0.004794	-0.002578	-0.869385	0.614014	-0.082031	0.478056	-0.445794	-0.445776	-0.611567
23635		9.527456	1.156704	2.016704	0.003565	0.002710	-0.001344	-0.869385	0.614258	-0.088623	0.477948	-0.445849	-0.445799	-0.611594
23636		9.537663	1.220404	1.945500	0.004311	0.008050	-0.000944	-0.867188	0.612061	-0.084229	0.477987	-0.445749	-0.445808	-0.611631
23637		9.529546	1.184369	1.966114	0.001612	0.009046	0.000945	-0.864990	0.616455	-0.088623	0.477954	-0.445731	-0.445783	-0.611687
23638		9.555601	1.174989	1.991656	0.005472	0.010867	-0.000144	-0.865234	0.618408	-0.086670	0.478065	-0.445642	-0.445742	-0.611696
23639		9.536100	1.240406	1.960869	-0.004021	0.012685	0.003690	-0.867188	0.614258	-0.090820	0.478136	-0.445678	-0.445570	-0.611739
23640		9.550877	1.166025	2.027356	-0.001681	0.013452	0.003067	-0.869385	0.616211	-0.088623	0.478237	-0.445565	-0.445491	-0.611800
23641		9.539892	1.192311	2.032897	-0.000979	0.011659	0.004462	-0.867188	0.614258	-0.088623	0.478296	-0.445531	-0.445401	-0.611844
23642		9.551944	1.175025	1.994452	-0.004839	0.009841	0.005549	-0.869385	0.618408	-0.086670	0.478330	-0.445525	-0.445297	-0.611897
23643		9.542009	1.161584	2.015011	0.001195	0.010061	0.002991	-0.871582	0.614014	-0.086426	0.478356	-0.445542	-0.445214	-0.611925
23644		9.545193	1.188148	1.995973	-0.007353	0.008337	0.006062	-0.873535	0.614014	-0.086426	0.478288	-0.445596	-0.445118	-0.612009
23645		9.542716	1.195517	2.045238	-0.002319	0.009728	0.004296	-0.869141	0.607666	-0.090576	0.478225	-0.445593	-0.445074	-0.612092
23646		9.533965	1.177639	2.041768	0.001489	0.006031	0.004945	-0.867188	0.612061	-0.090820	0.478231	-0.445462	-0.445139	-0.612136
23647		9.527926	1.171739	2.031570	0.000142	0.005719	0.005518	-0.869385	0.614258	-0.088623	0.478285	-0.445396	-0.445129	-0.612149
23648		9.618806	1.165947	2.046147	0.004830	0.005624	0.003533	-0.867188	0.614258	-0.084229	0.478303	-0.445354	-0.445144	-0.612154
23649		9.563743	1.228081	2.008722	-0.006927	0.005709	0.003278	-0.867188	0.612061	-0.092773	0.478192	-0.445477	-0.445040	-0.612228
23650		9.517348	1.135753	2.013301	-0.001138	0.007678	0.002874	-0.869141	0.612061	-0.088623	0.478264	-0.445348	-0.445033	-0.612271
23651		9.528012	1.184001	2.022557	0.001436	0.006797	0.003284	-0.869385	0.614258	-0.086426	0.478248	-0.445298	-0.445038	-0.612315
23652		9.551018	1.180902	2.029440	-0.000673	0.004388	0.004935	-0.867432	0.620605	-0.084473	0.478192	-0.445357	-0.445000	-0.612344
23653		9.566890	1.197896	2.056403	0.008458	0.005948	0.003121	-0.864990	0.614258	-0.093018	0.478216	-0.445446	-0.444946	-0.612299
23654		9.575506	1.173946	2.046044	0.007757	0.004604	0.003425	-0.864990	0.616455	-0.090820	0.478362	-0.445318	-0.444987	-0.612249
23655		9.548990	1.182907	2.023354	0.007989	0.002959	0.004456	-0.869385	0.614258	-0.086426	0.478477	-0.445279	-0.445000	-0.612177
23656		9.544768	1.173858	2.020946	0.008108	0.001325	0.004601	-0.869385	0.616211	-0.086426	0.478439	-0.445309	-0.445054	-0.612146
23657		9.530226	1.171811	2.012910	0.006697	0.005027	0.004993	-0.873535	0.612061	-0.086426	0.478432	-0.445341	-0.445052	-0.612130
23658		9.542531	1.175226	1.981007	0.005242	0.003101	0.003936	-0.869385	0.614258	-0.086426	0.478327	-0.445336	-0.445124	-0.612163
23659		9.547253	1.183223	2.016911	0.002474	0.004975	0.007339	-0.869385	0.614258	-0.086426	0.478301	-0.445388	-0.445098	-0.612165
23660		9.548797	1.178262	2.026973	0.003130	0.005459	0.004630	-0.867188	0.616211	-0.093018	0.478261	-0.445415	-0.445091	-0.612181
23661		9.556219	1.178073	2.048565	-0.000093	0.004234	0.006185	-0.867432	0.620605	-0.091064	0.478362	-0.445375	-0.445050	-0.612161
23662		9.539105	1.163086	2.047024	-0.001677	0.002428	0.007423	-0.867188	0.616211	-0.082275	0.478444	-0.445450	-0.444947	-0.612117
23663		9.547873	1.157895	2.044420	0.002537	0.000964	0.007520	-0.863037	0.616455	-0.090820	0.478355	-0.445633	-0.444904	-0.612085
23664		9.534553	1.170735	2.020722	0.001722	-0.000370	0.006937	-0.865234	0.618408	-0.091064	0.478444	-0.445670	-0.444874	-0.612010
23665		9.560789	1.139083	2.003123	0.007231	-0.000761	0.004799	-0.867432	0.620605	-0.084473	0.478539	-0.445673	-0.444894	-0.611919
23666		9.569354	1.175178	2.016481	0.006411	-0.000470	0.004957	-0.865234	0.618408	-0.093018	0.478512	-0.445821	-0.444874	-0.611847
23667		9.553282	1.196952	2.006905	0.007057	-0.001503	0.004690	-0.867432	0.618408	-0.093262	0.478631	-0.445789	-0.444908	-0.611753
23668		9.556263	1.167702	1.984012	0.006930	0.003386	0.006028	-0.864990	0.612061	-0.088623	0.478765	-0.445719	-0.444918	-0.611691
23669		9.519432	1.203235	1.964073	0.002713	0.006478	0.006672	-0.864990	0.612061	-0.084229	0.478793	-0.445686	-0.444918	-0.611694
23670		9.558424	1.121526	2.011159	-0.001270	0.006299	0.007606	-0.867188	0.616211	-0.088623	0.478729	-0.445767	-0.444870	-0.611720
23671		9.566717	1.156661	2.026431	-0.005590	0.006148	0.005880	-0.869629	0.620605	-0.088867	0.478711	-0.445816	-0.444782	-0.611762
23672		9.533225	1.164235	2.016322	-0.005007	0.004363	0.006391	-0.864990	0.616455	-0.088623	0.478703	-0.445908	-0.444675	-0.611779
23673		9.538321	1.111046	2.027191	-0.007520	0.001233	0.006158	-0.867432	0.618408	-0.086670	0.478672	-0.446010	-0.444591	-0.611791
23674		9.520462	1.156089	2.017834	0.000271	0.000847	0.004181	-0.867432	0.620605	-0.086670	0.478628	-0.446100	-0.444567	-0.611776
23675		9.561424	1.147053	2.049935	0.003613	0.000432	0.002772	-0.871582	0.616211	-0.088623	0.478607	-0.446183	-0.444558	-0.611739
23676		9.573848	1.171046	2.025320	0.006717	-0.001477	0.002032	-0.865234	0.620605	-0.086670	0.478552	-0.446168	-0.444659	-0.611719
23677		9.548192	1.161074	2.025321	0.008003	-0.001919	0.002239	-0.873779	0.618408	-0.084473	0.478560	-0.446242	-0.444691	-0.611636
23678		9.531256	1.127723	2.013909	0.010059	-0.001891	0.000624	-0.867432	0.620605	-0.084473	0.478447	-0.446286	-0.444807	-0.611608
23679		9.515648	1.151589	2.036204	0.011524	-0.003216	0.000200	-0.867188	0.614258	-0.090820	0.478403	-0.446365	-0.444889	-0.611524
23680		9.547686	1.160634	1.957704	0.015444	-0.003787	0.000045	-0.869385	0.616211	-0.084473	0.478438	-0.446255	-0.445084	-0.611435
23681		9.539050	1.218904	1.896602	0.007775	-0.000270	0.001207	-0.863037	0.616455	-0.088623	0.478358	-0.446294	-0.445168	-0.611409
23682		9.546082	1.164433	1.948660	0.002440	0.007262	0.003231	-0.867188	0.616211	-0.086426	0.478423	-0.446267	-0.445133	-0.611403
23683		9.538640	1.183223	1.971183	-0.009037	0.011343	0.005434	-0.867188	0.616211	-0.088623	0.478393	-0.446314	-0.444992	-0.611495
23684		9.542556	1.169852	1.968626	-0.006165	0.012708	0.004404	-0.867188	0.616211	-0.088623	0.478409	-0.446291	-0.444877	-0.611583
23685		9.553870	1.157621	1.986900	-0.003247	0.014940	0.005781	-0.869385	0.618408	-0.086670	0.478463	-0.446241	-0.444764	-0.611659
23686		9.548336	1.153119	2.043536	-0.003243	0.013315	0.005040	-0.869385	0.616211	-0.084473	0.478465	-0.446249	-0.444650	-0.611734
23687		9.543666	1.143199	2.043600	-0.002143	0.008991	0.006841	-0.873779	0.616211	-0.090820	0.478419	-0.446308	-0.444577	-0.611781
23688		9.549316	1.146401	2.057041	0.004062	0.006797	0.006108	-0.867188	0.614258	-0.090820	0.478443	-0.446230	-0.444601	-0.611801
23689		9.560001	1.173220	2.024934	0.001789	0.003532	0.004464	-0.864990	0.612061	-0.088623	0.478465	-0.446183	-0.444625	-0.611801
23690		9.531539	1.150309	2.032219	0.006048	0.001303	0.006232	-0.867432	0.618408	-0.086670	0.478487	-0.446158	-0.444691	-0.611754
23691		9.546243	1.110712	2.024331	0.010934	0.001822	0.001184	-0.869385	0.616211	-0.088623	0.478487	-0.446154	-0.444764	-0.611704
23692		9.549875	1.158525	2.011548	0.006417	0.002675	0.003268	-0.865234	0.616211	-0.086426	0.478482	-0.446129	-0.444818	-0.611687
23693		9.565973	1.155372	2.029474	-0.001018	0.001296	0.003973	-0.867188	0.612061	-0.090820	0.478437	-0.446207	-0.444797	-0.611680
23694		9.538084	1.167718	1.997481	0.001327	0.002056	0.003357	-0.865234	0.620605	-0.088867	0.478428	-0.446152	-0.444850	-0.611690
23695		9.528423	1.134458	2.007850	-0.004054	0.002331	0.003190	-0.869385	0.616211	-0.084473	0.478425	-0.446234	-0.444769	-0.611691
23696		9.549467	1.154536	1.980960	0.001859	0.001028	0.002203	-0.867432	0.620605	-0.086670	0.478325	-0.446302	-0.444795	-0.611700
23697		9.537562	1.164768	1.966873	-0.001649	0.005472	0.002537	-0.869629	0.624756	-0.082520	0.478303	-0.446366	-0.444723	-0.611723
23698		9.554852	1.123880	2.066115	0.002736	0.004746	0.002752	-0.869385	0.618408	-0.088867	0.478255	-0.446498	-0.444654	-0.611715
23699		9.547845	1.177586	2.015419	0.002035	0.001772	0.002313	-0.863037	0.616455	-0.088623	0.478235	-0.446506	-0.444669	-0.611713
23700		9.552318	1.144994	2.001623	0.000800	-0.000174	0.003028	-0.864990	0.616455	-0.088623	0.478239	-0.446541	-0.444674	-0.611681
23701		9.538709	1.124907	2.049610	0.003273	0.002089	0.000857	-0.869385	0.618408	-0.088867	0.478239	-0.446526	-0.444705	-0.611669
23702		9.556635	1.113162	1.988138	0.008562	0.001702	-0.003047	-0.865234	0.618408	-0.088867	0.478216	-0.446465	-0.444799	-0.611663
23703		9.553704	1.196939	1.948185	0.005988	0.004217	-0.002724	-0.869141	0.612061	-0.088623	0.478227	-0.446413	-0.444840	-0.611663
23704		9.541613	1.187844	1.926637	-0.002746	0.009800	0.000733	-0.867432	0.618408	-0.091064	0.478184	-0.446336	-0.444829	-0.611761
23705		9.546793	1.137824	2.004223	-0.005961	0.011722	0.000581	-0.871826	0.622559	-0.086914	0.478205	-0.446286	-0.444727	-0.611855
23706		9.546193	1.157539	2.015248	0.000286	0.010397	0.002261	-0.865234	0.618408	-0.088867	0.478203	-0.446300	-0.444646	-0.611905
23707		9.548423	1.168957	2.011575	-0.001353	0.010983	0.002574	-0.869141	0.609863	-0.088379	0.478248	-0.446276	-0.444560	-0.611950
23708		9.545291	1.156350	2.020194	-0.001525	0.008610	0.001723	-0.869385	0.616211	-0.084473	0.478196	-0.446199	-0.444577	-0.612034
23709		9.542174	1.164066	2.036535	0.002155	0.006538	0.002243	-0.864990	0.614258	-0.086426	0.478140	-0.446222	-0.444571	-0.612066
23710		9.564677	1.160539	2.011389	0.005076	0.007141	0.002884	-0.871582	0.616211	-0.088623	0.478155	-0.446194	-0.444583	-0.612066
23711		9.549951	1.158672	2.004262	0.002377	0.006524	0.004019	-0.869385	0.618408	-0.093262	0.478147	-0.446168	-0.444583	-0.612092
23712		9.528680	1.136826	2.032848	-0.001029	0.004561	0.005456	-0.864990	0.612061	-0.090820	0.478198	-0.446147	-0.444542	-0.612096
23713		9.563034	1.162171	2.038463	0.001434	0.002052	0.004247	-0.873535	0.612061	-0.084229	0.478212	-0.446116	-0.444574	-0.612084
23714		9.558364	1.152296	2.004067	0.004375	0.004165	0.002445	-0.869385	0.618408	-0.086670	0.478106	-0.446112	-0.444641	-0.612122
23715		9.586766	1.173381	1.998396	0.002312	0.005774	0.004798	-0.871826	0.620605	-0.088867	0.478103	-0.446144	-0.444609	-0.612124
23716		9.555283	1.138517	2.013052	-0.005573	0.007690	0.003423	-0.869629	0.620605	-0.080078	0.478074	-0.446184	-0.444509	-0.612190
23717		9.524877	1.139355	2.020884	-0.003599	0.005451	0.005035	-0.867432	0.618408	-0.091064	0.477976	-0.446350	-0.444407	-0.612220
23718		9.534506	1.170644	2.012153	0.000679	0.003098	0.003626	-0.865234	0.620605	-0.086670	0.478003	-0.446349	-0.444389	-0.612212
23719		9.560674	1.140172	2.028478	0.003087	0.006241	0.002978	-0.869385	0.616211	-0.090820	0.478033	-0.446379	-0.444344	-0.612200
23720		9.560437	1.139798	2.029806	0.006077	0.005963	0.002101	-0.871582	0.618408	-0.088867	0.478069	-0.446299	-0.444383	-0.612202
23721		9.561788	1.156133	2.047721	0.007413	0.001498	0.002495	-0.867188	0.616211	-0.090820	0.478063	-0.446284	-0.444443	-0.612174
23722		9.566911	1.178874	2.003242	0.003314	0.002964	0.003271	-0.871582	0.618408	-0.093262	0.478088	-0.446257	-0.444464	-0.612158
23723		9.541110	1.128620	1.987791	0.011351	0.004062	0.000650	-0.867188	0.616211	-0.086426	0.478149	-0.446140	-0.444555	-0.612131
23724		9.527974	1.124030	1.988917	0.009067	0.005688	0.001225	-0.871826	0.620605	-0.086670	0.478159	-0.446101	-0.444607	-0.612113
23725		9.553544	1.133888	1.989650	0.008424	0.006727	0.001491	-0.871582	0.614014	-0.088623	0.478164	-0.446081	-0.444629	-0.612107
23726		9.558610	1.177982	1.987028	0.004325	0.008194	0.002265	-0.871582	0.616211	-0.088623	0.478155	-0.446013	-0.444657	-0.612144
23727		9.568821	1.151036	2.019026	-0.000126	0.008171	0.002818	-0.869385	0.616211	-0.093018	0.478133	-0.445992	-0.444631	-0.612196
23728		9.544130	1.157000	2.038676	-0.001832	0.008007	0.003906	-0.867432	0.622803	-0.084717	0.478165	-0.445943	-0.444585	-0.612239
23729		9.562312	1.164468	2.019750	-0.000441	0.009191	0.005748	-0.869629	0.622803	-0.084717	0.478184	-0.446029	-0.444468	-0.612247
23730		9.553369	1.166524	2.024924	-0.001261	0.009486	0.005903	-0.865234	0.618408	-0.086670	0.478186	-0.446112	-0.444351	-0.612271
23731		9.539907	1.159261	1.995016	-0.005178	0.008433	0.005302	-0.864990	0.614258	-0.090820	0.478184	-0.446177	-0.444235	-0.612308
23732		9.553300	1.123659	2.044846	-0.004913	0.006029	0.008004	-0.869629	0.620605	-0.084473	0.478215	-0.446201	-0.444157	-0.612323
23733		9.550038	1.169449	2.044856	0.000006	0.004267	0.007078	-0.867432	0.618408	-0.088867	0.478193	-0.446304	-0.444094	-0.612311
23734		9.545566	1.138632	2.002397	0.002247	0.003399	0.004839	-0.865234	0.616211	-0.084229	0.478207	-0.446329	-0.444081	-0.612292
23735		9.545860	1.118436	2.027038	0.004065	0.001923	0.003899	-0.867432	0.618408	-0.084473	0.478179	-0.446385	-0.444100	-0.612258
23736		9.531389	1.136953	2.026635	0.004602	-0.000744	0.002005	-0.864990	0.616455	-0.093018	0.478122	-0.446455	-0.444141	-0.612222
23737		9.610039	1.160244	1.969550	0.004132	0.002675	0.003121	-0.867188	0.616211	-0.088623	0.478176	-0.446410	-0.444169	-0.612193
23738		9.546936	1.152976	2.021288	0.000235	0.006399	0.001558	-0.871826	0.620605	-0.084473	0.478163	-0.446391	-0.444156	-0.612226
23739		9.503491	1.108400	1.979974	0.000101	0.004897	0.003114	-0.869385	0.614258	-0.090820	0.478105	-0.446457	-0.444121	-0.612249
23740		9.541093	1.107760	2.027894	-0.001399	0.003719	0.000382	-0.869629	0.622803	-0.091064	0.478060	-0.446423	-0.444141	-0.612293
23741		9.561803	1.187592	1.994156	-0.008377	0.003831	0.002172	-0.867188	0.614258	-0.086426	0.478021	-0.446494	-0.444038	-0.612348
23742		9.585554	1.126568	2.073592	-0.004857	0.005786	0.001631	-0.869385	0.618408	-0.084473	0.477955	-0.446518	-0.444000	-0.612409
23743		9.572125	1.140956	2.050780	0.006508	0.003307	-0.000671	-0.867188	0.616211	-0.084229	0.477907	-0.446523	-0.444052	-0.612405
23744		9.523763	1.168158	1.974277	0.002947	0.002111	-0.001797	-0.864990	0.612061	-0.086426	0.477828	-0.446544	-0.444097	-0.612419
23745		9.543940	1.134040	1.978874	0.004402	0.005682	0.000012	-0.864990	0.616455	-0.090820	0.477810	-0.446494	-0.444146	-0.612434
23746		9.541143	1.103300	2.010356	0.007640	0.005263	-0.002269	-0.861084	0.622803	-0.086670	0.477842	-0.446401	-0.444210	-0.612430
23747		9.543146	1.175646	1.997847	0.006570	0.007331	0.000036	-0.867188	0.616211	-0.086426	0.477903	-0.446401	-0.444182	-0.612403
23748		9.552881	1.169007	2.005615	0.006705	0.008835	-0.001519	-0.867432	0.618408	-0.086670	0.477904	-0.446332	-0.444215	-0.612429
23749		9.553846	1.185954	2.024832	0.001542	0.009104	0.000069	-0.869385	0.616211	-0.088623	0.477896	-0.446313	-0.444183	-0.612472
23750		9.566920	1.132009	2.066667	0.002471	0.008805	0.000805	-0.865234	0.620605	-0.093262	0.477896	-0.446260	-0.444179	-0.612514
23751		9.550222	1.193777	2.043202	-0.001473	0.006241	0.002643	-0.865234	0.620605	-0.088867	0.477947	-0.446251	-0.444114	-0.612527
23752		9.545852	1.144030	2.025710	-0.004645	0.007413	0.004144	-0.869385	0.618408	-0.084473	0.477962	-0.446302	-0.444005	-0.612557
23753		9.554419	1.140376	2.056911	-0.001365	0.006236	0.003532	-0.869385	0.618408	-0.084473	0.477920	-0.446359	-0.443953	-0.612586
23754		9.569457	1.174911	1.995701	0.005432	0.008652	0.003124	-0.867432	0.620605	-0.088867	0.477926	-0.446353	-0.443941	-0.612594
23755		9.563813	1.130724	2.034290	-0.002544	0.008313	0.004948	-0.867432	0.622803	-0.088867	0.477951	-0.446384	-0.443846	-0.612622
23756		9.534560	1.147319	2.027219	-0.002476	0.009066	0.004171	-0.867432	0.620605	-0.086670	0.477980	-0.446416	-0.443738	-0.612654
23757		9.531237	1.153430	2.011561	-0.007212	0.008307	0.003715	-0.875732	0.616211	-0.088623	0.477951	-0.446486	-0.443614	-0.612715
23758		9.544079	1.137807	2.037534	-0.001368	0.007876	0.004276	-0.862793	0.614258	-0.088623	0.477916	-0.446470	-0.443586	-0.612774
23759		9.649881	1.166466	1.991650	-0.004265	0.012059	0.002666	-0.869385	0.614258	-0.088623	0.477937	-0.446439	-0.443498	-0.612844
23760		9.537594	1.132697	2.096208	-0.012706	0.011874	0.004118	-0.867188	0.616211	-0.086426	0.477886	-0.446458	-0.443356	-0.612972
23761		9.512359	1.135834	2.019394	-0.001802	0.009540	0.001467	-0.865234	0.618408	-0.091064	0.477864	-0.446449	-0.443305	-0.613033
23762		9.530580	1.143776	2.000718	-0.012163	0.007569	0.001479	-0.864990	0.616455	-0.090820	0.477823	-0.446493	-0.443174	-0.613128
23763		9.552017	1.146139	2.064362	-0.001404	0.007001	0.001871	-0.867188	0.616211	-0.088623	0.477838	-0.446469	-0.443137	-0.613161
23764		9.586369	1.132867	2.086838	0.004118	0.006584	-0.000231	-0.869385	0.614258	-0.090820	0.477836	-0.446418	-0.443162	-0.613182
23765		9.567173	1.163172	2.060549	0.008898	0.003309	0.000408	-0.867188	0.616211	-0.086426	0.477846	-0.446336	-0.443257	-0.613164
23766		9.551312	1.145775	2.034602	0.007483	-0.001025	0.000260	-0.867188	0.616211	-0.088623	0.477808	-0.446348	-0.443345	-0.613122
23767		9.549859	1.149764	2.025349	0.010116	0.000475	0.000658	-0.869385	0.618408	-0.091064	0.477813	-0.446317	-0.443443	-0.613069
23768		9.544123	1.125040	2.005596	0.004269	0.002547	0.000836	-0.867188	0.616211	-0.088623	0.477812	-0.446294	-0.443479	-0.613061
23769		9.546450	1.176674	1.984591	0.005755	0.007634	0.000206	-0.869385	0.614258	-0.095215	0.477829	-0.446233	-0.443504	-0.613074
23770		9.553313	1.177673	2.006996	0.004505	0.008961	0.002400	-0.865234	0.618408	-0.091064	0.477894	-0.446113	-0.443524	-0.613096
23771		9.553108	1.158945	2.065607	-0.000981	0.009250	0.001312	-0.873779	0.618408	-0.091064	0.477924	-0.446083	-0.443467	-0.613136
23772		9.567367	1.140408	2.100063	0.002556	0.004024	0.002662	-0.867432	0.618408	-0.086670	0.477911	-0.446068	-0.443480	-0.613147
23773		9.543966	1.180768	2.046549	0.000210	0.001627	0.002521	-0.867432	0.620605	-0.093262	0.477871	-0.446130	-0.443470	-0.613140
23774		9.568657	1.153813	2.053240	0.005556	-0.000166	0.005165	-0.869629	0.620605	-0.091064	0.477925	-0.446145	-0.443494	-0.613070
23775		9.542735	1.161614	1.996969	0.001886	0.000280	0.003884	-0.869385	0.616211	-0.090820	0.477925	-0.446185	-0.443497	-0.613039
23776		9.551627	1.137694	2.018331	0.000460	0.000860	0.005966	-0.867188	0.616211	-0.088623	0.477922	-0.446221	-0.443498	-0.613015
23777		9.560292	1.154316	2.056454	0.006049	0.002833	0.003833	-0.865234	0.618408	-0.091064	0.477941	-0.446215	-0.443534	-0.612978
23778		9.552830	1.170616	1.980295	0.000594	0.005643	0.005896	-0.865234	0.618408	-0.084473	0.477993	-0.446226	-0.443488	-0.612963
23779		9.544322	1.115305	2.057025	0.000521	0.007158	0.002563	-0.862549	0.607910	-0.088379	0.477981	-0.446260	-0.443443	-0.612979
23780		9.533944	1.141900	2.060494	-0.000970	0.003709	0.003936	-0.869385	0.618408	-0.088867	0.477960	-0.446257	-0.443454	-0.612991
23781		9.625840	1.170207	2.037018	0.000560	0.004762	0.003487	-0.871582	0.618408	-0.088867	0.477953	-0.446273	-0.443433	-0.613000
23782		9.548148	1.141265	2.071205	-0.000684	0.002812	0.004194	-0.867188	0.614258	-0.090820	0.477924	-0.446312	-0.443415	-0.613007
23783		9.536655	1.131028	2.048330	-0.000964	0.000431	0.002450	-0.864990	0.614258	-0.088623	0.477888	-0.446331	-0.443433	-0.613008
23784		9.515175	1.129272	2.051070	-0.000958	-0.002848	0.000964	-0.867188	0.614258	-0.090820	0.477819	-0.446386	-0.443472	-0.612993
23785		9.552568	1.166444	2.017074	0.001212	-0.001198	0.000995	-0.867432	0.618408	-0.084473	0.477778	-0.446395	-0.443524	-0.612981
23786		9.588767	1.130210	2.071123	0.003737	0.001946	0.001249	-0.864990	0.614258	-0.088623	0.477740	-0.446435	-0.443545	-0.612967
23787		9.568527	1.164901	2.066884	0.006951	-0.003268	-0.000066	-0.869385	0.618408	-0.091064	0.477708	-0.446438	-0.443652	-0.612912
23788		9.541310	1.158289	2.024951	0.007591	-0.002670	0.000414	-0.869629	0.620605	-0.084473	0.477697	-0.446431	-0.443749	-0.612856
23789		9.542972	1.134707	2.024865	0.006308	-0.002224	0.000197	-0.865234	0.620605	-0.084473	0.477641	-0.446487	-0.443813	-0.612811
23790		9.547377	1.143288	2.026897	0.005488	-0.001928	0.000349	-0.867432	0.618408	-0.088867	0.477605	-0.446551	-0.443861	-0.612759
23791		9.558931	1.150948	1.984795	0.007412	-0.001776	0.001046	-0.869385	0.614258	-0.090820	0.477599	-0.446559	-0.443940	-0.612700
23792		9.567588	1.167526	1.989897	0.001210	0.000442	0.001738	-0.869629	0.620605	-0.086670	0.477569	-0.446555	-0.443981	-0.612697
23793		9.550318	1.173824	1.995915	-0.001216	0.002213	0.004602	-0.865234	0.620605	-0.088867	0.477548	-0.446627	-0.443941	-0.612689
23794		9.544649	1.149806	2.041579	-0.001895	0.004011	0.003197	-0.871826	0.620605	-0.086670	0.477557	-0.446669	-0.443889	-0.612689
23795		9.557451	1.173057	2.017981	0.000317	0.001626	0.003410	-0.869385	0.612061	-0.082031	0.477524	-0.446725	-0.443877	-0.612683
23796		9.540364	1.139818	2.039762	0.000425	-0.000018	0.003557	-0.869385	0.618408	-0.088867	0.477440	-0.446791	-0.443904	-0.612682
23797		9.569255	1.140170	2.025016	-0.000645	0.000419	0.005118	-0.871338	0.614014	-0.090820	0.477427	-0.446846	-0.443891	-0.612660
23798		9.547560	1.176346	1.980041	-0.000503	0.001922	0.003562	-0.865234	0.618408	-0.088867	0.477404	-0.446843	-0.443907	-0.612670
23799		9.553212	1.179168	1.960226	0.001843	0.005959	0.004446	-0.863037	0.620605	-0.084473	0.477450	-0.446840	-0.443877	-0.612657
23800		9.533143	1.113970	2.013767	-0.008133	0.006368	0.007076	-0.867432	0.622803	-0.086670	0.477450	-0.446953	-0.443734	-0.612679
23801		9.548793	1.151344	2.081806	0.002129	0.005062	0.004705	-0.869385	0.616211	-0.090820	0.477483	-0.446987	-0.443693	-0.612657
23802		9.557418	1.126820	2.071471	0.003950	0.001937	0.003028	-0.869385	0.618408	-0.091064	0.477494	-0.446964	-0.443734	-0.612635
23803		9.578840	1.185515	1.996196	0.004309	0.000151	0.001765	-0.869385	0.614258	-0.086426	0.477495	-0.446955	-0.443786	-0.612604
23804		9.538687	1.135635	2.036214	-0.001323	0.002220	0.003713	-0.869385	0.616211	-0.088623	0.477451	-0.446988	-0.443783	-0.612617
23805		9.540229	1.111244	2.037015	0.003491	-0.001193	0.001174	-0.869385	0.618408	-0.088867	0.477415	-0.446998	-0.443845	-0.612593
23806		9.527196	1.164213	1.964318	0.007587	-0.001033	0.001161	-0.865234	0.618408	-0.086670	0.477411	-0.446988	-0.443929	-0.612541
23807		9.541679	1.146231	1.997078	0.007657	0.001360	0.001125	-0.865234	0.616211	-0.084229	0.477426	-0.446980	-0.443989	-0.612492
23808		9.567660	1.117390	2.045172	0.004380	0.000904	0.000988	-0.867188	0.614258	-0.088623	0.477397	-0.447002	-0.444033	-0.612467
23809		9.577653	1.150158	2.035117	0.009906	-0.001160	-0.001848	-0.865234	0.618408	-0.088867	0.477380	-0.446951	-0.444165	-0.612422
23810		9.550180	1.183163	1.977936	0.002457	0.000753	0.000289	-0.867432	0.620605	-0.091064	0.477370	-0.446959	-0.444196	-0.612401
23811		9.540139	1.131751	2.012324	0.005804	0.003602	0.000391	-0.869629	0.618408	-0.082275	0.477406	-0.446918	-0.444234	-0.612376
23812		9.531410	1.154469	1.991172	0.005057	-0.000893	0.002394	-0.869385	0.618408	-0.086670	0.477360	-0.446976	-0.444280	-0.612336
23813		9.534345	1.145894	1.976680	0.002384	0.001643	0.001810	-0.871582	0.618408	-0.088867	0.477337	-0.446996	-0.444300	-0.612324
23814		9.547214	1.170328	1.985267	-0.004528	0.002516	0.002795	-0.865234	0.616211	-0.086426	0.477293	-0.447039	-0.444264	-0.612354
23815		9.554399	1.150204	1.998496	-0.003248	0.003712	0.003755	-0.867188	0.616211	-0.088623	0.477275	-0.447085	-0.444220	-0.612366
23816		9.551389	1.156496	1.981696	-0.000256	0.005066	0.003636	-0.864990	0.612061	-0.088623	0.477285	-0.447084	-0.444200	-0.612374
23817		9.545481	1.150717	1.971438	-0.003072	0.006101	0.004609	-0.867432	0.620605	-0.088867	0.477290	-0.447083	-0.444159	-0.612400
23818		9.542371	1.158877	2.019913	-0.001183	0.007008	0.003640	-0.863037	0.618408	-0.086670	0.477320	-0.447087	-0.444104	-0.612413
23819		9.550941	1.155630	2.050163	0.006159	-0.000447	0.003246	-0.869385	0.616211	-0.088623	0.477344	-0.447113	-0.444151	-0.612342
23820		9.555359	1.161357	1.988025	0.004341	0.001040	0.004178	-0.869141	0.609863	-0.079834	0.477352	-0.447116	-0.444190	-0.612305
23821		9.554003	1.144934	2.003406	0.003521	0.001337	0.004329	-0.869385	0.618408	-0.088867	0.477290	-0.447156	-0.444229	-0.612296
23822		9.535333	1.153837	1.967975	0.001598	0.001186	0.003630	-0.867188	0.616211	-0.084229	0.477289	-0.447176	-0.444242	-0.612272
23823		9.555534	1.138646	1.980568	-0.000504	0.001928	0.003562	-0.867432	0.620605	-0.086670	0.477255	-0.447227	-0.444232	-0.612269
23824		9.561235	1.123360	2.017109	0.005124	0.004782	0.003845	-0.862793	0.614258	-0.086426	0.477297	-0.447224	-0.444236	-0.612236
23825		9.573973	1.146791	1.994103	0.001350	0.006872	0.002409	-0.869385	0.616211	-0.086426	0.477317	-0.447202	-0.444223	-0.612246
23826		9.549234	1.152130	1.980835	-0.003104	0.006860	0.002939	-0.867432	0.618408	-0.088867	0.477295	-0.447211	-0.444175	-0.612292
23827		9.521671	1.107002	2.021954	-0.003743	0.004621	0.001716	-0.871338	0.612061	-0.088623	0.477276	-0.447228	-0.444136	-0.612322
23828		9.528697	1.126030	1.987055	0.004167	0.004194	0.000697	-0.869629	0.620605	-0.084473	0.477256	-0.447169	-0.444193	-0.612339
23829		9.532784	1.134471	1.990747	0.001960	0.004941	-0.000262	-0.871826	0.624756	-0.086914	0.477229	-0.447173	-0.444194	-0.612357
23830		9.561271	1.117966	2.033649	0.004028	0.004952	-0.001861	-0.867432	0.620605	-0.088867	0.477219	-0.447153	-0.444212	-0.612366
23831		9.582634	1.160136	2.047650	-0.002028	-0.000149	-0.001590	-0.865234	0.618408	-0.088867	0.477164	-0.447187	-0.444225	-0.612374
23832		9.549541	1.167910	1.970978	0.001710	0.001800	-0.000337	-0.871582	0.616211	-0.088623	0.477155	-0.447185	-0.444252	-0.612364
23833		9.529230	1.182694	1.959207	0.006415	0.003312	-0.001532	-0.871582	0.616211	-0.086426	0.477139	-0.447124	-0.444328	-0.612365
23834		9.527615	1.107640	1.983161	0.001885	0.005834	0.001259	-0.867188	0.616211	-0.086426	0.477121	-0.447100	-0.444335	-0.612391
23835		9.537333	1.139847	1.975002	0.004309	0.008984	0.000625	-0.867188	0.616211	-0.084229	0.477147	-0.447040	-0.444339	-0.612412
23836		9.539763	1.191121	1.954949	-0.003707	0.009413	0.000751	-0.867432	0.618408	-0.088867	0.477119	-0.447038	-0.444275	-0.612482
23837		9.552267	1.136763	1.997338	-0.002142	0.009713	0.001973	-0.862793	0.612061	-0.086426	0.477141	-0.447012	-0.444215	-0.612527
23838		9.538750	1.152791	2.040396	0.001492	0.010023	0.001597	-0.865234	0.618408	-0.093018	0.477168	-0.446956	-0.444195	-0.612561
23839		9.548549	1.183107	2.000421	-0.006175	0.008047	0.005316	-0.871582	0.618408	-0.084473	0.477214	-0.446963	-0.444101	-0.612589
23840		9.548272	1.142199	2.018502	0.000379	0.008960	0.005604	-0.865234	0.618408	-0.086670	0.477233	-0.446971	-0.444042	-0.612611
23841		9.555261	1.160425	1.984624	-0.001930	0.008067	0.003011	-0.871582	0.618408	-0.088867	0.477250	-0.446977	-0.443982	-0.612637
23842		9.546153	1.144083	2.013866	0.003236	0.011074	0.002934	-0.871582	0.616211	-0.086426	0.477298	-0.446910	-0.443956	-0.612666
23843		9.545857	1.162453	1.991941	0.002018	0.008369	0.005307	-0.865234	0.618408	-0.080078	0.477324	-0.446893	-0.443926	-0.612682
23844		9.549786	1.130206	2.012859	0.001628	0.010916	0.004902	-0.869385	0.618408	-0.091064	0.477353	-0.446907	-0.443853	-0.612701
23845		9.556588	1.149460	2.011817	0.002448	0.010620	0.004753	-0.864990	0.614258	-0.088623	0.477426	-0.446849	-0.443815	-0.612714
23846		9.520278	1.165470	1.984245	-0.001321	0.011070	0.002568	-0.871826	0.620605	-0.086670	0.477454	-0.446804	-0.443761	-0.612764
23847		9.557234	1.122931	1.985616	-0.002321	0.012265	0.003349	-0.867432	0.618408	-0.086670	0.477472	-0.446786	-0.443672	-0.612828
23848		9.575064	1.153427	2.073119	-0.008667	0.011351	0.004835	-0.865234	0.620605	-0.086670	0.477469	-0.446819	-0.443534	-0.612906
23849		9.508438	1.092686	2.082727	-0.007408	0.005078	0.000415	-0.863037	0.616455	-0.090820	0.477419	-0.446876	-0.443458	-0.612958
23850		9.525740	1.104907	2.053520	0.004531	-0.000884	-0.002042	-0.869385	0.618408	-0.086670	0.477402	-0.446858	-0.443541	-0.612925
23851		9.544790	1.172260	1.992432	-0.003173	-0.000458	0.000742	-0.871582	0.616211	-0.088623	0.477327	-0.446922	-0.443540	-0.612937
23852		9.476799	1.098754	2.079293	0.001954	-0.003894	0.000885	-0.867432	0.618408	-0.084473	0.477260	-0.446962	-0.443611	-0.612908
23853		9.443158	1.056453	2.298553	0.013111	-0.018536	-0.003472	-0.867188	0.616211	-0.084229	0.477142	-0.447057	-0.443860	-0.612751
23854		9.806053	1.297733	2.319745	0.034453	-0.044070	-0.008243	-0.867432	0.618408	-0.088867	0.476960	-0.447187	-0.444454	-0.612367
23855		9.592483	1.195635	1.809919	0.015923	-0.045441	-0.005841	-0.867432	0.618408	-0.086670	0.476719	-0.447430	-0.444903	-0.612052
23856		9.477664	1.207453	1.600588	0.013712	-0.021055	-0.001274	-0.867432	0.622803	-0.088867	0.476630	-0.447533	-0.445162	-0.611857
23857		9.490896	1.213272	1.663650	-0.019396	0.007255	0.009448	-0.867432	0.618408	-0.086670	0.476622	-0.447676	-0.444933	-0.611925
23858		9.560538	1.145373	1.864871	-0.004174	0.027649	0.008534	-0.863037	0.620605	-0.088867	0.476782	-0.447563	-0.444716	-0.612040
23859		9.556151	1.153215	1.919566	0.016286	0.039687	0.006439	-0.865479	0.622803	-0.086670	0.477137	-0.447226	-0.444591	-0.612102
23860		9.551185	1.202476	2.024534	-0.000966	0.041151	0.010538	-0.865479	0.622803	-0.086670	0.477416	-0.447024	-0.444293	-0.612248
23861		9.570422	1.166506	2.208149	-0.007680	0.029912	0.012954	-0.867432	0.620605	-0.086670	0.477609	-0.446964	-0.443996	-0.612356
23862		9.564985	1.016584	2.218205	0.014174	0.014551	0.004981	-0.867432	0.620605	-0.088867	0.477760	-0.446840	-0.444011	-0.612318
23863		9.570238	1.117407	2.004700	0.014492	0.004670	0.003199	-0.864990	0.616455	-0.090820	0.477853	-0.446770	-0.444098	-0.612234
23864		9.540449	1.175574	1.906732	-0.002540	0.008377	0.004934	-0.873779	0.616211	-0.084473	0.477888	-0.446763	-0.444035	-0.612257
23865		9.542105	1.130732	2.040420	-0.003287	0.012721	0.005788	-0.863037	0.616455	-0.088623	0.477889	-0.446758	-0.443935	-0.612333
23866		9.570246	1.152990	2.100921	0.003225	0.005542	0.005569	-0.865234	0.618408	-0.088867	0.477942	-0.446755	-0.443924	-0.612301
23867		9.582122	1.138232	2.020144	0.009292	0.005709	0.003089	-0.865234	0.622803	-0.091064	0.478008	-0.446704	-0.443971	-0.612253
23868		9.567942	1.134679	1.947977	0.006165	0.008404	0.002123	-0.865234	0.620605	-0.088867	0.478086	-0.446648	-0.443975	-0.612230
23869		9.541570	1.144800	1.958656	0.000068	0.012286	0.004417	-0.869385	0.618408	-0.088867	0.478152	-0.446617	-0.443898	-0.612256
23870		9.605283	1.109143	2.034439	-0.019395	0.014496	0.007511	-0.865479	0.622803	-0.086670	0.478124	-0.446693	-0.443652	-0.612401
23871		9.496199	1.123908	2.124533	-0.001747	0.008839	0.003119	-0.869141	0.612061	-0.086426	0.478146	-0.446709	-0.443581	-0.612424
23872		9.545256	1.068849	2.074732	0.000717	-0.000297	-0.001038	-0.867188	0.614258	-0.079834	0.478053	-0.446724	-0.443636	-0.612445
23873		9.547299	1.163197	2.027203	-0.005351	-0.002109	0.000696	-0.864990	0.616455	-0.090820	0.477915	-0.446841	-0.443626	-0.612476
23874		9.543139	1.154618	2.023913	-0.001252	-0.003601	-0.000041	-0.864990	0.616455	-0.088623	0.477850	-0.446891	-0.443673	-0.612456
23875		9.565726	1.094896	2.101290	0.004947	-0.007487	-0.001445	-0.867188	0.616211	-0.088623	0.477779	-0.446936	-0.443795	-0.612390
23876		9.556465	1.122187	2.067904	0.009716	-0.015720	-0.003000	-0.867432	0.618408	-0.091064	0.477670	-0.447003	-0.444013	-0.612267
23877		9.550044	1.143815	2.082964	0.013665	-0.022003	-0.003663	-0.863281	0.622803	-0.091064	0.477562	-0.447084	-0.444302	-0.612083
23878		9.504829	1.113022	2.144547	0.020589	-0.032473	-0.001797	-0.871826	0.622559	-0.086914	0.477477	-0.447229	-0.444682	-0.611768
23879		9.513677	1.078801	2.235177	0.026266	-0.053111	-0.002926	-0.867188	0.616211	-0.082275	0.477256	-0.447502	-0.445234	-0.611339
23880		9.352953	1.074574	2.431424	0.026417	-0.096624	-0.000186	-0.865234	0.620605	-0.084473	0.476795	-0.448128	-0.446033	-0.610658
23881		9.350116	0.896315	2.702047	0.063093	-0.154830	-0.004271	-0.860840	0.614258	-0.082031	0.476218	-0.448949	-0.447472	-0.609451
23882		9.458292	1.109861	2.720168	0.132831	-0.229696	-0.020993	-0.861084	0.620605	-0.077881	0.475481	-0.449815	-0.449984	-0.607535
23883		9.419927	1.116272	2.658989	0.113143	-0.316092	-0.023212	-0.856689	0.620605	-0.080078	0.474139	-0.451461	-0.452842	-0.605235
23884		9.394627	0.926349	2.806708	0.128026	-0.414119	-0.033578	-0.850342	0.620605	-0.064941	0.472288	-0.453660	-0.456445	-0.602324
23885		9.406449	0.678702	3.388319	0.183272	-0.545045	-0.052845	-0.848389	0.622803	-0.056152	0.469828	-0.456440	-0.461301	-0.598437
23886		9.525487	0.978738	3.421027	0.274257	-0.695327	-0.075428	-0.843994	0.622803	-0.047607	0.466839	-0.459658	-0.467798	-0.593247
23887		9.221802	1.416227	3.575628	0.215360	-0.911225	-0.076586	-0.831299	0.622803	-0.030029	0.462218	-0.464760	-0.475062	-0.587085
23888		9.097363	1.671754	3.924325	0.223227	-1.174351	-0.058388	-0.825195	0.629395	-0.008545	0.456102	-0.471761	-0.483714	-0.579167
23889		8.719567	0.678751	2.749079	0.449320	-1.362197	-0.080046	-0.801758	0.631592	0.009033	0.449816	-0.478530	-0.495081	-0.568832
23890		7.888802	0.869841	1.853691	0.665090	-1.531539	-0.107458	-0.787109	0.640137	0.023926	0.443406	-0.484931	-0.508906	-0.556101
23891		8.053659	1.196749	2.846520	0.316753	-1.806311	-0.072697	-0.770020	0.638184	0.052490	0.433174	-0.495154	-0.521378	-0.543459
23892		8.275495	0.182455	3.435722	0.185153	-2.125452	-0.103562	-0.740234	0.642578	0.084961	0.419575	-0.507749	-0.534539	-0.529543
23893		6.653629	0.250631	-2.442252	0.449761	-2.132351	-0.097493	-0.712646	0.651367	0.110840	0.407318	-0.518710	-0.549007	-0.513443
23894		5.694686	0.822889	-7.244223	0.052569	-1.858382	-0.079504	-0.680664	0.649414	0.139404	0.394225	-0.529728	-0.559073	-0.501410
23895		10.976283	-1.114549	-1.185193	-0.015342	-1.699762	-0.257256	-0.665527	0.645264	0.156982	0.380485	-0.538575	-0.568863	-0.491490
23896		9.097800	-0.634591	-0.124027	0.443088	-1.763034	-0.434213	-0.635742	0.649902	0.180908	0.368106	-0.544107	-0.582667	-0.478481
23897		1.062126	3.071593	-9.501794	0.594632	-1.347735	-0.322910	-0.625244	0.654053	0.187256	0.360285	-0.547030	-0.594436	-0.466475
23898		7.328150	2.193653	-9.064293	0.131324	-0.694890	-0.129006	-0.612305	0.654297	0.193848	0.355199	-0.549541	-0.599160	-0.461352
23899		10.843195	2.453268	-5.503134	0.342748	-0.346108	-0.169765	-0.610352	0.656494	0.200439	0.353919	-0.548753	-0.603834	-0.457160
23900		5.180285	3.166890	-11.885479	0.119544	0.263803	-0.022003	-0.616699	0.660645	0.187012	0.356546	-0.546565	-0.603514	-0.458162
23901		10.499403	2.404162	-14.401493	0.411280	1.352378	0.108596	-0.638428	0.669189	0.169189	0.370067	-0.537724	-0.599076	-0.463693
23902		12.866085	1.521265	-16.419106	0.307797	2.477389	0.149584	-0.677246	0.677490	0.125244	0.391317	-0.522794	-0.588231	-0.477013
23903		21.051219	6.060168	-8.839901	-0.843286	3.206189	0.347689	-0.719238	0.657715	0.093262	0.411067	-0.509895	-0.564939	-0.501872
23904		20.467234	6.070680	3.319838	-2.219830	3.248112	0.567872	-0.769531	0.623047	0.066162	0.422871	-0.504302	-0.530244	-0.534510
23905		10.889596	-0.852702	3.097504	-2.985124	3.331140	0.517231	-0.813232	0.590820	0.036621	0.428997	-0.500367	-0.488917	-0.571449
23906		5.242176	-4.312702	5.532460	-1.635465	3.074268	0.326110	-0.846680	0.573486	-0.010742	0.439559	-0.488630	-0.458521	-0.598153
23907		-0.031873	-1.474476	4.055640	-0.271544	2.135273	0.202936	-0.872070	0.566895	-0.036621	0.451547	-0.475115	-0.443548	-0.611258
23908		-1.539952	-0.644983	3.725001	-0.477637	0.406830	0.218975	-0.869629	0.562744	-0.047363	0.452621	-0.475911	-0.436415	-0.614967
23909		-0.318470	-0.248320	5.723243	-0.169915	0.036600	0.146263	-0.875977	0.556152	-0.044922	0.452929	-0.477397	-0.434137	-0.615201
23910		0.101606	-0.581600	4.288120	0.159852	-0.281128	-0.022662	-0.871826	0.560547	-0.038574	0.452164	-0.478538	-0.437160	-0.612731
23911		0.391065	0.078599	3.686448	0.479067	-0.352075	-0.187561	-0.869629	0.560547	-0.036377	0.451641	-0.477494	-0.443978	-0.609018
23912		-0.113227	0.261859	4.130091	0.430640	-0.372553	-0.247751	-0.869873	0.564697	-0.034424	0.450239	-0.476505	-0.450867	-0.605761
23913		0.130782	-0.009737	4.890302	0.465602	-0.472426	-0.255916	-0.861328	0.564697	-0.032227	0.448424	-0.475964	-0.458608	-0.601708
23914		0.370475	0.600066	5.438045	0.354471	-0.724206	-0.213012	-0.850830	0.571289	-0.010498	0.444879	-0.478062	-0.466679	-0.596448
23915		0.459839	-0.287555	4.850881	0.599124	-1.038349	-0.216628	-0.842529	0.575684	-0.004150	0.440860	-0.481028	-0.478248	-0.587820
23916		0.312807	0.128513	-2.592366	1.638137	-2.902675	-0.352723	-0.800781	0.599365	0.042969	0.430570	-0.490599	-0.508109	-0.561914
23917		15.813723	-1.050222	4.362876	1.219564	-3.125060	-0.165343	-0.763428	0.633789	0.078613	0.416789	-0.504346	-0.534169	-0.535337
23918		21.621912	1.361503	-6.667124	2.768421	-2.201158	-0.262582	-0.730225	0.662109	0.084229	0.417313	-0.502450	-0.565181	-0.503949
23919		23.770416	2.569467	-14.690575	0.438369	-1.407314	0.083250	-0.705078	0.675049	0.101318	0.410518	-0.509572	-0.574585	-0.491593
23920		20.845803	8.103503	-22.828028	0.009764	-0.157495	0.017816	-0.709229	0.672852	0.099121	0.409502	-0.510647	-0.575317	-0.490468
23921		16.523405	6.458080	-23.541226	-1.179490	1.605024	0.361327	-0.732178	0.655518	0.095459	0.415547	-0.509291	-0.557458	-0.507133
23922		20.393178	3.865672	-10.096272	-2.314370	2.913885	0.560127	-0.771729	0.625244	0.063721	0.424168	-0.506182	-0.523671	-0.538173
23923		16.513602	1.193978	1.467171	-3.597507	3.415265	0.671172	-0.814941	0.580078	0.039307	0.427544	-0.505591	-0.476478	-0.578406
23924		8.733531	-6.372403	8.811074	-3.389137	3.463887	0.866357	-0.850098	0.545410	0.005615	0.432321	-0.502797	-0.427453	-0.614474
23925		-0.846851	-5.907803	5.688797	-0.748085	2.011951	0.577384	-0.869141	0.545410	-0.020508	0.442682	-0.494270	-0.407261	-0.627589
23926		-1.905454	0.932444	3.411812	-0.728479	-0.476491	0.410728	-0.854248	0.543457	-0.000732	0.438919	-0.504133	-0.401745	-0.625940
23927		0.651925	-0.992605	4.300350	-0.322881	-0.943754	0.162334	-0.849609	0.536865	0.006104	0.433348	-0.514100	-0.403451	-0.620595
23928		0.108478	1.279532	4.325721	0.522015	-0.843081	-0.110492	-0.837158	0.545654	0.016602	0.431523	-0.517250	-0.412830	-0.613035
23929		0.211344	0.963803	4.948840	0.838489	-0.893411	-0.261367	-0.822266	0.545654	0.023193	0.430235	-0.518193	-0.425777	-0.604225
23930		0.061258	1.664979	5.084372	0.792648	-1.071654	-0.315557	-0.816406	0.558594	0.044434	0.427297	-0.520203	-0.439643	-0.594575
23931		0.280759	1.984980	4.698858	0.413470	-1.264724	-0.273998	-0.795166	0.562988	0.063965	0.421087	-0.525683	-0.451371	-0.585326
23932		0.224996	2.342480	4.586229	-0.078750	-1.420660	-0.167039	-0.775635	0.554443	0.092773	0.411550	-0.535218	-0.459594	-0.577011
23933		-1.491105	1.755067	1.362188	-0.550659	-1.808135	-0.047608	-0.741455	0.554688	0.125488	0.397279	-0.550432	-0.465383	-0.567990
23934		5.877634	-5.660039	-1.270902	0.261912	-2.703249	-0.178093	-0.692871	0.574219	0.170654	0.382160	-0.566678	-0.481956	-0.548223
23935		15.379414	-1.422268	5.655736	1.359231	-2.919295	-0.182960	-0.640381	0.598389	0.196045	0.372581	-0.578654	-0.506077	-0.519836
23936		22.957560	-5.064618	-7.443945	1.938722	-1.994307	0.077709	-0.600830	0.633057	0.208008	0.374210	-0.582761	-0.527013	-0.492558
23937		20.667028	3.581276	-15.910372	0.510441	-1.446593	-0.173845	-0.577637	0.645996	0.220459	0.367208	-0.588064	-0.538019	-0.479452
23938		17.190120	4.925605	-20.304089	1.206094	-0.075322	-0.763631	-0.589111	0.663086	0.202393	0.370879	-0.577779	-0.551105	-0.474240
23939		13.679093	7.477016	-21.674608	0.168191	1.590203	-0.178970	-0.621094	0.658447	0.180664	0.381858	-0.566236	-0.545976	-0.485253
23940		21.779043	11.918727	-11.305343	-0.462758	2.969912	0.136102	-0.665283	0.641113	0.144287	0.399354	-0.550964	-0.527805	-0.508307
23941		21.945705	6.633542	3.199234	-1.942684	3.283813	0.257417	-0.726074	0.604248	0.112793	0.408772	-0.540871	-0.496906	-0.541709
23942		11.221360	-5.608936	9.795570	-1.782897	3.285870	0.074264	-0.780518	0.571777	0.070312	0.417239	-0.527535	-0.467280	-0.573818
23943		3.036772	-5.198698	6.361486	-0.451990	2.566407	-0.137152	-0.820801	0.564941	0.029053	0.428063	-0.510377	-0.451478	-0.593671
23944		-1.007399	-0.863129	3.937369	0.744742	1.332146	-0.282318	-0.839844	0.562744	0.007324	0.438156	-0.494808	-0.451698	-0.599293
23945		-0.830873	1.166226	1.469331	0.127100	0.432686	-0.040459	-0.848389	0.558350	-0.001465	0.441057	-0.490636	-0.450596	-0.601421
23946		0.625873	0.057854	3.257263	-0.283660	0.755183	0.153763	-0.854492	0.556152	-0.016602	0.444689	-0.487362	-0.443403	-0.606733
23947		0.094792	0.755838	3.913929	-0.526092	0.950961	0.242444	-0.869629	0.553955	-0.025146	0.448547	-0.484360	-0.432670	-0.614001
23948		0.125459	0.301264	4.289786	-0.698127	0.874817	0.287818	-0.871582	0.551758	-0.033936	0.451214	-0.483050	-0.420668	-0.621375
23949		-0.039462	0.921915	5.300596	-0.250731	0.729683	0.103824	-0.884521	0.553955	-0.049316	0.454347	-0.479284	-0.414003	-0.626464
23950		-1.191611	0.123768	4.857883	-0.188859	0.376476	-0.053276	-0.886719	0.556152	-0.049316	0.454804	-0.477059	-0.410748	-0.629964
23951		-1.683942	-1.850551	3.047470	1.064081	-0.266675	-0.488730	-0.880371	0.558350	-0.047119	0.455896	-0.470504	-0.423510	-0.625639
23952		0.866090	-0.147230	-8.244535	2.470700	-2.891842	-0.780402	-0.851318	0.579834	-0.008789	0.448452	-0.474340	-0.463347	-0.599334
23953		15.938654	0.758705	-1.772223	0.135323	-2.516496	-0.153173	-0.815186	0.588623	0.039062	0.433313	-0.491277	-0.479165	-0.584199
23954		27.745308	-15.529469	7.544540	1.200321	-1.740492	0.022938	-0.788086	0.607910	0.057861	0.430330	-0.497373	-0.497135	-0.565945
23955		34.111324	8.399209	5.882084	2.391687	-1.939191	-0.763608	-0.773926	0.631592	0.054688	0.427467	-0.493016	-0.528884	-0.542668
23956		6.866978	15.505646	-18.038464	2.831825	-1.273786	-0.728742	-0.760010	0.657471	0.049561	0.431147	-0.481361	-0.558874	-0.519677
23957		-0.067785	3.352334	-19.783330	-1.131967	0.163639	0.303982	-0.765869	0.644531	0.060791	0.427344	-0.488491	-0.548747	-0.526907
23958		10.832268	-1.264931	-7.486864	-1.578502	1.278149	0.422769	-0.778320	0.629395	0.057129	0.429062	-0.491250	-0.528852	-0.543043
23959		11.559346	-0.839629	-0.006527	-0.332140	1.535854	-0.043900	-0.792969	0.625244	0.033203	0.436752	-0.482233	-0.518651	-0.554708
23960		7.834452	2.610702	-0.398681	-0.305107	1.514267	-0.066700	-0.816162	0.618652	0.007324	0.444197	-0.472849	-0.508738	-0.565940
23961		7.326548	0.275082	2.071652	0.019170	1.412830	-0.087941	-0.831299	0.618408	-0.010254	0.452619	-0.462087	-0.501636	-0.574432
23962		6.901887	1.681889	5.523227	-0.236997	1.137717	0.012929	-0.841797	0.614258	-0.029785	0.458402	-0.455304	-0.493489	-0.582266
23963		8.316567	1.352066	7.257293	-0.404623	0.689894	0.180215	-0.845947	0.612061	-0.038330	0.461604	-0.453709	-0.485629	-0.587566
23964		9.076918	1.919760	4.661689	0.016206	0.519985	0.052105	-0.850098	0.612061	-0.049316	0.465176	-0.450127	-0.482498	-0.590078
23965		11.011916	-0.722024	2.271041	0.603523	0.288581	-0.000096	-0.848389	0.622803	-0.058350	0.470240	-0.444500	-0.485294	-0.588034
23966		9.801946	3.691571	1.644666	0.351886	0.204442	0.032996	-0.852783	0.625000	-0.062744	0.473602	-0.441163	-0.486510	-0.586843
23967		9.232915	3.817642	1.369469	-0.103015	0.146885	0.132157	-0.857178	0.629150	-0.069580	0.474809	-0.441548	-0.484163	-0.587518
23968		9.384707	2.743087	1.894745	-0.257278	0.149029	0.192946	-0.853027	0.635742	-0.072021	0.475629	-0.443183	-0.480340	-0.588761
23969		9.420143	0.835965	1.104435	-0.202433	0.155038	0.207990	-0.852539	0.625000	-0.067139	0.476900	-0.444521	-0.476800	-0.589601
23970		9.411327	-0.537909	1.148208	-0.168831	0.174867	0.177954	-0.850586	0.629150	-0.067383	0.478232	-0.445339	-0.473537	-0.590533
23971		9.442616	0.095600	2.229773	0.034407	0.195582	0.133398	-0.857178	0.635742	-0.076416	0.480484	-0.444523	-0.471892	-0.590637
23972		9.325619	1.162784	2.272651	0.150975	0.230386	0.146623	-0.859619	0.637695	-0.080811	0.483690	-0.442816	-0.470824	-0.590155
23973		9.345638	1.832733	1.828568	0.081433	0.148981	0.153625	-0.861816	0.642090	-0.087646	0.486095	-0.442152	-0.469700	-0.589572
23974		9.441539	0.212218	1.329324	0.033914	0.086409	0.129009	-0.855713	0.650635	-0.083496	0.487685	-0.442091	-0.468739	-0.589069
23975		9.481159	-0.855994	2.000288	0.143965	0.040119	0.046068	-0.855469	0.646484	-0.089844	0.489000	-0.441212	-0.469328	-0.588168
23976		9.838594	-0.277899	2.161925	0.174922	0.057398	0.004056	-0.862061	0.650635	-0.090088	0.490277	-0.439770	-0.470266	-0.587435
23977		10.002224	1.095780	1.862839	0.177498	0.047280	-0.057475	-0.857666	0.648438	-0.092041	0.491055	-0.438024	-0.471618	-0.587007
23978		9.846131	1.317034	1.867309	-0.094827	0.002876	-0.059249	-0.859863	0.646240	-0.087646	0.490064	-0.438262	-0.471251	-0.587951
23979		9.430335	0.765346	1.935974	-0.336243	-0.050731	-0.063065	-0.865967	0.639893	-0.085205	0.487402	-0.440347	-0.469453	-0.590040
23980		9.759082	0.025217	2.091045	-0.319542	-0.110563	-0.116715	-0.857178	0.635742	-0.080811	0.484075	-0.442447	-0.468428	-0.592019
23981		9.629690	0.833070	1.484017	-0.331776	-0.133510	-0.169195	-0.859131	0.629150	-0.080566	0.480124	-0.444493	-0.467711	-0.594268
23982		9.349541	1.513597	1.548056	-0.392008	-0.133322	-0.172956	-0.858887	0.620605	-0.071533	0.475812	-0.446853	-0.466564	-0.596861
23983		9.371055	2.000678	2.132720	-0.313093	-0.147046	-0.142269	-0.852539	0.618408	-0.060303	0.472078	-0.449013	-0.465904	-0.598718
23984		9.723685	0.776326	3.027023	-0.136199	-0.197673	-0.137010	-0.858398	0.607666	-0.055664	0.469069	-0.450532	-0.466825	-0.599224
23985		9.712871	0.427447	3.069688	0.017996	-0.329728	-0.132287	-0.852051	0.605713	-0.053467	0.466186	-0.452155	-0.469635	-0.598054
23986		9.423360	0.824658	2.367616	0.156748	-0.459644	-0.108671	-0.852051	0.605469	-0.040283	0.463496	-0.454060	-0.474092	-0.595178
23987		9.588648	1.349094	0.969094	0.343804	-0.493026	0.030756	-0.843750	0.612061	-0.040527	0.462677	-0.455941	-0.479309	-0.590179
23988		9.511221	0.578546	-0.720055	-0.264703	-0.387437	0.403203	-0.837402	0.614258	-0.029785	0.461755	-0.462757	-0.477286	-0.587228
23989		9.496904	-1.997058	-0.490046	-0.182860	-0.003273	0.509196	-0.833496	0.625000	-0.032227	0.464355	-0.466888	-0.473018	-0.585358
23990		8.333720	0.269400	-0.135007	0.365537	0.417704	0.396918	-0.833740	0.633545	-0.037109	0.471808	-0.464060	-0.470958	-0.583305
23991		6.855825	6.374782	-1.088764	0.115956	0.334257	0.138764	-0.829590	0.635742	-0.047852	0.475402	-0.461784	-0.469037	-0.583740
23992		9.056508	7.946982	0.486647	-0.180277	0.238710	0.005474	-0.835693	0.631348	-0.047852	0.475748	-0.461170	-0.466300	-0.586131
23993		10.268553	1.975779	0.693665	-0.095500	0.317778	0.183363	-0.835938	0.637939	-0.050293	0.478331	-0.460502	-0.462683	-0.587420
23994		10.130579	-1.849078	0.364259	-0.627406	0.337130	0.281637	-0.842285	0.633545	-0.056641	0.478654	-0.463418	-0.454454	-0.591274
23995		9.129018	-1.202980	1.820144	-0.217313	0.375624	0.148426	-0.840332	0.635742	-0.056641	0.480571	-0.462804	-0.449782	-0.593768
23996		9.201452	1.290625	3.230822	0.133124	0.321323	0.091169	-0.842285	0.635742	-0.061035	0.483766	-0.460161	-0.448347	-0.594313
23997		9.702083	1.824918	2.983181	0.147435	0.232594	0.111359	-0.842529	0.644287	-0.065674	0.486678	-0.458201	-0.447418	-0.594150
23998		9.912131	1.073395	2.494505	0.227155	0.170780	0.090002	-0.842773	0.646484	-0.074463	0.489531	-0.456091	-0.447566	-0.593317
23999		9.462012	0.248771	1.751057	0.029799	0.108812	0.094641	-0.846924	0.644287	-0.078857	0.490944	-0.455669	-0.446599	-0.593202
24000		9.704592	-0.682243	1.813184	-0.051146	0.083128	0.056447	-0.849121	0.646484	-0.078857	0.491470	-0.455719	-0.445406	-0.593625
24001		9.608395	0.886528	1.435216	-0.054808	0.094923	0.026760	-0.844727	0.642090	-0.081055	0.491819	-0.455539	-0.444280	-0.594317
24002		9.608946	1.005279	1.534813	-0.030348	0.134862	0.028315	-0.849121	0.648682	-0.083496	0.492542	-0.454919	-0.443084	-0.595087
24003		9.508353	0.939944	1.887100	0.042476	0.158863	0.027273	-0.842529	0.646484	-0.083252	0.493802	-0.453664	-0.442288	-0.595592
24004		9.789460	0.346066	2.339107	0.100141	0.150366	0.014651	-0.853516	0.648682	-0.094238	0.495242	-0.452047	-0.442040	-0.595809
24005		9.659795	0.461122	2.566494	0.050168	0.110200	-0.004200	-0.853760	0.655029	-0.092285	0.496053	-0.450921	-0.441784	-0.596178
24006		9.522790	0.520642	2.631621	0.138108	0.062729	-0.034719	-0.851318	0.652832	-0.094482	0.496867	-0.449434	-0.442646	-0.595984
24007		9.562962	0.929835	2.092623	0.069244	0.023593	-0.029782	-0.853271	0.646484	-0.096436	0.497113	-0.448693	-0.443206	-0.595921
24008		9.706052	0.688139	1.856803	0.000586	0.020755	-0.030443	-0.855713	0.650635	-0.098633	0.496953	-0.448395	-0.443275	-0.596227
24009		9.683244	0.531917	2.013232	-0.024708	0.031469	-0.037771	-0.853516	0.650635	-0.094482	0.496657	-0.448133	-0.443131	-0.596778
24010		9.325731	0.883765	2.162169	0.008771	0.020715	-0.047560	-0.857666	0.646484	-0.098633	0.496415	-0.447690	-0.443358	-0.597143
24011		9.449447	0.891150	2.031694	0.043399	0.003558	-0.048602	-0.857666	0.650635	-0.094482	0.496263	-0.447154	-0.443955	-0.597227
24012		9.625990	0.712350	1.916128	0.000559	0.000967	-0.045570	-0.853516	0.648438	-0.089844	0.495880	-0.446920	-0.444231	-0.597516
24013		9.644681	0.729276	1.938751	-0.008221	0.013774	-0.051069	-0.853271	0.644287	-0.096191	0.495478	-0.446614	-0.444392	-0.597958
24014		9.487165	0.999102	1.840341	-0.020651	0.021331	-0.044431	-0.857422	0.644287	-0.094238	0.495098	-0.446365	-0.444377	-0.598469
24015		9.524111	0.774926	2.045048	0.048168	0.025736	-0.049320	-0.855225	0.642090	-0.102783	0.495090	-0.445629	-0.444878	-0.598652
24016		9.648561	0.936524	1.986158	0.070073	0.028350	-0.048818	-0.859619	0.644287	-0.100586	0.495221	-0.444741	-0.445523	-0.598724
24017		9.627111	1.010790	1.797893	0.042583	0.043828	-0.044297	-0.855225	0.639893	-0.098389	0.495320	-0.443933	-0.445841	-0.599006
24018		9.498232	1.026267	1.826843	-0.014867	0.057900	-0.028905	-0.855469	0.646484	-0.094238	0.495293	-0.443459	-0.445557	-0.599590
24019		9.513767	0.790595	2.135673	-0.006467	0.059676	-0.030332	-0.857178	0.637939	-0.098145	0.495311	-0.442913	-0.445333	-0.600144
24020		9.522891	0.911425	2.242202	-0.003915	0.042996	-0.032953	-0.859619	0.642090	-0.098389	0.495231	-0.442461	-0.445246	-0.600608
24021		9.592269	0.943390	2.230714	-0.013742	0.026129	-0.032583	-0.865967	0.642090	-0.100586	0.495006	-0.442198	-0.445187	-0.601032
24022		9.616123	0.897182	2.140104	-0.043435	0.018075	-0.035086	-0.863770	0.637695	-0.104736	0.494552	-0.442165	-0.444967	-0.601592
24023		9.581927	0.957796	2.096750	-0.085579	0.011059	-0.028960	-0.865723	0.633545	-0.100342	0.493872	-0.442480	-0.444440	-0.602309
24024		9.607233	0.922517	2.177402	-0.053170	0.008731	-0.033438	-0.859375	0.635742	-0.095947	0.493324	-0.442586	-0.444195	-0.602860
24025		9.664953	0.886459	2.104139	-0.033273	0.002822	-0.037313	-0.861572	0.637939	-0.104736	0.492823	-0.442593	-0.444157	-0.603292
24026		9.646714	0.925844	2.036842	-0.034739	0.013110	-0.039899	-0.863281	0.629150	-0.097900	0.492352	-0.442516	-0.444059	-0.603805
24027		9.640943	0.942963	2.087976	-0.061042	0.015604	-0.037758	-0.859131	0.629395	-0.104492	0.491766	-0.442595	-0.443735	-0.604463
24028		9.575685	0.895746	2.184688	-0.058878	0.012278	-0.039889	-0.867676	0.626953	-0.095703	0.491146	-0.442679	-0.443453	-0.605111
24029		9.602116	1.035843	2.194127	-0.040086	0.002790	-0.042039	-0.865479	0.629150	-0.102295	0.490571	-0.442702	-0.443389	-0.605609
24030		9.610103	1.086424	2.084789	-0.041737	0.000298	-0.039142	-0.867676	0.629150	-0.093506	0.489995	-0.442769	-0.443311	-0.606083
24031		9.562566	1.015463	2.082429	-0.039526	0.003867	-0.034212	-0.863525	0.631348	-0.095947	0.489488	-0.442822	-0.443201	-0.606534
24032		9.589106	1.042244	2.183966	-0.050577	-0.002511	-0.030614	-0.863281	0.627197	-0.097900	0.488911	-0.443011	-0.443026	-0.606988
24033		9.596484	1.092268	2.105756	-0.029187	-0.005487	-0.031009	-0.865479	0.626953	-0.095703	0.488421	-0.443098	-0.443025	-0.607320
24034		9.526761	1.238647	2.032266	-0.038200	-0.006505	-0.019448	-0.861328	0.631348	-0.095703	0.487975	-0.443304	-0.442906	-0.607615
24035		9.496537	1.157667	2.054685	-0.011509	-0.005554	-0.016534	-0.865479	0.625000	-0.093506	0.487694	-0.443363	-0.442960	-0.607759
24036		9.527921	1.044847	2.110006	0.007825	0.000584	-0.013321	-0.865479	0.626953	-0.097900	0.487575	-0.443276	-0.443105	-0.607811
24037		9.570103	1.075156	2.063087	-0.010210	-0.000800	-0.009951	-0.861084	0.625000	-0.093262	0.487379	-0.443326	-0.443106	-0.607932
24038		9.582986	1.079210	2.104667	-0.009940	-0.001705	-0.009686	-0.861084	0.627197	-0.097900	0.487178	-0.443385	-0.443110	-0.608047
24039		9.534585	1.161675	2.005470	-0.028063	-0.002907	-0.003112	-0.861084	0.622803	-0.091064	0.486925	-0.443596	-0.442951	-0.608211
24040		9.549003	1.028206	2.140711	-0.009579	-0.003340	-0.006853	-0.863281	0.625000	-0.093506	0.486738	-0.443682	-0.442952	-0.608298
24041		9.604997	1.126720	2.034612	-0.010407	-0.006188	-0.004116	-0.867432	0.620605	-0.097656	0.486553	-0.443807	-0.442951	-0.608355
24042		9.567745	1.042604	2.068400	-0.032530	-0.004537	-0.003395	-0.864990	0.614258	-0.093018	0.486264	-0.444055	-0.442771	-0.608536
24043		9.562433	1.033088	2.139087	-0.017137	-0.002979	-0.006476	-0.861084	0.620605	-0.091064	0.486040	-0.444183	-0.442713	-0.608663
24044		9.580684	1.177086	2.024665	-0.018961	-0.005347	-0.001296	-0.863037	0.618408	-0.093018	0.485834	-0.444371	-0.442626	-0.608755
24045		9.588688	1.044472	2.097298	-0.002190	-0.000164	-0.003420	-0.858887	0.622803	-0.093262	0.485736	-0.444403	-0.442648	-0.608794
24046		9.550072	1.162444	1.980159	-0.011285	0.002484	-0.001122	-0.867432	0.622803	-0.091064	0.485621	-0.444482	-0.442573	-0.608882
24047		9.545084	1.042229	2.103143	-0.025132	0.000317	0.000796	-0.865479	0.625000	-0.093506	0.485428	-0.444675	-0.442394	-0.609025
24048		9.549844	1.090006	2.122367	-0.014307	-0.002941	-0.000884	-0.869385	0.618408	-0.086670	0.485268	-0.444815	-0.442328	-0.609098
24049		9.572967	1.133583	2.021030	-0.027053	-0.003724	0.004333	-0.867432	0.618408	-0.088867	0.485064	-0.445072	-0.442137	-0.609212
24050		9.562531	1.137706	2.088170	-0.012296	-0.001861	0.003171	-0.863281	0.625000	-0.093506	0.484947	-0.445216	-0.442056	-0.609258
24051		9.531655	1.185726	2.058387	-0.002557	-0.004478	0.007131	-0.859131	0.627197	-0.097900	0.484908	-0.445340	-0.442045	-0.609207
24052		9.536905	1.084405	2.069779	0.000452	-0.004628	0.010411	-0.867432	0.622803	-0.095459	0.484915	-0.445461	-0.442044	-0.609113
24053		9.551470	1.085645	2.036460	0.012291	-0.004109	0.010205	-0.856689	0.620605	-0.093262	0.484984	-0.445507	-0.442130	-0.608963
24054		9.591394	1.162204	1.978521	-0.003526	0.001943	0.014257	-0.863281	0.622803	-0.088867	0.485029	-0.445625	-0.442036	-0.608909
24055		9.631485	1.100089	2.089235	-0.004321	0.008013	0.014980	-0.861084	0.622803	-0.088867	0.485103	-0.445711	-0.441891	-0.608892
24056		9.544608	1.070802	2.133244	0.006507	0.005665	0.015717	-0.865234	0.618408	-0.093018	0.485230	-0.445752	-0.441839	-0.608798
24057		9.524416	1.110592	2.037702	0.000307	0.003161	0.018154	-0.867432	0.620605	-0.091064	0.485330	-0.445859	-0.441745	-0.608708
24058		9.557669	1.031555	2.036385	-0.007889	0.003673	0.016367	-0.865234	0.620605	-0.086670	0.485371	-0.446005	-0.441594	-0.608678
24059		9.543107	1.067939	2.077178	-0.003318	0.006984	0.018309	-0.863281	0.625000	-0.091309	0.485467	-0.446111	-0.441444	-0.608633
24060		9.561843	1.072682	2.090637	-0.002332	0.004090	0.016785	-0.863281	0.622803	-0.086670	0.485547	-0.446222	-0.441330	-0.608570
24061		9.607204	1.045635	2.055956	0.019002	0.009192	0.015100	-0.863037	0.620605	-0.084473	0.485756	-0.446159	-0.441354	-0.608432
24062		9.576841	1.045425	2.062541	-0.005870	0.006998	0.015407	-0.858887	0.620605	-0.093262	0.485813	-0.446267	-0.441199	-0.608420
24063		9.577926	1.036050	2.114455	0.007145	0.006096	0.012127	-0.863281	0.622803	-0.088867	0.485925	-0.446276	-0.441174	-0.608342
24064		9.551282	1.073663	2.039362	0.012140	0.003493	0.013866	-0.856934	0.627197	-0.091309	0.486057	-0.446289	-0.441189	-0.608217
24065		9.556487	1.032486	2.076770	0.010773	0.003211	0.014406	-0.856689	0.620605	-0.088867	0.486190	-0.446314	-0.441193	-0.608089
24066		9.593495	1.027930	2.093375	0.019069	0.004934	0.012077	-0.863281	0.622803	-0.086670	0.486356	-0.446263	-0.441263	-0.607943
24067		9.583320	1.082595	2.012195	0.020169	0.006134	0.011281	-0.865479	0.625000	-0.093506	0.486523	-0.446195	-0.441335	-0.607806
24068		9.598059	1.059633	1.983132	0.010300	0.014898	0.014296	-0.858887	0.625000	-0.095459	0.486715	-0.446132	-0.441268	-0.607748
24069		9.553617	1.007479	2.098989	0.004203	0.015574	0.015028	-0.863037	0.620605	-0.093262	0.486887	-0.446102	-0.441149	-0.607718
24070		9.554899	1.040983	2.127165	0.003439	0.010133	0.015483	-0.856934	0.625000	-0.091064	0.487021	-0.446122	-0.441053	-0.607665
24071		9.584791	1.014454	2.116593	0.007628	0.010063	0.012344	-0.867676	0.626953	-0.091309	0.487155	-0.446104	-0.441003	-0.607608
24072		9.564151	0.941076	2.155370	0.009585	0.003513	0.010975	-0.861328	0.629150	-0.093506	0.487250	-0.446116	-0.441016	-0.607514
24073		9.582729	1.084419	2.074004	0.015029	0.000560	0.009002	-0.861084	0.625000	-0.091309	0.487350	-0.446106	-0.441099	-0.607381
24074		9.576953	1.037594	2.045583	0.010095	-0.001652	0.009999	-0.861084	0.622803	-0.093262	0.487413	-0.446148	-0.441152	-0.607260
24075		9.570650	1.032368	2.065761	0.015399	0.001342	0.010914	-0.863281	0.625000	-0.089111	0.487532	-0.446137	-0.441225	-0.607120
24076		9.541191	1.012337	2.030590	0.005137	0.005049	0.008076	-0.863281	0.629150	-0.097900	0.487586	-0.446151	-0.441209	-0.607079
24077		9.610001	0.977637	2.053286	0.007160	0.007617	0.008788	-0.863525	0.631348	-0.089355	0.487684	-0.446128	-0.441196	-0.607026
24078		9.617376	1.039607	2.058627	-0.007420	0.006565	0.010040	-0.856934	0.629395	-0.093506	0.487693	-0.446220	-0.441062	-0.607049
24079		9.526623	1.003074	2.067395	-0.003321	0.006476	0.006005	-0.858887	0.622803	-0.088867	0.487702	-0.446260	-0.440986	-0.607066
24080		9.553259	0.986434	2.070807	-0.002847	0.008740	0.005461	-0.863525	0.629150	-0.095703	0.487712	-0.446279	-0.440903	-0.607105
24081		9.549895	1.057794	2.101692	-0.008549	0.001820	0.005235	-0.863281	0.622803	-0.088867	0.487660	-0.446379	-0.440824	-0.607130
24082		9.588455	0.960047	2.154215	0.001543	-0.000435	0.002933	-0.863281	0.626953	-0.093506	0.487623	-0.446426	-0.440845	-0.607111
24083		9.620833	0.998081	2.091329	0.004156	-0.003973	0.001138	-0.861084	0.622803	-0.091064	0.487576	-0.446470	-0.440920	-0.607061
24084		9.587364	1.055890	2.075027	-0.009244	-0.005493	0.001734	-0.865479	0.626953	-0.091309	0.487446	-0.446612	-0.440899	-0.607077
24085		9.521911	1.010178	2.105471	-0.018293	-0.009488	0.001910	-0.861328	0.629150	-0.086914	0.487246	-0.446841	-0.440831	-0.607118
24086		9.573943	1.032363	2.054236	-0.016847	-0.010869	0.001521	-0.865479	0.629150	-0.093506	0.487040	-0.447076	-0.440778	-0.607149
24087		9.565974	1.036864	2.013603	-0.023201	-0.008334	0.004414	-0.861328	0.626953	-0.089111	0.486844	-0.447337	-0.440655	-0.607204
24088		9.611231	1.057699	1.942872	-0.003644	-0.000060	0.004418	-0.854492	0.622803	-0.091064	0.486798	-0.447420	-0.440627	-0.607200
24089		9.558358	1.015956	1.976226	-0.009580	0.008816	0.005701	-0.863525	0.631348	-0.087158	0.486783	-0.447474	-0.440496	-0.607266
24090		9.560618	0.980654	2.039115	-0.005370	0.011348	0.005741	-0.865479	0.626953	-0.086914	0.486798	-0.447492	-0.440374	-0.607329
24091		9.566616	1.044228	2.078404	-0.012185	0.013099	0.005827	-0.858887	0.625000	-0.084717	0.486782	-0.447537	-0.440192	-0.607441
24092		9.589884	1.035582	2.097305	-0.011117	0.010201	0.005200	-0.854980	0.631348	-0.087158	0.486751	-0.447596	-0.440036	-0.607536
24093		9.612223	0.966575	2.091269	-0.002381	0.009328	0.004181	-0.865479	0.629150	-0.091309	0.486766	-0.447604	-0.439956	-0.607577
24094		9.583191	1.008322	2.082585	0.000658	0.013074	0.003203	-0.861328	0.631348	-0.089355	0.486809	-0.447550	-0.439891	-0.607627
24095		9.566107	0.991252	2.091231	-0.003288	0.009637	0.003422	-0.863525	0.631348	-0.095947	0.486814	-0.447553	-0.439811	-0.607679
24096		9.574270	0.984188	2.131811	0.001312	0.004564	0.002505	-0.863037	0.620605	-0.091064	0.486820	-0.447552	-0.439812	-0.607675
24097		9.582957	1.046724	2.103989	-0.007555	0.000400	0.000362	-0.863037	0.620605	-0.086670	0.486722	-0.447624	-0.439784	-0.607721
24098		9.572770	1.012805	2.081217	-0.010679	-0.002415	0.002872	-0.858887	0.625000	-0.089111	0.486603	-0.447756	-0.439728	-0.607759
24099		9.545872	1.073434	2.045609	-0.007285	0.000428	0.003054	-0.859131	0.627197	-0.089111	0.486531	-0.447847	-0.439680	-0.607785
24100		9.576942	1.044872	2.042161	0.000192	0.001892	0.006653	-0.859131	0.627197	-0.093506	0.486538	-0.447903	-0.439658	-0.607754
24101		9.631894	1.030235	2.063210	0.009071	0.006596	0.003017	-0.863525	0.629150	-0.091309	0.486600	-0.447841	-0.439703	-0.607717
24102		9.575870	1.002598	2.028642	-0.004566	0.009369	0.004857	-0.861328	0.629150	-0.095703	0.486609	-0.447856	-0.439613	-0.607764
24103		9.562708	0.968416	2.113998	0.001615	0.007749	0.002602	-0.861084	0.627197	-0.093506	0.486637	-0.447827	-0.439599	-0.607773
24104		9.559198	1.023092	2.095467	0.004581	0.003303	0.001958	-0.858887	0.622803	-0.088867	0.486647	-0.447812	-0.439637	-0.607749
24105		9.600330	0.964597	2.099554	0.014776	0.002713	0.001307	-0.861084	0.625000	-0.089111	0.486694	-0.447740	-0.439754	-0.607679
24106		9.615610	1.031671	2.051238	0.012622	0.005907	-0.000616	-0.858887	0.625000	-0.089111	0.486733	-0.447648	-0.439844	-0.607651
24107		9.550156	1.030654	2.058830	0.004326	0.004956	0.000022	-0.852295	0.620850	-0.086670	0.486727	-0.447618	-0.439873	-0.607657
24108		9.525892	0.968578	2.110742	0.004094	-0.000837	-0.002359	-0.861084	0.625000	-0.086914	0.486667	-0.447623	-0.439945	-0.607649
24109		9.544151	1.053275	2.004758	-0.001384	-0.001959	-0.000219	-0.869629	0.622803	-0.088867	0.486582	-0.447682	-0.439971	-0.607654
24110		9.584672	0.969827	2.082813	-0.000269	-0.000029	-0.002691	-0.863525	0.629150	-0.089111	0.486491	-0.447698	-0.440016	-0.607683
24111		9.597030	0.999296	2.082077	0.010752	-0.000192	-0.005152	-0.865479	0.626953	-0.091309	0.486453	-0.447642	-0.440152	-0.607656
24112		9.548457	1.015070	2.082149	-0.001940	-0.003494	-0.002250	-0.863525	0.631348	-0.087158	0.486350	-0.447698	-0.440202	-0.607662
24113		9.563942	1.015301	2.057816	0.003854	-0.007368	-0.003063	-0.865479	0.625000	-0.091309	0.486248	-0.447755	-0.440311	-0.607622
24114		9.583319	1.047488	2.035083	-0.000051	-0.005774	-0.000585	-0.858887	0.625000	-0.091309	0.486155	-0.447823	-0.440383	-0.607594
24115		9.593169	1.040279	2.040351	0.001054	-0.004582	-0.001382	-0.856934	0.625000	-0.086914	0.486076	-0.447872	-0.440459	-0.607566
24116		9.581745	1.054972	2.015004	-0.002662	-0.002230	0.001214	-0.865479	0.626953	-0.093506	0.486001	-0.447950	-0.440468	-0.607562
24117		9.557184	1.015637	2.065211	-0.006218	-0.002476	0.002422	-0.859131	0.629150	-0.095703	0.485923	-0.448043	-0.440460	-0.607562
24118		9.568531	1.026527	2.046781	0.002056	-0.003938	0.002703	-0.861084	0.625000	-0.086914	0.485899	-0.448098	-0.440523	-0.607494
24119		9.579403	1.014755	2.061406	-0.002860	-0.003726	0.002771	-0.865479	0.626953	-0.093506	0.485824	-0.448194	-0.440534	-0.607476
24120		9.597110	1.027040	2.064073	0.009294	0.000658	0.001016	-0.858887	0.622803	-0.086670	0.485841	-0.448160	-0.440634	-0.607415
24121		9.577448	1.068389	2.008500	0.005724	-0.001265	0.001471	-0.858887	0.620605	-0.084473	0.485817	-0.448177	-0.440704	-0.607371
24122		9.554105	0.981761	2.060719	0.006192	0.000260	0.002604	-0.854736	0.622803	-0.082275	0.485807	-0.448187	-0.440759	-0.607331
24123		9.571097	1.018243	2.062623	0.011192	-0.000880	0.001005	-0.863525	0.629150	-0.089111	0.485806	-0.448176	-0.440859	-0.607267
24124		9.599923	1.042525	2.047343	0.007259	-0.002641	0.001977	-0.861084	0.627197	-0.091309	0.485795	-0.448196	-0.440947	-0.607198
24125		9.587622	1.014504	2.047145	0.012184	-0.002113	0.000235	-0.859131	0.627197	-0.086914	0.485808	-0.448167	-0.441084	-0.607109
24126		9.553738	0.988372	2.007882	0.000340	-0.002578	0.000407	-0.856934	0.629150	-0.084717	0.485744	-0.448225	-0.441123	-0.607090
24127		9.536136	1.022003	1.970159	-0.006573	-0.001576	0.001264	-0.858887	0.625000	-0.086914	0.485652	-0.448329	-0.441090	-0.607110
24128		9.579714	1.040457	2.015690	0.002230	0.005001	0.001586	-0.859131	0.627197	-0.093506	0.485649	-0.448321	-0.441094	-0.607115
24129		9.614242	1.045188	2.015275	0.003259	0.007860	0.000644	-0.861084	0.622803	-0.091064	0.485679	-0.448268	-0.441107	-0.607121
24130		9.580485	1.010197	2.070464	0.000081	0.009130	0.002087	-0.861084	0.625000	-0.091309	0.485696	-0.448231	-0.441080	-0.607154
24131		9.568072	1.002315	2.080518	0.009227	0.003068	-0.000801	-0.865479	0.624756	-0.082520	0.485712	-0.448172	-0.441173	-0.607118
24132		9.544644	1.078454	1.997714	-0.003532	0.002170	0.000283	-0.861328	0.626953	-0.089111	0.485630	-0.448221	-0.441150	-0.607164
24133		9.532390	0.957067	2.066933	-0.002744	-0.001503	-0.001358	-0.858887	0.625000	-0.093262	0.485545	-0.448273	-0.441176	-0.607175
24134		9.564017	0.968483	2.119878	-0.001782	-0.006095	-0.003635	-0.859131	0.627197	-0.086914	0.485437	-0.448330	-0.441261	-0.607157
24135		9.588608	1.034217	2.024993	-0.000450	-0.009908	-0.003999	-0.856934	0.625000	-0.093262	0.485297	-0.448423	-0.441363	-0.607126
24136		9.566864	1.079130	2.032335	0.011885	-0.005499	-0.003960	-0.861084	0.622803	-0.091064	0.485270	-0.448391	-0.441551	-0.607035
24137		9.575333	1.056438	2.020102	0.022819	-0.004519	-0.000785	-0.863281	0.625000	-0.084717	0.485321	-0.448303	-0.441796	-0.606881
24138		9.577640	1.052893	1.995330	0.020467	-0.002823	-0.001153	-0.857178	0.633545	-0.087158	0.485346	-0.448232	-0.441997	-0.606766
24139		9.553023	1.063834	1.969676	0.013385	0.000041	0.002765	-0.865234	0.622803	-0.091064	0.485403	-0.448212	-0.442098	-0.606662
24140		9.540168	1.012427	2.003516	-0.003284	-0.000215	0.003898	-0.856689	0.622803	-0.086670	0.485360	-0.448275	-0.442095	-0.606653
24141		9.535591	0.949937	2.158534	-0.004788	-0.005543	0.001283	-0.859131	0.627197	-0.086914	0.485259	-0.448387	-0.442112	-0.606638
24142		9.573748	1.036480	2.112439	0.000659	-0.017423	0.002238	-0.858887	0.622803	-0.088867	0.485134	-0.448564	-0.442234	-0.606518
24143		9.593255	1.030300	2.028809	0.016287	-0.021906	-0.002807	-0.856689	0.622803	-0.084473	0.485035	-0.448641	-0.442541	-0.606316
24144		9.577206	1.043804	1.945799	0.011212	-0.019094	-0.001352	-0.858887	0.625000	-0.089111	0.484926	-0.448748	-0.442772	-0.606156
24145		9.506261	1.042239	1.927646	0.015650	-0.011709	-0.001373	-0.867676	0.626953	-0.089111	0.484897	-0.448760	-0.443004	-0.606001
24146		9.573842	0.973222	1.920971	0.009470	-0.010301	-0.003223	-0.856934	0.625000	-0.089111	0.484819	-0.448786	-0.443194	-0.605905
24147		9.588075	1.083048	1.950435	-0.008976	-0.005661	0.000330	-0.854492	0.620605	-0.086670	0.484702	-0.448912	-0.443193	-0.605906
24148		9.524750	1.056154	1.925499	-0.007641	0.001111	-0.002210	-0.854736	0.622803	-0.082275	0.484603	-0.448965	-0.443174	-0.605959
24149		9.527936	1.001497	1.946156	-0.005531	0.002746	-0.003031	-0.863281	0.625000	-0.082520	0.484509	-0.449003	-0.443152	-0.606023
24150		9.517031	1.008045	2.013941	-0.015574	-0.000013	-0.002078	-0.861084	0.625000	-0.084717	0.484343	-0.449125	-0.443068	-0.606127
24151		9.587504	1.012267	2.060709	-0.002998	0.000875	-0.004970	-0.861084	0.620605	-0.082275	0.484241	-0.449142	-0.443096	-0.606175
24152		9.601685	1.085410	1.961326	-0.003361	0.001038	-0.004453	-0.859131	0.627197	-0.084717	0.484130	-0.449164	-0.443116	-0.606233
24153		9.567225	1.057528	1.965311	-0.000028	0.007228	-0.003676	-0.858887	0.625000	-0.086914	0.484097	-0.449126	-0.443116	-0.606286
24154		9.527561	1.045145	1.965911	-0.006251	0.003809	-0.003672	-0.863037	0.620605	-0.084473	0.484016	-0.449144	-0.443100	-0.606351
24155		9.551665	1.015185	1.983871	-0.001320	0.005281	-0.002992	-0.859131	0.629150	-0.086914	0.483956	-0.449121	-0.443109	-0.606409
24156		9.563321	1.024153	1.976671	0.000796	0.007653	-0.005488	-0.856934	0.625000	-0.084717	0.483928	-0.449063	-0.443127	-0.606461
24157		9.562137	1.049369	1.977471	-0.000210	0.007210	-0.005468	-0.856934	0.625000	-0.082520	0.483883	-0.449015	-0.443138	-0.606524
24158		9.523072	1.077768	1.994384	-0.003408	0.006062	-0.003099	-0.861084	0.620605	-0.086670	0.483825	-0.449016	-0.443111	-0.606589
24159		9.577426	1.044651	2.007965	0.002060	0.006454	-0.003567	-0.861328	0.626953	-0.089111	0.483797	-0.448957	-0.443147	-0.606629
24160		9.578858	1.087030	1.952141	0.002353	0.008900	-0.001802	-0.859131	0.627197	-0.086914	0.483815	-0.448890	-0.443159	-0.606656
24161		9.569282	1.068845	1.990115	0.000628	0.009518	-0.002426	-0.859131	0.625000	-0.080322	0.483819	-0.448833	-0.443149	-0.606702
24162		9.557680	1.057653	2.010153	-0.002927	0.009268	-0.001217	-0.863281	0.622803	-0.084473	0.483784	-0.448824	-0.443089	-0.606780
24163		9.562315	1.042184	2.016275	-0.000915	0.010158	-0.001255	-0.861084	0.622803	-0.075928	0.483770	-0.448777	-0.443057	-0.606849
24164		9.578070	1.038349	2.004476	-0.005216	0.007612	-0.002193	-0.863281	0.625000	-0.082520	0.483684	-0.448798	-0.442986	-0.606954
24165		9.591086	0.967897	2.165323	0.034393	0.005410	-0.012337	-0.861084	0.625000	-0.089111	0.483754	-0.448522	-0.443303	-0.606871
24166		9.637330	1.247511	2.172549	0.046612	-0.005451	-0.023146	-0.859131	0.625000	-0.078125	0.483776	-0.448178	-0.443855	-0.606703
24167		9.713201	1.198124	2.213100	-0.035344	-0.016113	-0.027417	-0.856689	0.620605	-0.077881	0.483212	-0.448425	-0.443836	-0.606985
24168		9.554134	1.219619	2.283803	-0.007613	-0.036246	-0.042303	-0.858887	0.620605	-0.080078	0.482580	-0.448568	-0.444238	-0.607088
24169		9.629086	1.149649	2.117812	-0.013964	-0.046359	-0.046178	-0.860840	0.618408	-0.086670	0.481836	-0.448794	-0.444683	-0.607187
24170		9.476684	1.018866	1.982632	-0.005641	-0.055367	-0.050403	-0.860840	0.618408	-0.082275	0.481081	-0.448986	-0.445295	-0.607194
24171		9.426899	0.822076	1.881572	0.007189	-0.057696	-0.052086	-0.863037	0.618408	-0.075684	0.480364	-0.449121	-0.446017	-0.607133
24172		9.440580	0.807615	1.687260	-0.034786	-0.054678	-0.058581	-0.863037	0.620605	-0.082275	0.479359	-0.449467	-0.446419	-0.607375
24173		9.518795	0.880093	1.439766	-0.112730	-0.031510	-0.060028	-0.864990	0.614014	-0.073242	0.478073	-0.450074	-0.446119	-0.608159
24174		9.516616	1.066165	1.362704	-0.201950	-0.000810	-0.064237	-0.860840	0.612061	-0.071045	0.476386	-0.450967	-0.444969	-0.609661
24175		9.525809	1.074478	1.520418	-0.275049	0.031719	-0.068198	-0.860352	0.601318	-0.070557	0.474446	-0.452020	-0.443090	-0.611760
24176		9.501873	1.117483	1.854826	-0.304927	0.050342	-0.068161	-0.864990	0.607666	-0.068848	0.472430	-0.453075	-0.440889	-0.614125
24177		9.486621	1.102690	2.262343	-0.265499	0.040209	-0.078017	-0.866699	0.599121	-0.068359	0.470514	-0.453918	-0.439099	-0.616252
24178		9.528231	1.204737	2.577710	-0.203679	-0.000577	-0.081331	-0.860107	0.596924	-0.066162	0.468689	-0.454667	-0.438058	-0.617830
24179		9.545271	1.302374	2.900898	-0.156171	-0.079466	-0.080814	-0.864258	0.590576	-0.065918	0.466720	-0.455747	-0.437837	-0.618681
24180		9.567253	1.789126	3.031683	-0.115518	-0.177284	-0.059504	-0.862305	0.592773	-0.061523	0.464606	-0.457437	-0.438394	-0.618630
24181		9.514903	2.022872	2.994447	-0.030938	-0.277369	-0.034105	-0.859619	0.582031	-0.054688	0.462635	-0.459548	-0.440030	-0.617380
24182		9.930987	2.041809	2.749355	0.003200	-0.373623	0.006271	-0.857666	0.582031	-0.045898	0.460613	-0.462412	-0.442247	-0.615166
24183		10.076474	2.036080	2.759512	0.000057	-0.447411	0.053354	-0.844727	0.584229	-0.035156	0.458508	-0.466124	-0.444564	-0.612259
24184		9.843413	2.119734	1.964395	0.072988	-0.443272	0.067453	-0.844971	0.590576	-0.033203	0.456943	-0.469479	-0.447294	-0.608869
24185		9.779520	1.931510	1.567320	0.190105	-0.443466	0.051072	-0.847412	0.592773	-0.022217	0.455920	-0.472061	-0.450994	-0.604897
24186		9.220988	2.041242	0.461148	0.247071	-0.435229	0.066572	-0.838867	0.592773	-0.020020	0.455367	-0.474331	-0.454962	-0.600550
24187		8.626301	2.333399	-0.396033	-0.006598	-0.436648	0.143112	-0.834473	0.594971	-0.013672	0.453864	-0.478471	-0.456570	-0.597174
24188		8.150218	2.772570	-1.230630	-0.499970	-0.438270	0.217753	-0.826172	0.601318	-0.005127	0.449934	-0.485820	-0.454040	-0.596142
24189		8.167127	1.936962	-0.605017	-0.759619	-0.336034	0.212676	-0.823975	0.594971	0.014648	0.444933	-0.493786	-0.449002	-0.597166
24190		7.899723	1.581757	-0.438584	-0.468036	-0.142551	0.097227	-0.825684	0.582031	0.017334	0.441920	-0.498002	-0.445746	-0.598340
24191		7.902449	1.450791	-0.254427	-0.075626	0.061751	-0.021815	-0.823486	0.584229	0.012939	0.441592	-0.497846	-0.445036	-0.599240
24192		7.914253	1.972767	-0.305546	0.141117	0.277876	-0.097676	-0.825684	0.584229	0.012939	0.443248	-0.494445	-0.445231	-0.600687
24193		8.713373	2.801061	-0.313931	-0.203002	0.376711	0.002141	-0.827881	0.584229	0.008545	0.444063	-0.492756	-0.441670	-0.604092
24194		9.092766	-1.362016	0.022815	-0.399869	0.699156	0.243841	-0.842773	0.582031	0.000000	0.447242	-0.491025	-0.433320	-0.609183
24195		11.109802	-2.311388	1.166452	-0.796310	0.625149	0.582827	-0.840820	0.588379	-0.004639	0.450094	-0.493835	-0.420213	-0.613973
24196		11.664078	0.208899	2.313912	-0.466294	0.767150	0.415391	-0.845215	0.590576	-0.009277	0.454365	-0.492732	-0.409796	-0.618736
24197		9.980717	4.702821	2.746824	-0.085408	0.706042	0.377779	-0.845215	0.594971	-0.026855	0.460316	-0.489690	-0.402845	-0.621313
24198		9.331142	2.338748	3.303153	-0.268554	0.567054	0.455382	-0.856201	0.601318	-0.035889	0.465004	-0.489121	-0.394760	-0.623456
24199		9.901790	-1.782670	3.062399	-0.275422	0.500387	0.453230	-0.858643	0.607666	-0.040527	0.469260	-0.489059	-0.386984	-0.625188
24200		9.870956	0.503399	2.423529	-0.174325	0.492463	0.377565	-0.852295	0.612061	-0.049316	0.473468	-0.488067	-0.380471	-0.626786
24201		9.918036	-0.119981	3.025245	-0.358041	0.428269	0.331673	-0.858643	0.614014	-0.053711	0.475859	-0.488417	-0.373153	-0.629098
24202		9.705321	0.033208	3.851223	-0.239006	0.315774	0.259214	-0.858643	0.614014	-0.055908	0.477856	-0.488582	-0.367860	-0.630571
24203		9.925156	-0.131764	3.879567	-0.332732	0.190053	0.212703	-0.863037	0.611816	-0.051514	0.478319	-0.490069	-0.362847	-0.631969
24204		9.846740	0.137461	4.193570	-0.353435	0.054219	0.158342	-0.856689	0.616211	-0.053711	0.477597	-0.492492	-0.358802	-0.632941
24205		9.687488	0.091673	3.944512	-0.300677	-0.076737	0.122258	-0.858643	0.612061	-0.053711	0.476315	-0.495463	-0.356166	-0.633076
24206		9.583249	0.338904	3.135118	-0.207822	-0.166391	0.087213	-0.858643	0.609863	-0.042725	0.474924	-0.498427	-0.355007	-0.632446
24207		9.287259	-0.210222	3.158190	-0.100891	-0.230423	0.053564	-0.854492	0.612061	-0.031738	0.473643	-0.501107	-0.355277	-0.631136
24208		9.703335	0.014641	2.694938	0.015952	-0.257201	0.027521	-0.850098	0.612061	-0.033936	0.472764	-0.503185	-0.356784	-0.629290
24209		9.637024	0.719607	2.049822	-0.075540	-0.261380	0.036882	-0.848145	0.616211	-0.029785	0.471358	-0.505872	-0.357532	-0.627763
24210		9.398500	0.767972	2.400863	-0.064861	-0.267195	0.059604	-0.850342	0.618408	-0.023438	0.470167	-0.508637	-0.358253	-0.626008
24211		9.642194	0.400805	2.490980	0.042471	-0.284227	0.043744	-0.837402	0.614258	-0.018799	0.469451	-0.510826	-0.360011	-0.623751
24212		9.704756	0.083214	1.835014	0.072607	-0.272649	0.035711	-0.841797	0.616211	-0.008057	0.468910	-0.512705	-0.361982	-0.621471
24213		9.623409	-0.157819	1.809413	0.043961	-0.259676	0.016681	-0.837891	0.624756	-0.008301	0.468091	-0.514559	-0.363773	-0.619507
24214		9.730366	0.078692	2.621256	0.114731	-0.275658	-0.009686	-0.837646	0.620605	-0.003906	0.467445	-0.515996	-0.366372	-0.617264
24215		10.208573	-0.014405	3.448315	0.009119	-0.396722	-0.038625	-0.827148	0.622803	0.000488	0.465330	-0.518842	-0.369041	-0.614882
24216		10.221314	0.193124	4.554791	-0.166175	-0.636499	-0.069602	-0.818359	0.614258	0.016113	0.460710	-0.524382	-0.371937	-0.611909
24217		10.429891	1.476472	5.621936	-0.440295	-1.001142	-0.032178	-0.811523	0.603516	0.040527	0.452824	-0.534395	-0.374535	-0.607533
24218		11.383055	1.680702	4.982367	-0.743367	-1.334978	0.112501	-0.792236	0.601562	0.064697	0.442322	-0.549185	-0.375639	-0.601368
24219		12.021627	2.881753	3.114426	-0.766873	-1.504985	0.126809	-0.777100	0.593018	0.102051	0.430785	-0.565223	-0.377245	-0.593829
24220		12.613773	1.605724	1.612719	-0.520681	-1.497735	0.082940	-0.757568	0.582275	0.130859	0.420513	-0.579436	-0.380788	-0.585170
24221		13.319835	0.855974	0.829633	0.045054	-1.322691	-0.098400	-0.738281	0.580322	0.148438	0.413703	-0.588337	-0.388733	-0.575844
24222		12.412700	1.942202	-0.647401	0.517026	-1.357976	-0.227336	-0.723389	0.586914	0.159180	0.409137	-0.594244	-0.401087	-0.564455
24223		11.354804	2.389128	-3.582642	0.557222	-1.863626	-0.170131	-0.700195	0.591309	0.185303	0.402606	-0.603477	-0.415762	-0.548512
24224		9.896209	2.361801	-6.210394	0.097363	-2.436555	0.149900	-0.652832	0.589600	0.216064	0.391516	-0.620146	-0.427456	-0.528597
24225		8.949224	1.251465	-6.002808	-0.663755	-2.893332	0.451870	-0.596680	0.574951	0.258301	0.373559	-0.644489	-0.433467	-0.507143
24226		8.422881	0.038715	-5.198780	-0.505148	-3.063038	0.311591	-0.543213	0.575439	0.295410	0.354520	-0.667461	-0.441782	-0.483363
24227		7.623419	0.611754	-5.028590	-0.203715	-3.084709	0.162651	-0.484863	0.562988	0.324463	0.336437	-0.687396	-0.452596	-0.457661
24228		6.577090	0.922812	-4.423931	-0.064033	-2.992646	0.158382	-0.422852	0.567871	0.346436	0.319556	-0.705192	-0.463208	-0.431308
24229		5.918002	0.545260	-3.622691	0.051099	-2.702707	0.238841	-0.371338	0.566406	0.359619	0.305388	-0.720529	-0.471984	-0.405965
24230		5.282293	1.004276	-3.073463	0.095629	-2.250170	0.267703	-0.323975	0.560303	0.373291	0.294132	-0.732863	-0.478538	-0.383926
24231		4.904873	1.223493	-2.291631	0.044271	-1.753976	0.194773	-0.289795	0.564941	0.377441	0.284829	-0.742095	-0.483379	-0.366759
24232		4.357555	1.064886	-1.346533	-0.019516	-1.176555	0.105323	-0.266113	0.560791	0.384277	0.277910	-0.748103	-0.486529	-0.355524
24233		4.195576	1.089675	-1.000834	-0.050472	-0.581745	-0.017559	-0.250977	0.556885	0.386719	0.273733	-0.750727	-0.488554	-0.350421
24234		4.158036	1.534451	-0.623484	-0.219738	0.020248	-0.132536	-0.259277	0.552490	0.384766	0.271132	-0.750566	-0.488836	-0.352388
24235		3.965238	1.428043	-0.497849	-0.620799	0.584118	-0.223484	-0.282471	0.537109	0.391846	0.267796	-0.748676	-0.486258	-0.362385
24236		3.842878	0.922228	-0.562825	-0.836532	1.067881	-0.302182	-0.309570	0.515381	0.392578	0.264970	-0.744679	-0.481713	-0.378412
24237		3.829392	1.017194	-1.121236	-0.883623	1.509830	-0.373097	-0.345215	0.491455	0.397705	0.263927	-0.738023	-0.475946	-0.398923
24238		3.778950	0.642146	-1.409732	-1.002754	1.826843	-0.437313	-0.391602	0.467529	0.398438	0.263194	-0.729351	-0.468843	-0.423040
24239		3.769593	0.011930	-2.105974	-0.736447	1.984857	-0.527365	-0.444336	0.447754	0.385986	0.265148	-0.717909	-0.463108	-0.447028
24240		4.552062	-0.131482	-2.894927	-0.375294	1.998434	-0.600786	-0.482666	0.436768	0.379639	0.269822	-0.704250	-0.459672	-0.468967
24241		5.032607	0.177693	-3.807723	-0.086450	1.865043	-0.638507	-0.529541	0.427734	0.360352	0.275877	-0.689720	-0.458412	-0.487890
24242		5.502447	0.004099	-3.950662	0.107082	1.512293	-0.644230	-0.563721	0.427246	0.349121	0.281403	-0.676285	-0.459366	-0.502428
24243		5.976797	0.086895	-4.031731	0.324449	1.149516	-0.614476	-0.593750	0.427002	0.340332	0.286773	-0.664295	-0.462553	-0.512365
24244		6.546884	0.820279	-3.286008	0.394552	0.841955	-0.543995	-0.608643	0.429199	0.318359	0.291333	-0.654277	-0.466605	-0.518967
24245		6.838787	0.985478	-3.017335	0.525585	0.604951	-0.475737	-0.624023	0.439697	0.309326	0.295981	-0.645613	-0.471741	-0.522532
24246		7.452202	1.007063	-2.986249	0.690881	0.423230	-0.397555	-0.633057	0.446045	0.309082	0.301362	-0.637901	-0.477940	-0.523294
24247		8.079821	1.591473	-2.868841	0.631567	0.256820	-0.259148	-0.639648	0.456787	0.297607	0.306151	-0.632261	-0.483225	-0.522505
24248		7.295116	1.360882	-2.134813	0.386536	0.169837	-0.097763	-0.642090	0.460938	0.292969	0.309515	-0.629065	-0.485943	-0.521859
24249		6.324435	0.985828	-1.597790	0.309079	0.158978	0.005204	-0.646484	0.467285	0.297119	0.312868	-0.626851	-0.487376	-0.521187
24250		5.787078	1.236057	-1.401334	0.421819	0.225954	0.042479	-0.653564	0.480225	0.292236	0.317746	-0.623970	-0.488977	-0.520193
24251		5.405935	1.537539	-1.398935	0.384130	0.294289	0.135648	-0.660156	0.488770	0.281006	0.323342	-0.621341	-0.489315	-0.519573
24252		5.099014	1.348828	-4.088164	0.498590	0.244280	0.277845	-0.662842	0.503662	0.286865	0.330429	-0.619413	-0.489472	-0.517263
24253		9.056425	2.503015	-4.386843	-0.145229	-0.285201	0.336830	-0.652100	0.503662	0.293457	0.329657	-0.623900	-0.487181	-0.514519
24254		15.741027	2.354807	0.451030	-0.128927	-0.386811	0.155847	-0.639648	0.510254	0.288818	0.327218	-0.627849	-0.486817	-0.511608
24255		12.752924	2.272308	-1.858748	0.716221	-0.179053	-0.031856	-0.639893	0.520996	0.292969	0.331455	-0.625836	-0.492440	-0.505935
24256		5.318022	1.907046	-2.202616	0.237867	-0.220479	0.113019	-0.633789	0.525391	0.290527	0.332593	-0.626926	-0.494047	-0.502259
24257		3.826697	0.393683	-2.836787	0.033317	-0.277446	0.164723	-0.627686	0.536133	0.290039	0.332093	-0.629532	-0.494195	-0.499174
24258		7.803536	0.948638	-2.718004	0.127423	-0.283910	0.020115	-0.619141	0.536133	0.298828	0.331387	-0.630884	-0.496091	-0.496046
24259		10.136960	1.089121	-2.521130	0.255688	-0.149469	-0.036193	-0.619385	0.542480	0.294189	0.332171	-0.630513	-0.498663	-0.493408
24260		6.406813	1.251325	-3.716826	-0.010746	-0.052444	-0.008549	-0.621338	0.538330	0.298828	0.331627	-0.630817	-0.498966	-0.493078
24261		7.060243	0.806862	-2.871218	0.094809	0.013279	-0.069278	-0.623535	0.540283	0.300781	0.331952	-0.629899	-0.500130	-0.492855
24262		8.429619	1.199465	-2.776976	0.299232	0.090296	-0.109497	-0.625977	0.546631	0.291748	0.334116	-0.627400	-0.502546	-0.492121
24263		7.561656	1.497762	-2.560997	0.273493	0.107572	-0.107002	-0.621582	0.548828	0.289551	0.336196	-0.624908	-0.504706	-0.491665
24264		7.456340	1.610227	-2.356925	0.248601	0.091094	-0.053540	-0.630371	0.551025	0.289551	0.338302	-0.622950	-0.506358	-0.491005
24265		7.893498	1.006080	-1.917693	0.223846	0.046708	-0.045119	-0.632568	0.553223	0.285156	0.339983	-0.621417	-0.507976	-0.490116
24266		7.646003	0.980044	-1.886683	0.150644	-0.003631	-0.068717	-0.630615	0.561768	0.282471	0.340628	-0.620349	-0.509537	-0.489399
24267		7.506540	1.085203	-1.858663	0.079228	-0.057322	-0.079962	-0.630371	0.555176	0.282715	0.340307	-0.619840	-0.510975	-0.488768
24268		7.496359	1.661139	-1.705267	0.087221	-0.112721	-0.052287	-0.626465	0.563965	0.289062	0.339862	-0.619811	-0.512479	-0.487538
24269		7.571745	2.238319	-1.930538	0.021775	-0.170249	0.013151	-0.622314	0.563965	0.289062	0.338938	-0.620826	-0.513319	-0.486004
24270		7.350478	1.824064	-2.054912	0.008469	-0.226326	0.078767	-0.615723	0.563965	0.286865	0.337946	-0.622655	-0.513802	-0.483840
24271		7.416083	1.570224	-2.525538	-0.063989	-0.258185	0.137174	-0.609375	0.566162	0.295410	0.336533	-0.625350	-0.513520	-0.481643
24272		7.533507	0.564391	-3.172651	-0.062945	-0.255502	0.142007	-0.605225	0.566162	0.302002	0.335170	-0.628047	-0.513189	-0.479433
24273		7.746586	0.430138	-3.832113	0.019389	-0.183063	0.085614	-0.607422	0.566162	0.302002	0.334576	-0.629596	-0.513486	-0.477494
24274		7.173997	0.639843	-3.472374	0.029209	-0.085849	0.034986	-0.596436	0.564209	0.302246	0.334380	-0.630196	-0.513834	-0.476464
24275		7.158589	0.789382	-3.878320	-0.008262	0.010819	-0.006029	-0.604980	0.559814	0.295898	0.334265	-0.630113	-0.513880	-0.476605
24276		7.773123	0.703962	-3.113266	-0.046244	0.083559	-0.078667	-0.603027	0.566162	0.295654	0.333886	-0.629288	-0.513970	-0.477862
24277		7.563640	0.633873	-2.253806	-0.028651	0.105212	-0.148184	-0.604980	0.559814	0.300049	0.333367	-0.627811	-0.514620	-0.479464
24278		7.550839	1.129040	-2.025046	0.036842	0.064591	-0.176849	-0.606934	0.557617	0.302490	0.332928	-0.626116	-0.516053	-0.480444
24279		7.833446	1.823233	-1.774201	0.073595	0.015969	-0.176511	-0.607178	0.559814	0.293701	0.332463	-0.624559	-0.517902	-0.480804
24280		8.391021	1.867050	-2.160419	0.016585	-0.053055	-0.124008	-0.609131	0.557617	0.295898	0.331420	-0.623990	-0.519280	-0.480775
24281		9.829480	1.797267	-2.679629	-0.010896	-0.149174	-0.123505	-0.606934	0.555420	0.293701	0.329539	-0.624113	-0.520884	-0.480173
24282		10.282846	1.314114	-2.360288	0.113046	-0.142652	-0.158399	-0.606934	0.553467	0.296143	0.328454	-0.623454	-0.523472	-0.478957
24283		8.698832	1.503656	-1.892338	0.290677	-0.090990	-0.230128	-0.604980	0.559814	0.293701	0.328657	-0.621278	-0.527457	-0.477271
24284		5.307437	1.715957	-3.016521	0.321631	-0.054584	-0.282428	-0.609375	0.562012	0.289062	0.329019	-0.618396	-0.531867	-0.475868
24285		3.821399	1.099576	-3.419872	0.509871	-0.124235	-0.426680	-0.613770	0.566162	0.291016	0.329498	-0.614163	-0.538774	-0.473241
24286		4.849640	0.198633	-2.137285	0.613955	-0.215225	-0.427969	-0.603027	0.568359	0.291016	0.330126	-0.609979	-0.546642	-0.469175
24287		4.572345	0.998694	-2.630535	0.321333	-0.256415	-0.243066	-0.607666	0.574707	0.286377	0.329305	-0.608467	-0.551517	-0.466000
24288		4.790534	0.636834	-2.193637	-0.043177	-0.260576	-0.161286	-0.600830	0.568359	0.291016	0.326150	-0.609027	-0.553651	-0.464954
24289		4.622227	0.626891	-1.849100	0.182519	-0.128463	-0.192471	-0.598877	0.570557	0.286621	0.325441	-0.607675	-0.556788	-0.463472
24290		4.701380	1.149783	-1.711003	0.342293	0.076121	-0.194343	-0.601318	0.579102	0.288574	0.327352	-0.604463	-0.560021	-0.462431
24291		5.140672	1.076610	-3.090522	0.286486	0.267163	-0.130417	-0.605713	0.581299	0.279785	0.330540	-0.600807	-0.561651	-0.462950
24292		7.821438	1.332650	-5.379493	0.081235	0.084474	-0.043420	-0.607910	0.581299	0.281738	0.331403	-0.599658	-0.562190	-0.463169
24293		11.198727	1.601596	-2.012567	-0.184387	-0.100229	0.085154	-0.603516	0.581299	0.281738	0.329719	-0.601578	-0.560995	-0.463330
24294		10.122060	2.120229	-2.324650	0.137290	0.079999	0.160851	-0.612549	0.589844	0.281494	0.332154	-0.601656	-0.560340	-0.462280
24295		7.557705	3.065496	-3.195291	0.041431	-0.032434	0.150913	-0.597656	0.594238	0.279297	0.333021	-0.602709	-0.559666	-0.461100
24296		6.197884	1.823343	-2.131958	0.119257	-0.036421	0.109568	-0.601807	0.596191	0.276855	0.334205	-0.603169	-0.559768	-0.459515
24297		5.512133	1.091982	-2.891812	0.241838	-0.033385	0.054860	-0.604248	0.598389	0.281250	0.336018	-0.602712	-0.560969	-0.457323
24298		6.620579	0.181386	-2.809332	0.228289	-0.043120	0.074756	-0.602295	0.604736	0.274414	0.337770	-0.602502	-0.561980	-0.455062
24299		7.672335	0.257081	-2.885710	0.205237	-0.029629	0.143822	-0.600098	0.604980	0.276611	0.339833	-0.602793	-0.562277	-0.452768
24300		8.215349	1.075489	-2.811521	0.182468	-0.044622	0.123631	-0.594238	0.617676	0.276123	0.341503	-0.603119	-0.562655	-0.450603
24301		7.494781	1.131507	-2.798341	0.322176	-0.024119	-0.035892	-0.598633	0.624268	0.271484	0.343467	-0.601604	-0.564927	-0.448286
24302		6.446577	1.110231	-3.170370	0.387829	-0.011806	-0.021052	-0.600830	0.626221	0.271240	0.346087	-0.599832	-0.567391	-0.445526
24303		6.605386	0.691017	-2.988519	0.185890	0.020334	0.050584	-0.596924	0.634766	0.270996	0.347815	-0.599253	-0.568046	-0.444121
24304		7.080467	0.627516	-3.495807	0.259365	0.069212	0.027686	-0.599121	0.636963	0.264404	0.350311	-0.597917	-0.569064	-0.442655
24305		7.467425	1.179181	-3.574065	0.256753	0.141214	0.020784	-0.601074	0.636963	0.253418	0.353257	-0.596137	-0.569798	-0.441769
24306		6.931462	1.228068	-3.634313	0.211552	0.206228	0.021696	-0.605713	0.645508	0.253174	0.356329	-0.594196	-0.569983	-0.441678
24307		7.345588	1.265134	-3.677337	0.162416	0.273285	0.076244	-0.605957	0.652100	0.248535	0.359810	-0.592484	-0.569186	-0.442184
24308		7.760230	1.418236	-3.589222	0.133292	0.316175	0.172380	-0.614746	0.658203	0.250488	0.363905	-0.591339	-0.567314	-0.442771
24309		7.160326	1.289828	-3.706945	0.064351	0.379079	0.262098	-0.619141	0.660400	0.237305	0.368423	-0.590778	-0.564097	-0.443891
24310		7.510341	0.253490	-3.383798	0.084367	0.453690	0.302606	-0.621582	0.668945	0.234619	0.373825	-0.589974	-0.560329	-0.445215
24311		7.391616	-0.005582	-3.545705	0.127345	0.525770	0.314540	-0.634766	0.675293	0.229980	0.380097	-0.588621	-0.556347	-0.446687
24312		7.598202	-0.606945	-2.995304	0.084353	0.547744	0.248357	-0.634766	0.679688	0.216797	0.385814	-0.586855	-0.552478	-0.448906
24313		7.311641	-0.363003	-3.200342	0.210278	0.620892	0.169329	-0.649902	0.681641	0.208008	0.392494	-0.583491	-0.549507	-0.451142
24314		7.821035	0.118579	-2.641165	0.193813	0.682719	0.141150	-0.656494	0.687988	0.198975	0.399446	-0.579442	-0.546500	-0.453902
24315		7.813789	-0.154180	-2.353260	0.282319	0.736145	0.158778	-0.667480	0.692139	0.185547	0.407453	-0.574742	-0.543526	-0.456327
24316		7.789556	-0.900005	-1.912425	0.302641	0.765924	0.172187	-0.676270	0.702881	0.176514	0.415838	-0.569810	-0.540351	-0.458712
24317		7.648857	-0.401892	-2.123322	0.387081	0.798868	0.089295	-0.693604	0.707031	0.154541	0.424496	-0.563662	-0.537976	-0.461163
24318		8.156039	0.476350	-1.957318	0.387603	0.807474	0.017103	-0.702148	0.709229	0.143311	0.432770	-0.556886	-0.536020	-0.463973
24319		8.288626	0.811737	-1.276054	0.390337	0.822070	0.021700	-0.717529	0.717529	0.125488	0.441096	-0.550017	-0.533853	-0.466815
24320		8.423828	0.591710	-1.217593	0.407454	0.856057	0.033611	-0.723877	0.717529	0.110352	0.449774	-0.542869	-0.531436	-0.469652
24321		8.139877	0.739581	-1.643559	0.257535	0.852288	0.096579	-0.737061	0.730469	0.092285	0.457690	-0.536968	-0.527625	-0.473072
24322		8.280098	0.686407	-1.646466	0.095355	0.892051	0.146860	-0.751953	0.730225	0.081299	0.465020	-0.532027	-0.522223	-0.477480
24323		8.716826	0.097968	-1.076670	0.112293	0.933802	0.161170	-0.762939	0.734619	0.063721	0.472736	-0.526787	-0.516488	-0.481929
24324		8.480730	-0.344846	-1.186184	0.215665	0.973791	0.149827	-0.771729	0.740967	0.048096	0.481249	-0.520549	-0.511134	-0.485973
24325		8.626292	-0.859579	-1.206270	-0.020811	1.015486	0.153616	-0.781982	0.734375	0.031006	0.488411	-0.515451	-0.503959	-0.491721
24326		8.674839	-1.233786	-0.822068	-0.004019	1.084904	0.104786	-0.799316	0.738525	0.011230	0.495746	-0.509417	-0.496702	-0.498012
24327		8.402015	-0.292524	-0.700878	-0.118238	1.128094	0.111187	-0.812500	0.749268	-0.004639	0.502570	-0.503766	-0.488332	-0.505150
24328		9.063020	0.159919	0.254972	-0.135359	1.179985	0.141512	-0.816406	0.740723	-0.021729	0.509689	-0.497975	-0.479234	-0.512419
24329		9.197009	-0.392697	0.724514	-0.208788	1.176434	0.166208	-0.831299	0.740723	-0.039062	0.516377	-0.492711	-0.469428	-0.519835
24330		9.186233	-1.014816	0.962446	-0.057574	1.161596	0.135080	-0.846191	0.738281	-0.050049	0.523595	-0.486279	-0.460789	-0.526359
24331		8.787337	-0.295321	1.252936	-0.190107	1.117632	0.155826	-0.856934	0.740479	-0.076172	0.529785	-0.481024	-0.451343	-0.533135
24332		8.703571	-0.614076	2.352154	-0.156704	1.067945	0.169680	-0.865723	0.744629	-0.091797	0.535887	-0.475864	-0.442277	-0.539230
24333		9.031657	-0.748658	3.477896	-0.033408	0.958406	0.155314	-0.873779	0.738281	-0.104492	0.541933	-0.470459	-0.434786	-0.544001
24334		9.079690	-2.080979	5.251934	-0.153869	0.707418	0.129779	-0.871582	0.738281	-0.115479	0.545672	-0.467385	-0.428272	-0.548067
24335		8.996985	-1.576754	7.068765	-0.088350	0.326172	0.073683	-0.875977	0.740479	-0.124268	0.547340	-0.466151	-0.425104	-0.549917
24336		9.072888	-0.750799	6.363605	-0.109052	-0.108361	0.080948	-0.873779	0.738281	-0.117676	0.546621	-0.468078	-0.424707	-0.549302
24337		9.690924	-1.064063	4.837740	0.013230	-0.392875	0.056896	-0.876221	0.744629	-0.109131	0.544932	-0.470987	-0.427217	-0.546540
24338		9.500014	-0.775897	2.898644	0.054154	-0.566680	0.050324	-0.870117	0.749023	-0.093994	0.542489	-0.474750	-0.431207	-0.542566
24339		9.735764	-1.390497	0.675385	0.259461	-0.553404	0.005317	-0.865723	0.746826	-0.089600	0.541000	-0.476763	-0.436739	-0.537843
24340		9.483852	-0.859106	0.084191	0.177638	-0.442115	-0.005792	-0.852783	0.749023	-0.089600	0.539531	-0.478499	-0.441015	-0.534276
24341		9.466273	0.077764	-0.313458	0.185849	-0.282877	0.006592	-0.853027	0.751221	-0.087646	0.539057	-0.479172	-0.444189	-0.531515
24342		9.476509	-0.725894	0.131898	0.196542	-0.170210	0.022882	-0.855225	0.753418	-0.083252	0.539374	-0.479109	-0.446574	-0.529247
24343		9.626854	-1.009112	1.703671	0.032423	-0.149553	0.030650	-0.851074	0.755615	-0.083496	0.538871	-0.480056	-0.447687	-0.527960
24344		9.445234	-0.435902	1.755713	0.063384	-0.165656	0.020522	-0.848877	0.757812	-0.079102	0.538394	-0.480842	-0.449170	-0.526469
24345		9.448321	-0.909022	0.866103	0.102329	-0.164372	0.018154	-0.844727	0.759766	-0.072754	0.538139	-0.481342	-0.450911	-0.524781
24346		9.281776	-0.784662	2.104203	0.032200	-0.203687	0.014762	-0.840332	0.757812	-0.076904	0.537216	-0.482550	-0.452474	-0.523270
24347		9.325906	-0.858297	3.017038	-0.008513	-0.319289	0.022150	-0.846924	0.759766	-0.068359	0.535435	-0.484823	-0.454495	-0.521239
24348		9.050530	-0.439320	1.972451	0.030419	-0.436144	0.009919	-0.836182	0.757812	-0.061523	0.533134	-0.487516	-0.457610	-0.518352
24349		9.297611	-1.397519	2.293964	0.013628	-0.525727	-0.015790	-0.829834	0.755615	-0.046387	0.530030	-0.490737	-0.461351	-0.515170
24350		9.338430	-2.245194	2.578414	0.140828	-0.632852	-0.069514	-0.827637	0.753418	-0.039551	0.526714	-0.493467	-0.466921	-0.510928
24351		8.858259	-0.254923	2.177488	0.199817	-0.775733	-0.078156	-0.814941	0.762207	-0.029053	0.522828	-0.496631	-0.473817	-0.505476
24352		9.383957	-0.296172	2.615516	-0.053192	-0.918459	-0.028903	-0.806641	0.766357	-0.013916	0.516775	-0.502583	-0.479682	-0.500259
24353		8.904061	1.576882	0.434082	-0.109895	-0.960826	-0.037464	-0.793457	0.757812	0.008301	0.509985	-0.509045	-0.485446	-0.495106
24354		8.937118	0.189470	0.690229	-0.981633	-1.071262	0.076671	-0.776123	0.749512	0.032715	0.497561	-0.522316	-0.485677	-0.493697
24355		8.652179	-2.750895	0.835157	-0.202015	-1.130946	0.042868	-0.759277	0.753906	0.054199	0.489522	-0.530761	-0.491176	-0.487244
24356		7.133265	-1.323991	-2.596433	-0.028876	-1.081014	0.023928	-0.746338	0.749512	0.072021	0.482702	-0.537650	-0.497424	-0.480105
24357		8.447942	-0.491483	-1.239104	-0.434537	-1.018484	0.024067	-0.731445	0.751953	0.089355	0.473467	-0.546501	-0.500780	-0.475799
24358		8.871827	-0.571886	-1.343405	-0.163486	-0.946810	-0.024614	-0.722412	0.739014	0.107178	0.466200	-0.552888	-0.505611	-0.470457
24359		9.038564	-1.070119	-0.234044	-0.035060	-0.964471	-0.060704	-0.707520	0.741211	0.124756	0.459432	-0.558316	-0.511481	-0.464319
24360		7.817241	-1.670571	-1.250968	0.117981	-0.992212	-0.114368	-0.692871	0.745605	0.135498	0.453167	-0.562604	-0.518687	-0.457253
24361		6.967151	-0.932772	-3.652968	0.224464	-0.825634	-0.137271	-0.686279	0.745605	0.137695	0.448547	-0.565100	-0.525657	-0.450724
24362		9.325118	-0.368718	-1.835022	-0.238599	-0.781624	-0.122137	-0.666748	0.737305	0.153320	0.441005	-0.569952	-0.529641	-0.447382
24363		8.663960	-0.156827	-0.776202	0.186871	-0.813162	-0.213745	-0.654053	0.741699	0.164062	0.435713	-0.571972	-0.536761	-0.441463
24364		5.589436	-1.146855	-1.948948	0.231019	-0.762949	-0.143965	-0.651855	0.741699	0.168457	0.431396	-0.573895	-0.543275	-0.435194
24365		7.416159	0.654030	-5.892321	-0.192215	-0.510994	0.023390	-0.643311	0.739502	0.179443	0.426644	-0.577809	-0.544902	-0.432658
24366		9.912705	-1.420492	-2.336312	-0.077883	-0.397593	-0.157408	-0.632568	0.741943	0.181641	0.422491	-0.579249	-0.547832	-0.431106
24367		7.392110	0.271025	-2.710760	0.181543	-0.402266	-0.207295	-0.630371	0.735352	0.181885	0.419909	-0.578973	-0.552537	-0.427983
24368		7.710568	-0.167183	-1.641568	-0.007191	-0.455623	-0.168439	-0.626221	0.737549	0.192627	0.415787	-0.580213	-0.556217	-0.425554
24369		6.067037	-0.580019	-3.838565	0.036830	-0.355642	-0.113062	-0.621826	0.737549	0.188232	0.412911	-0.581125	-0.559123	-0.423297
24370		8.457327	0.302928	-3.816279	-0.173762	-0.224792	-0.073873	-0.621582	0.733398	0.195068	0.409619	-0.582694	-0.559948	-0.423247
24371		7.798561	-0.648262	-2.217862	-0.125049	-0.194027	-0.125669	-0.617188	0.729004	0.199707	0.406618	-0.583480	-0.561246	-0.423338
24372		7.227079	-0.349746	-1.908857	0.074886	-0.235091	-0.163524	-0.615234	0.731201	0.203857	0.404582	-0.583195	-0.564079	-0.421914
24373		7.025679	-0.178427	-2.117835	0.000835	-0.266126	-0.143027	-0.613037	0.729004	0.210449	0.401890	-0.583585	-0.566519	-0.420677
24374		7.285138	-0.020196	-3.372433	-0.051318	-0.225399	-0.091995	-0.604492	0.729248	0.210449	0.399370	-0.584377	-0.568100	-0.419845
24375		7.805776	0.011534	-2.620125	-0.094703	-0.227160	-0.106828	-0.606445	0.724854	0.208496	0.396437	-0.585283	-0.569566	-0.419376
24376		7.394643	-0.161157	-2.098821	-0.023699	-0.271108	-0.116065	-0.610596	0.720459	0.215332	0.393658	-0.585994	-0.571681	-0.418121
24377		6.632791	-0.207025	-2.423241	0.018723	-0.294255	-0.097000	-0.595459	0.716309	0.221924	0.391118	-0.586745	-0.573983	-0.416294
24378		7.427014	0.095508	-3.259733	-0.115341	-0.275055	-0.049586	-0.593506	0.722900	0.226074	0.387974	-0.588383	-0.575137	-0.415331
24379		7.630113	0.019094	-2.644444	-0.115734	-0.279636	-0.064844	-0.586914	0.716553	0.230713	0.384709	-0.589928	-0.576415	-0.414404
24380		6.369946	-0.407336	-2.467360	0.007445	-0.288030	-0.082711	-0.580566	0.716553	0.235107	0.382193	-0.590787	-0.578493	-0.412608
24381		7.340065	0.257916	-3.098571	-0.057369	-0.304704	-0.055763	-0.578369	0.720703	0.230713	0.379212	-0.592227	-0.580109	-0.411021
24382		7.404804	0.116335	-2.992633	0.002272	-0.324318	-0.076432	-0.576172	0.714355	0.237305	0.376417	-0.593326	-0.582267	-0.408948
24383		6.758100	0.247765	-3.211701	-0.019077	-0.326813	-0.050586	-0.571533	0.710205	0.239746	0.373571	-0.594716	-0.584126	-0.406883
24384		6.779718	-0.007807	-4.631483	-0.010813	-0.248683	-0.027274	-0.567383	0.712402	0.248291	0.371471	-0.595831	-0.585481	-0.405223
24385		7.396469	-0.233060	-4.483530	-0.025542	-0.147058	-0.058625	-0.563232	0.712402	0.241943	0.369843	-0.596266	-0.586522	-0.404567
24386		6.440881	0.026333	-4.004331	-0.005985	-0.011247	-0.084644	-0.571777	0.710205	0.248535	0.369224	-0.595731	-0.587228	-0.404896
24387		5.863264	-0.056432	-3.895470	-0.111526	0.094504	-0.046656	-0.573730	0.710205	0.246338	0.368787	-0.595425	-0.586630	-0.406608
24388		7.376972	0.648899	-3.665936	-0.156814	0.156728	-0.021501	-0.567139	0.703857	0.246582	0.368594	-0.595193	-0.585327	-0.408994
24389		7.112155	0.758708	-2.899704	-0.022693	0.150603	-0.018893	-0.571289	0.697266	0.244629	0.369367	-0.594389	-0.584716	-0.410338
24390		6.750023	0.523682	-2.238968	-0.047202	0.092086	0.031739	-0.575439	0.697266	0.244629	0.369788	-0.594367	-0.583871	-0.411193
24391		6.943682	0.160673	-2.250048	-0.096309	0.013689	0.076638	-0.573486	0.701660	0.244385	0.369502	-0.595302	-0.582800	-0.411617
24392		7.520986	-0.176299	-2.296709	-0.097414	-0.080235	0.086934	-0.567139	0.701660	0.253174	0.368575	-0.596799	-0.582077	-0.411302
24393		7.181202	-0.817509	-2.297262	0.020439	-0.127423	0.069988	-0.567139	0.703857	0.244385	0.368097	-0.597870	-0.582300	-0.409857
24394		6.203866	-0.508974	-3.299666	0.072572	-0.126448	0.057854	-0.564697	0.697266	0.249023	0.367952	-0.598607	-0.582873	-0.408094
24395		7.353949	-0.060712	-3.366680	0.026696	-0.145753	0.007065	-0.562988	0.708008	0.248535	0.367064	-0.599281	-0.583678	-0.406751
24396		7.418394	0.384619	-2.939400	0.112435	-0.178265	0.000824	-0.556396	0.706055	0.253174	0.366547	-0.599678	-0.585113	-0.404565
24397		6.530079	0.636427	-2.800822	0.038811	-0.169262	0.056760	-0.556641	0.708008	0.259521	0.365825	-0.600773	-0.585710	-0.402727
24398		5.653981	0.647171	-3.283581	0.052626	-0.158655	0.066359	-0.545898	0.708252	0.261719	0.365330	-0.601817	-0.586252	-0.400822
24399		6.663639	0.328011	-3.252163	0.077973	-0.165576	0.055047	-0.548096	0.710449	0.257324	0.364916	-0.602695	-0.587037	-0.398727
24400		7.130251	0.038164	-2.945842	0.141927	-0.166954	0.102700	-0.541748	0.716797	0.248291	0.365208	-0.603632	-0.587783	-0.395932
24401		5.963929	0.423609	-3.294862	0.057473	-0.180133	0.158407	-0.537842	0.721191	0.263428	0.365039	-0.605424	-0.587744	-0.393401
24402		5.803211	0.242971	-3.205231	0.153516	-0.165300	0.088606	-0.527100	0.723389	0.254639	0.365358	-0.606187	-0.588634	-0.390591
24403		6.198355	-0.321390	-3.368037	0.249598	-0.093420	0.050553	-0.529541	0.729736	0.250000	0.366744	-0.605873	-0.589948	-0.387787
24404		6.868421	-0.382916	-4.100224	0.236003	0.030498	0.074778	-0.529541	0.729736	0.256592	0.369056	-0.605193	-0.590438	-0.385905
24405		7.037834	-0.538654	-3.789931	0.271593	0.130677	0.054029	-0.533936	0.736328	0.243164	0.372271	-0.603705	-0.590789	-0.384608
24406		6.431055	-0.244676	-3.726921	0.322231	0.183304	0.034159	-0.540771	0.749023	0.236084	0.376155	-0.601572	-0.591278	-0.383418
24407		6.476239	-0.074931	-3.752312	0.258420	0.187869	0.053767	-0.540771	0.749023	0.240479	0.379681	-0.599850	-0.591282	-0.382633
24408		7.244135	0.308822	-3.411107	0.170974	0.169255	0.107607	-0.539062	0.757568	0.233643	0.382665	-0.599022	-0.590546	-0.382093
24409		7.294740	0.094585	-3.820554	0.153803	0.166277	0.167442	-0.541260	0.759766	0.229248	0.385781	-0.598726	-0.589288	-0.381367
24410		6.753444	-0.463555	-4.120931	0.039422	0.195688	0.172975	-0.549805	0.761719	0.229004	0.388279	-0.598875	-0.587295	-0.381671
24411		7.076367	-0.477928	-4.522140	0.011145	0.263902	0.167793	-0.547852	0.761719	0.226807	0.391036	-0.598791	-0.584869	-0.382712
24412		6.809049	0.041102	-4.640578	-0.217533	0.326143	0.160567	-0.547607	0.759766	0.229248	0.392494	-0.599461	-0.581089	-0.385915
24413		6.896417	0.245884	-4.383417	-0.464086	0.373851	0.219333	-0.551758	0.753174	0.231689	0.392717	-0.601510	-0.575423	-0.390958
24414		7.000938	0.201536	-4.176000	-0.460542	0.505126	0.277453	-0.564453	0.748779	0.231689	0.394166	-0.603274	-0.568652	-0.396647
24415		7.215385	-0.189732	-3.984594	-0.493687	0.604433	0.338964	-0.570557	0.740234	0.231934	0.396337	-0.605087	-0.560712	-0.402976
24416		6.963421	-0.736121	-3.849755	-0.377364	0.711477	0.342986	-0.579102	0.738037	0.227783	0.400112	-0.605743	-0.552734	-0.409232
24417		6.641023	-0.801417	-3.750992	-0.449199	0.809990	0.374412	-0.587402	0.729248	0.225830	0.404132	-0.606390	-0.543585	-0.416514
24418		7.160041	-1.528335	-3.237440	-0.341584	0.946128	0.369137	-0.600098	0.727051	0.219482	0.409876	-0.605557	-0.534366	-0.423976
24419		7.090622	-1.771709	-2.750772	-0.186338	1.061893	0.332340	-0.617432	0.729004	0.212646	0.417309	-0.602952	-0.525564	-0.431375
24420		7.121643	-2.613248	-2.269674	-0.050758	1.134253	0.265219	-0.630371	0.733154	0.190674	0.425792	-0.598697	-0.517507	-0.438692
24421		7.692114	-1.349129	-2.105059	0.087814	1.189990	0.141972	-0.651855	0.735107	0.181885	0.434936	-0.592447	-0.510752	-0.446061
24422		7.779497	-0.857038	-1.744513	-0.011548	1.185671	0.010489	-0.668701	0.730713	0.166748	0.442466	-0.585824	-0.504291	-0.454670
24423		7.510296	0.866182	-2.046102	-0.084045	1.190755	0.026649	-0.689941	0.728516	0.153564	0.449487	-0.579560	-0.497146	-0.463591
24424		8.334599	0.387713	-1.187231	-0.331824	1.164576	0.089071	-0.711426	0.728271	0.142578	0.454803	-0.575111	-0.488137	-0.473416
24425		8.525659	-0.332871	-0.520764	-0.440851	1.117293	0.104159	-0.725830	0.713135	0.127930	0.459034	-0.571530	-0.478526	-0.483378
24426		8.278580	-1.110079	-0.409392	-0.563337	1.081397	0.102837	-0.736328	0.706787	0.121582	0.462071	-0.568727	-0.468285	-0.493709
24427		8.095902	-1.717634	-0.442797	-0.178402	1.098361	0.085864	-0.755371	0.702393	0.102051	0.467732	-0.563391	-0.460327	-0.501913
24428		8.702713	-1.176854	0.477193	-0.223033	1.096162	0.092297	-0.768311	0.702148	0.091064	0.473027	-0.558254	-0.451970	-0.510216
24429		8.628374	-2.037730	0.871597	0.223564	1.049767	0.018136	-0.781250	0.706543	0.071289	0.480597	-0.550269	-0.447147	-0.516033
24430		8.720603	-0.008942	0.735161	0.272114	0.997600	-0.007863	-0.800537	0.710693	0.051514	0.487948	-0.542103	-0.443034	-0.521299
24431		8.978938	-0.500002	0.741386	0.181583	0.925629	0.005363	-0.809082	0.712646	0.033936	0.494284	-0.534961	-0.438597	-0.526433
24432		8.805656	-0.736712	0.748338	0.199583	0.884963	-0.005730	-0.821777	0.710449	0.016602	0.500357	-0.527864	-0.434526	-0.531216
24433		8.898478	-1.776555	1.960445	0.308722	0.805620	-0.008111	-0.830811	0.718994	0.000977	0.506643	-0.520534	-0.431637	-0.534833
24434		8.814713	-0.056547	2.671876	0.334414	0.652003	-0.003981	-0.837158	0.718994	-0.010010	0.512245	-0.514041	-0.429819	-0.537236
24435		9.776076	0.044089	3.818852	0.314814	0.442631	0.005302	-0.839355	0.725586	-0.027588	0.516626	-0.509094	-0.429120	-0.538309
24436		9.689136	0.379185	3.558073	0.378252	0.262533	0.002232	-0.841553	0.725586	-0.036377	0.520403	-0.504913	-0.430009	-0.537900
24437		9.479830	0.193559	3.360858	0.357373	0.073725	0.009307	-0.839600	0.729736	-0.034424	0.523065	-0.502160	-0.431924	-0.536358
24438		9.344370	0.313302	2.522990	-0.036854	-0.116661	0.044791	-0.839355	0.727783	-0.036377	0.522456	-0.503445	-0.432211	-0.535515
24439		9.907963	-0.832795	1.961587	-0.065718	-0.177633	0.039033	-0.835449	0.734131	-0.032471	0.521294	-0.505293	-0.432734	-0.534484
24440		9.538166	-1.578286	0.792641	0.158530	-0.146996	0.005164	-0.831055	0.731934	-0.034424	0.521484	-0.505288	-0.434765	-0.532652
24441		9.036499	-0.286955	-0.480723	0.090780	-0.062673	0.012009	-0.833496	0.738525	-0.030273	0.521748	-0.505198	-0.435750	-0.531672
24442		9.350132	0.078412	0.218233	-0.266819	0.001990	0.039993	-0.837158	0.725586	-0.027588	0.520289	-0.507161	-0.433760	-0.532860
24443		9.731196	-1.808382	1.649034	-0.223269	0.018602	0.045101	-0.833252	0.729736	-0.023438	0.519225	-0.508752	-0.431918	-0.533877
24444		9.108336	-0.903459	1.486964	0.011880	0.008134	0.014219	-0.837646	0.736084	-0.025879	0.519392	-0.508719	-0.431905	-0.533756
24445		9.217525	-0.921788	1.563054	-0.007620	-0.044136	0.012217	-0.833252	0.729736	-0.027832	0.519139	-0.509150	-0.432113	-0.533423
24446		9.513004	-1.079150	1.070674	0.039888	-0.045127	0.001683	-0.833252	0.731934	-0.025635	0.519113	-0.509222	-0.432710	-0.532895
24447		9.337356	-0.702800	1.041775	0.041397	-0.038507	-0.005643	-0.837402	0.727539	-0.023438	0.519083	-0.509200	-0.433320	-0.532448
24448		9.180867	-0.398733	1.298345	0.092402	-0.047201	-0.006330	-0.831055	0.729736	-0.023438	0.519326	-0.508901	-0.434330	-0.531674
24449		9.461832	-0.297622	1.609039	-0.071306	-0.080540	0.012286	-0.831055	0.734131	-0.021484	0.518469	-0.509987	-0.434349	-0.531455
24450		9.436404	-1.154996	1.658388	0.028201	-0.113608	0.004425	-0.829102	0.734131	-0.021484	0.518013	-0.510603	-0.435291	-0.530537
24451		9.211213	-0.879796	1.086746	0.044570	-0.131720	0.007725	-0.829102	0.736328	-0.017090	0.517584	-0.511250	-0.436435	-0.529392
24452		9.301406	-0.410721	1.388428	0.040069	-0.156597	0.004743	-0.826904	0.734131	-0.012695	0.516968	-0.512072	-0.437727	-0.528130
24453		9.478053	-0.295147	1.674837	-0.036323	-0.207341	0.016773	-0.826660	0.729736	-0.010254	0.515662	-0.513786	-0.438762	-0.526882
24454		9.203490	-0.056516	1.293565	-0.181041	-0.271212	0.020991	-0.820312	0.731934	-0.008301	0.513098	-0.516869	-0.439222	-0.525986
24455		9.452438	0.375587	1.846000	-0.786725	-0.384527	0.048277	-0.818115	0.725586	0.011719	0.506142	-0.524696	-0.436220	-0.527472
24456		9.439944	-2.492028	2.306200	-0.065295	-0.476742	-0.005305	-0.809326	0.719238	0.022705	0.503020	-0.528232	-0.438873	-0.524721
24457		9.054153	-1.532024	2.285948	-0.052434	-0.596632	-0.018164	-0.800781	0.719238	0.035889	0.499219	-0.532379	-0.442424	-0.521166
24458		8.495495	-0.789183	0.671762	0.199471	-0.683878	-0.066689	-0.794678	0.723633	0.040039	0.496261	-0.535218	-0.448449	-0.515907
24459		8.227046	-0.038015	-0.471114	-0.030555	-0.708051	-0.024811	-0.783936	0.723633	0.051025	0.491859	-0.539832	-0.452824	-0.511475
24460		9.514050	-1.380107	0.772876	0.089029	-0.672002	-0.040447	-0.779541	0.723633	0.066406	0.488337	-0.543345	-0.457820	-0.506660
24461		9.091163	-1.078932	0.604736	0.350827	-0.694413	-0.110989	-0.766846	0.728027	0.068359	0.485963	-0.544964	-0.465036	-0.500595
24462		8.315989	1.198903	0.038565	0.053504	-0.794403	0.000554	-0.756348	0.728027	0.079346	0.481652	-0.549592	-0.470211	-0.494835
24463		8.459441	-0.603335	0.157663	-0.010228	-0.889567	0.045658	-0.741211	0.726074	0.092529	0.476578	-0.555386	-0.475212	-0.488460
24464		9.004568	-1.355225	0.466422	-0.093421	-0.930646	0.047823	-0.726562	0.732666	0.109619	0.470642	-0.561857	-0.479880	-0.482211
24465		7.408190	-1.245593	-2.551139	0.247360	-0.812442	-0.029617	-0.718018	0.734863	0.118408	0.467286	-0.565072	-0.486394	-0.475141
24466		8.137752	-1.532681	-1.149648	0.005163	-0.801874	-0.057370	-0.705078	0.734863	0.127197	0.462071	-0.569406	-0.491557	-0.469722
24467		9.533597	-0.854247	1.240394	0.005636	-0.936332	-0.129855	-0.696533	0.728516	0.144775	0.455565	-0.573999	-0.497971	-0.463693
24468		7.872611	-1.320893	-2.020286	0.520469	-0.864836	-0.212956	-0.681885	0.739258	0.146729	0.452635	-0.574649	-0.507467	-0.455387
24469		7.313618	1.505915	-2.873794	-0.084382	-0.815085	-0.052023	-0.673340	0.739258	0.159668	0.446536	-0.579373	-0.512022	-0.450296
24470		8.226319	-1.074256	-2.800971	0.035556	-0.701869	-0.022504	-0.660645	0.741699	0.166260	0.442156	-0.582921	-0.516368	-0.445045
24471		9.135304	-0.210985	-1.328903	-0.055029	-0.724585	-0.078132	-0.647705	0.741699	0.177246	0.436631	-0.586681	-0.520710	-0.440477
24472		7.579299	-0.341892	-2.287109	0.072919	-0.722602	-0.111836	-0.634766	0.739746	0.188232	0.431831	-0.589464	-0.525946	-0.435241
24473		7.511424	-0.526818	-1.752443	-0.006193	-0.734299	-0.085836	-0.621826	0.739746	0.192627	0.426463	-0.592870	-0.530567	-0.430271
24474		7.798995	-0.096462	-2.386775	-0.156697	-0.716122	-0.032362	-0.613037	0.733398	0.206055	0.420363	-0.597269	-0.533855	-0.426102
24475		7.616859	-0.820302	-2.873090	0.027388	-0.638107	-0.052190	-0.600342	0.733398	0.217041	0.416015	-0.600114	-0.537817	-0.421364
24476		6.774026	-0.688043	-2.347574	-0.088450	-0.608065	-0.019639	-0.592041	0.742188	0.216553	0.411132	-0.603600	-0.540718	-0.417447
24477		7.419736	-1.578019	-3.571597	-0.110386	-0.540213	-0.016981	-0.579102	0.738037	0.223389	0.406559	-0.606796	-0.543145	-0.414127
24478		7.772982	-1.400747	-3.108535	0.195947	-0.449784	-0.139724	-0.578857	0.731445	0.230225	0.404268	-0.607110	-0.547603	-0.410018
24479		7.407921	-0.447174	-2.666745	0.142479	-0.466141	-0.192911	-0.568115	0.733643	0.232178	0.401157	-0.607403	-0.552234	-0.406414
24480		6.091133	-0.654909	-3.216118	0.213882	-0.396719	-0.161665	-0.564209	0.742432	0.229736	0.399167	-0.607230	-0.556559	-0.402714
24481		7.534089	-0.619767	-3.352134	0.077771	-0.330992	-0.109192	-0.557861	0.742432	0.231934	0.396854	-0.607754	-0.559459	-0.400184
24482		7.669391	-0.449264	-2.975392	0.247837	-0.341682	-0.196104	-0.555908	0.746826	0.238281	0.395312	-0.606863	-0.563908	-0.396804
24483		6.233323	-0.841050	-3.206002	0.156626	-0.319634	-0.211093	-0.549316	0.746826	0.234131	0.393148	-0.606189	-0.567892	-0.394295
24484		6.926574	-0.495111	-3.949205	0.035891	-0.232049	-0.185657	-0.551270	0.742432	0.236328	0.390808	-0.605844	-0.570647	-0.393171
24485		7.637387	-0.003275	-3.642256	0.079571	-0.182888	-0.225597	-0.553467	0.740234	0.236328	0.388948	-0.604751	-0.573672	-0.392296
24486		6.440011	-0.375899	-2.983493	0.064581	-0.183638	-0.199084	-0.553467	0.740234	0.236328	0.387093	-0.603916	-0.576420	-0.391388
24487		6.421504	-0.099550	-3.502951	0.008567	-0.144148	-0.141212	-0.553467	0.742432	0.240723	0.385379	-0.603570	-0.578261	-0.390897
24488		7.336987	-0.063116	-4.003216	-0.022575	-0.082713	-0.116260	-0.549072	0.740234	0.240723	0.383995	-0.603251	-0.579463	-0.390971
24489		7.202220	-0.210105	-3.390763	-0.021897	-0.067073	-0.122205	-0.548828	0.733887	0.239014	0.382698	-0.602807	-0.580638	-0.391184
24490		6.314618	-1.727449	-2.243900	0.015539	-0.081517	-0.117676	-0.549072	0.740234	0.245117	0.381600	-0.602285	-0.582030	-0.390993
24491		6.604325	0.064130	-3.102836	0.220383	-0.086152	-0.171997	-0.551025	0.733887	0.234619	0.381742	-0.600409	-0.584847	-0.389532
24492		7.275318	0.681156	-2.970547	0.104582	-0.125213	-0.143402	-0.544678	0.738281	0.238770	0.380865	-0.599479	-0.587067	-0.388483
24493		6.363677	0.198673	-2.482710	-0.038581	-0.160561	-0.090345	-0.544922	0.740479	0.245117	0.378911	-0.599787	-0.588357	-0.387966
24494		6.672576	0.182253	-3.685578	-0.041611	-0.151062	-0.037071	-0.544678	0.738281	0.243164	0.377260	-0.600452	-0.589186	-0.387290
24495		7.268211	-0.230701	-3.493378	0.002577	-0.160999	-0.078073	-0.544434	0.729736	0.247803	0.375666	-0.600651	-0.590581	-0.386403
24496		6.269892	-0.163650	-3.443011	-0.049426	-0.149088	-0.071779	-0.540283	0.729736	0.245605	0.373799	-0.601081	-0.591618	-0.385958
24497		6.675577	-0.266766	-3.688724	-0.176169	-0.122176	-0.043656	-0.540039	0.727539	0.250000	0.371312	-0.602177	-0.591705	-0.386518
24498		7.016387	-0.197633	-3.749218	-0.073089	-0.104428	-0.079967	-0.535889	0.727539	0.254395	0.369555	-0.602436	-0.592477	-0.386614
24499		6.357853	0.031570	-3.541037	-0.039688	-0.072046	-0.072494	-0.535889	0.729736	0.252197	0.368324	-0.602439	-0.593204	-0.386670
24500		6.747881	0.273120	-4.017858	-0.073726	-0.037562	-0.026527	-0.529297	0.721191	0.259033	0.367315	-0.602771	-0.593262	-0.387025
24501		6.889636	0.432113	-3.718801	-0.009661	-0.010355	-0.022305	-0.533691	0.725586	0.256836	0.367009	-0.602708	-0.593473	-0.387088
24502		6.671536	0.425960	-3.128289	-0.104233	-0.018888	0.032874	-0.537842	0.725342	0.260986	0.366194	-0.603528	-0.592850	-0.387536
24503		6.089704	-0.208919	-3.366312	-0.126213	-0.000806	0.072240	-0.535645	0.721191	0.261230	0.365537	-0.604652	-0.591740	-0.388101
24504		7.161353	-0.277437	-3.574485	-0.158957	0.000253	0.069253	-0.535400	0.716797	0.259277	0.364624	-0.605896	-0.590486	-0.388928
24505		7.198347	-0.435441	-2.983691	-0.054654	-0.020110	0.018038	-0.529053	0.717041	0.263672	0.364101	-0.606384	-0.590219	-0.389063
24506		6.431386	-0.161881	-2.971829	-0.013384	-0.070689	0.044420	-0.529053	0.717041	0.261475	0.363646	-0.607124	-0.590182	-0.388390
24507		6.249756	-0.175706	-2.860079	-0.035875	-0.168132	0.045096	-0.524658	0.717041	0.261475	0.362304	-0.608443	-0.590471	-0.387139
24508		6.540137	0.203634	-3.757579	0.006209	-0.172824	0.040263	-0.524658	0.717041	0.259277	0.361223	-0.609555	-0.591018	-0.385562
24509		7.305242	0.108189	-3.709481	-0.022289	-0.096557	0.050529	-0.522705	0.719238	0.265625	0.360536	-0.610502	-0.591004	-0.384728
