// Start Time: Unknown
// Update Rate: 40.0Hz
// Filter Profile: human (46.1)
// Firmware Version: 4.6.0
PacketCounter	SampleTimeFine	Acc_X	Acc_Y	Acc_Z	Gyr_X	Gyr_Y	Gyr_Z	Mag_X	Mag_Y	Mag_Z	Quat_q0	Quat_q1	Quat_q2	Quat_q3
23593		9.344449	1.987467	-2.203461	0.017780	-0.005992	-0.021567	-0.561279	-0.453125	0.594482	-0.263309	-0.762380	0.176326	-0.564229
23594		9.331004	2.012848	-2.167574	0.012515	-0.002923	-0.023875	-0.564453	-0.458496	0.594971	-0.263352	-0.762494	0.176019	-0.564150
23595		9.334864	2.000077	-2.200493	0.009153	-0.003422	-0.022035	-0.555664	-0.448242	0.582764	-0.263469	-0.762578	0.175755	-0.564065
23596		9.340352	2.000792	-2.208763	0.009642	-0.011623	-0.017423	-0.559082	-0.458252	0.599609	-0.263475	-0.762730	0.175559	-0.563918
23597		9.335746	1.972642	-2.197028	0.006497	-0.006389	-0.019757	-0.560791	-0.457031	0.598145	-0.263553	-0.762835	0.175345	-0.563805
23598		9.336526	1.965370	-2.237556	0.000757	-0.008940	-0.017304	-0.559570	-0.458984	0.600342	-0.263657	-0.762934	0.175206	-0.563666
23599		9.332373	2.028957	-2.213362	0.010852	-0.010066	-0.018281	-0.559082	-0.457275	0.598145	-0.263666	-0.763078	0.174993	-0.563533
23600		9.322713	2.037559	-2.180124	0.004952	-0.004042	-0.019741	-0.551025	-0.462158	0.595703	-0.263757	-0.763163	0.174786	-0.563440
23601		9.315597	2.009651	-2.249070	-0.001420	-0.008430	-0.019719	-0.561279	-0.457520	0.594238	-0.263967	-0.763237	0.174635	-0.563288
23602		9.331006	2.001874	-2.255789	0.010456	-0.002971	-0.026059	-0.561768	-0.459473	0.597168	-0.264071	-0.763329	0.174328	-0.563209
23603		9.339053	1.988665	-2.235537	0.019172	0.004560	-0.025669	-0.558105	-0.458008	0.594971	-0.264101	-0.763415	0.173939	-0.563199
23604		9.343954	2.000977	-2.232716	0.017555	-0.000523	-0.030153	-0.555908	-0.459717	0.595459	-0.264157	-0.763537	0.173545	-0.563129
23605		9.372808	2.031674	-2.197134	0.010250	0.000872	-0.023236	-0.565186	-0.460449	0.597168	-0.264246	-0.763614	0.173267	-0.563069
23606		9.329394	2.031719	-2.196328	0.001570	-0.003464	-0.016873	-0.554932	-0.456787	0.591797	-0.264353	-0.763667	0.173128	-0.562989
23607		9.306668	2.059919	-2.234404	-0.000470	0.002812	-0.021350	-0.557129	-0.464600	0.597168	-0.264520	-0.763667	0.172947	-0.562967
23608		9.275857	1.963625	-2.227225	0.002693	0.005548	-0.024808	-0.560547	-0.457764	0.594727	-0.264734	-0.763691	0.172689	-0.562912
23609		9.335254	1.981157	-2.338768	0.016782	0.000981	-0.019478	-0.552002	-0.458252	0.589600	-0.264689	-0.763767	0.172419	-0.562914
23610		9.392809	2.027139	-2.216996	0.017402	0.007615	-0.013767	-0.554688	-0.455078	0.591064	-0.264635	-0.763789	0.172198	-0.562976
23611		9.337299	2.017949	-2.147064	0.006002	0.000299	-0.010896	-0.553467	-0.458496	0.591064	-0.264613	-0.763822	0.172110	-0.562970
23612		9.307044	2.023119	-2.214579	0.005058	-0.004042	-0.013969	-0.562744	-0.460938	0.603271	-0.264652	-0.763879	0.172014	-0.562903
23613		9.296121	2.054424	-2.226847	0.006652	0.000517	-0.012903	-0.558838	-0.448486	0.592529	-0.264620	-0.763945	0.171882	-0.562868
23614		9.288558	2.060541	-2.220948	0.017048	0.003537	-0.016726	-0.551025	-0.455078	0.590088	-0.264463	-0.763997	0.171642	-0.562945
23615		9.320247	2.058558	-2.212562	0.019600	0.004977	-0.019214	-0.559326	-0.464844	0.600098	-0.264414	-0.764056	0.171356	-0.562975
23616		9.346098	2.046090	-2.142105	0.010804	0.001207	-0.013097	-0.553955	-0.448975	0.593994	-0.264415	-0.764118	0.171193	-0.562940
23617		9.340993	2.002519	-2.153518	-0.002106	-0.001698	-0.012390	-0.554932	-0.468018	0.596680	-0.264416	-0.764148	0.171122	-0.562920
23618		9.327771	1.994907	-2.225825	-0.007767	-0.003781	-0.008636	-0.560547	-0.463623	0.596924	-0.264623	-0.764145	0.171162	-0.562815
23619		9.333138	1.969633	-2.267602	0.007062	-0.004447	-0.013100	-0.557861	-0.456299	0.596436	-0.264644	-0.764192	0.171068	-0.562770
23620		9.327651	2.033599	-2.212611	0.019069	0.004193	-0.016962	-0.565186	-0.456299	0.590820	-0.264512	-0.764246	0.170816	-0.562835
23621		9.324127	2.039255	-2.154251	0.016586	0.002718	-0.016603	-0.556396	-0.460693	0.592041	-0.264420	-0.764233	0.170633	-0.562952
23622		9.334298	2.022100	-2.163276	0.004106	-0.004095	-0.009260	-0.553467	-0.455811	0.586670	-0.264460	-0.764243	0.170618	-0.562924
23623		9.327884	2.045176	-2.198436	-0.004540	-0.006905	-0.008482	-0.551270	-0.461426	0.599365	-0.264560	-0.764226	0.170687	-0.562879
23624		9.341721	2.030875	-2.220843	-0.003768	-0.004095	-0.011398	-0.560547	-0.458496	0.594482	-0.264658	-0.764283	0.170657	-0.562764
23625		9.293593	2.011702	-2.231793	0.000359	0.004577	-0.009481	-0.558594	-0.460449	0.586670	-0.264683	-0.764213	0.170623	-0.562858
23626		9.368851	2.018802	-2.179075	-0.003796	-0.002474	-0.006958	-0.558350	-0.468506	0.590820	-0.264817	-0.764126	0.170722	-0.562883
23627		9.365246	2.045539	-2.196352	-0.003915	0.003956	-0.005037	-0.553467	-0.454834	0.595459	-0.265034	-0.763997	0.170837	-0.562922
23628		9.294293	2.030968	-2.205310	-0.008028	-0.004180	-0.003544	-0.564697	-0.465332	0.585449	-0.265021	-0.764013	0.170896	-0.562888
23629		9.289646	2.067992	-2.214162	-0.011969	-0.004449	-0.006320	-0.560303	-0.449951	0.587646	-0.265282	-0.763846	0.171108	-0.562926
23630		9.337826	1.996433	-2.149561	-0.012773	0.000181	-0.004706	-0.560059	-0.453369	0.589111	-0.265276	-0.763741	0.171184	-0.563050
23631		9.354200	1.954575	-2.263995	0.006523	0.000076	-0.012076	-0.560303	-0.463135	0.591309	-0.265185	-0.763714	0.171073	-0.563163
23632		9.368651	1.989803	-2.186005	0.010301	0.007858	-0.006348	-0.559326	-0.457520	0.597412	-0.265183	-0.763617	0.171037	-0.563306
23633		9.351196	1.990796	-2.095613	0.004013	-0.005610	-0.001531	-0.558105	-0.460938	0.580811	-0.265009	-0.763662	0.171037	-0.563327
23634		9.328658	1.999288	-2.190039	0.000230	-0.007548	-0.005079	-0.562988	-0.454834	0.584473	-0.265166	-0.763558	0.171215	-0.563340
23635		9.286452	2.004398	-2.209932	0.010612	-0.001834	-0.005566	-0.558594	-0.462891	0.598145	-0.265041	-0.763468	0.171208	-0.563523
23636		9.335175	2.040942	-2.174589	0.028784	-0.000322	-0.007454	-0.557373	-0.456543	0.588135	-0.264784	-0.763562	0.170996	-0.563580
23637		9.328504	2.069648	-2.134938	0.024516	0.002210	-0.012101	-0.562988	-0.450684	0.595947	-0.264618	-0.763570	0.170796	-0.563708
23638		9.348356	2.033321	-2.123429	0.009413	-0.003925	-0.008122	-0.562500	-0.470215	0.583496	-0.264307	-0.763611	0.170632	-0.563849
23639		9.354323	2.034465	-2.196480	0.007238	-0.006076	-0.005958	-0.560059	-0.459473	0.591553	-0.264609	-0.763454	0.170848	-0.563854
23640		9.338979	2.005291	-2.135285	0.000149	-0.005383	-0.003016	-0.561279	-0.455811	0.587891	-0.264615	-0.763409	0.170925	-0.563888
23641		9.339963	1.970047	-2.209960	0.000118	-0.006967	-0.005331	-0.562012	-0.457520	0.599121	-0.264592	-0.763347	0.170982	-0.563965
23642		9.324620	1.987903	-2.190534	0.010447	-0.007052	-0.005879	-0.558105	-0.462891	0.597900	-0.264354	-0.763423	0.170868	-0.564010
23643		9.332487	1.999843	-2.172824	0.003519	-0.004852	-0.004874	-0.563232	-0.460205	0.592773	-0.264350	-0.763454	0.170878	-0.563967
23644		9.351241	1.992281	-2.163550	-0.001309	-0.010532	-0.003817	-0.556641	-0.447754	0.599365	-0.264355	-0.763417	0.170987	-0.563980
23645		9.346792	1.955897	-2.196918	-0.000658	-0.010314	-0.005826	-0.559326	-0.457520	0.592529	-0.264013	-0.763565	0.170850	-0.563982
23646		9.327589	1.936623	-2.209039	0.000558	-0.010887	-0.006617	-0.566406	-0.456055	0.602051	-0.263992	-0.763579	0.170901	-0.563958
23647		9.312346	1.948126	-2.264925	0.011909	-0.008279	-0.010675	-0.553711	-0.457764	0.592041	-0.263677	-0.763664	0.170723	-0.564044
23648		9.366918	1.974272	-2.216636	0.010948	-0.004650	-0.011637	-0.553711	-0.452148	0.603027	-0.263658	-0.763720	0.170639	-0.564002
23649		9.399755	2.004927	-2.195391	0.015725	-0.004772	-0.012748	-0.559326	-0.457764	0.589600	-0.263290	-0.763937	0.170322	-0.563976
23650		9.302768	1.961846	-2.124619	0.002863	-0.008810	-0.013040	-0.552734	-0.460693	0.593018	-0.263381	-0.763905	0.170365	-0.563964
23651		9.310677	1.996673	-2.212739	-0.007112	-0.010488	-0.011709	-0.555176	-0.456299	0.593018	-0.263593	-0.763939	0.170447	-0.563794
23652		9.341371	1.923863	-2.199337	-0.003144	-0.005473	-0.015723	-0.561768	-0.450195	0.587158	-0.263681	-0.763951	0.170414	-0.563747
23653		9.361714	1.892003	-2.282331	0.013095	-0.000382	-0.021814	-0.561279	-0.453125	0.594727	-0.263578	-0.763883	0.170238	-0.563940
23654		9.387446	1.962643	-2.209721	0.024954	0.005205	-0.020295	-0.555664	-0.451172	0.594238	-0.263307	-0.763896	0.169905	-0.564149
23655		9.358895	1.967131	-2.100901	0.014273	-0.003550	-0.015897	-0.559326	-0.462646	0.585693	-0.263087	-0.763981	0.169690	-0.564202
23656		9.326734	1.985313	-2.225550	0.003482	-0.007504	-0.014025	-0.555420	-0.463623	0.595947	-0.263380	-0.763862	0.169836	-0.564182
23657		9.310049	2.015582	-2.196888	0.015419	-0.004616	-0.017982	-0.559082	-0.453125	0.594727	-0.263442	-0.763933	0.169693	-0.564100
23658		9.318708	2.000718	-2.177255	0.014012	-0.000245	-0.016492	-0.562012	-0.457764	0.589600	-0.263253	-0.763954	0.169482	-0.564223
23659		9.333475	2.020766	-2.185439	0.017531	-0.006130	-0.020274	-0.562988	-0.451660	0.596924	-0.263245	-0.763925	0.169360	-0.564304
23660		9.360585	2.007916	-2.146113	0.009156	-0.004850	-0.014395	-0.556152	-0.457031	0.595703	-0.262992	-0.763948	0.169189	-0.564441
23661		9.350517	1.974863	-2.201707	0.001057	-0.006365	-0.012441	-0.567383	-0.449951	0.594971	-0.263002	-0.763980	0.169150	-0.564405
23662		9.341503	1.947219	-2.212137	0.001728	-0.008781	-0.009864	-0.562256	-0.453125	0.596924	-0.262762	-0.763932	0.169125	-0.564590
23663		9.338613	1.953859	-2.250570	0.009107	-0.007981	-0.011096	-0.565186	-0.450928	0.589111	-0.262539	-0.763967	0.169022	-0.564676
23664		9.327229	2.000101	-2.210119	0.017192	-0.007506	-0.011955	-0.561523	-0.456299	0.595459	-0.262334	-0.763908	0.168971	-0.564867
23665		9.343353	1.961606	-2.186810	0.006913	-0.008008	-0.008994	-0.560547	-0.456543	0.598877	-0.262247	-0.763907	0.168962	-0.564911
23666		9.344552	1.979235	-2.258709	0.006856	-0.011682	-0.009106	-0.558594	-0.453125	0.592529	-0.262105	-0.763981	0.168913	-0.564891
23667		9.354765	1.977697	-2.214997	0.015664	-0.006265	-0.012972	-0.553467	-0.461182	0.585693	-0.261967	-0.764006	0.168809	-0.564953
23668		9.329895	2.039939	-2.182080	0.013492	-0.004743	-0.016490	-0.562500	-0.456299	0.589844	-0.262238	-0.763952	0.168850	-0.564887
23669		9.345052	2.040804	-2.179677	0.006115	-0.005548	-0.015252	-0.559570	-0.459229	0.589844	-0.262314	-0.763862	0.168865	-0.564970
23670		9.320215	1.997655	-2.182547	-0.010024	-0.004424	-0.015730	-0.552246	-0.455322	0.596436	-0.262636	-0.763731	0.169001	-0.564957
23671		9.355867	2.000867	-2.283330	-0.008366	-0.010456	-0.012185	-0.559814	-0.459229	0.594727	-0.262711	-0.763810	0.169010	-0.564812
23672		9.332391	1.962223	-2.241031	-0.001790	-0.002899	-0.006084	-0.562256	-0.457275	0.593994	-0.262781	-0.763735	0.169096	-0.564856
23673		9.303493	1.968839	-2.198089	-0.013415	-0.011277	-0.009377	-0.559814	-0.454346	0.587646	-0.262913	-0.763667	0.169252	-0.564839
23674		9.308507	1.935006	-2.219879	-0.015319	-0.004581	-0.008919	-0.558350	-0.450928	0.597656	-0.263111	-0.763509	0.169443	-0.564903
23675		9.342443	1.886682	-2.295360	0.004380	-0.009479	-0.014439	-0.562988	-0.451660	0.587646	-0.262889	-0.763613	0.169277	-0.564915
23676		9.380087	1.963100	-2.292737	0.027347	0.001571	-0.015250	-0.559814	-0.454590	0.598633	-0.262653	-0.763549	0.169075	-0.565173
23677		9.370512	2.003954	-2.119480	0.025917	0.005398	-0.017181	-0.560059	-0.450439	0.591064	-0.262364	-0.763604	0.168728	-0.565336
23678		9.327694	1.993592	-2.193542	0.008616	-0.007714	-0.009943	-0.558105	-0.456543	0.597412	-0.262203	-0.763600	0.168683	-0.565429
23679		9.301925	2.013434	-2.250607	0.005573	-0.013147	-0.003983	-0.557373	-0.457275	0.593994	-0.262075	-0.763680	0.168707	-0.565373
23680		9.340358	1.997067	-2.231104	0.006046	-0.007007	0.000432	-0.552979	-0.452637	0.592529	-0.262012	-0.763670	0.168807	-0.565386
23681		9.339180	2.016533	-2.244199	0.021691	-0.006349	-0.011504	-0.562988	-0.453857	0.592041	-0.261823	-0.763772	0.168640	-0.565386
23682		9.315731	2.093142	-2.185741	0.020030	0.000186	-0.019579	-0.555176	-0.451660	0.590576	-0.261723	-0.763734	0.168444	-0.565543
23683		9.329946	2.139328	-2.129584	-0.005100	-0.004040	-0.009756	-0.560547	-0.460693	0.588623	-0.261799	-0.763685	0.168504	-0.565556
23684		9.346479	2.014055	-2.151882	-0.022858	-0.007988	-0.004602	-0.554688	-0.449219	0.593262	-0.262224	-0.763492	0.168883	-0.565506
23685		9.358795	1.898174	-2.246738	-0.020655	-0.007446	-0.011239	-0.559082	-0.454590	0.594727	-0.262324	-0.763473	0.168962	-0.565461
23686		9.371695	1.895361	-2.259739	-0.000777	-0.004462	-0.015270	-0.565430	-0.461914	0.589600	-0.262348	-0.763466	0.168903	-0.565478
23687		9.364457	1.926563	-2.220262	0.009123	-0.003723	-0.013407	-0.555176	-0.462402	0.594238	-0.262494	-0.763341	0.168953	-0.565563
23688		9.333470	1.937752	-2.213661	0.005417	-0.005703	-0.011127	-0.565186	-0.455811	0.593262	-0.262635	-0.763356	0.168974	-0.565472
23689		9.334277	1.919777	-2.234012	0.003046	-0.009369	-0.012806	-0.561035	-0.458984	0.594727	-0.262605	-0.763321	0.168968	-0.565535
23690		9.330231	1.937419	-2.262817	0.015736	-0.002021	-0.017431	-0.556885	-0.456543	0.591309	-0.262577	-0.763325	0.168814	-0.565588
23691		9.324986	1.956882	-2.262065	0.023168	-0.002269	-0.019717	-0.550049	-0.448486	0.588623	-0.262509	-0.763368	0.168592	-0.565628
23692		9.337703	1.997376	-2.252353	0.027821	-0.002812	-0.020009	-0.552734	-0.454346	0.588623	-0.262283	-0.763488	0.168270	-0.565667
23693		9.365265	2.028452	-2.189135	0.016524	-0.001836	-0.015777	-0.559570	-0.456543	0.597168	-0.262276	-0.763504	0.168142	-0.565686
23694		9.348790	2.014024	-2.183696	0.002389	-0.005881	-0.008545	-0.554932	-0.458740	0.597412	-0.262237	-0.763511	0.168136	-0.565697
23695		9.322956	1.997977	-2.188950	-0.006467	-0.011837	-0.005934	-0.563965	-0.453369	0.591797	-0.262323	-0.763557	0.168249	-0.565561
23696		9.320257	2.012865	-2.247051	-0.015806	-0.008621	-0.005434	-0.561035	-0.457031	0.595215	-0.262412	-0.763436	0.168443	-0.565625
23697		9.326184	1.959600	-2.257887	0.003180	-0.004149	-0.012517	-0.558838	-0.454346	0.590820	-0.262423	-0.763411	0.168412	-0.565663
23698		9.355660	1.953386	-2.266652	0.020520	0.003213	-0.014027	-0.558838	-0.452148	0.587158	-0.262306	-0.763378	0.168235	-0.565815
23699		9.366364	1.986889	-2.177061	0.013254	0.000243	-0.006876	-0.553711	-0.453369	0.595215	-0.262210	-0.763298	0.168207	-0.565975
23700		9.355618	1.996727	-2.179436	0.005020	-0.008628	-0.002964	-0.562744	-0.451416	0.590088	-0.262088	-0.763365	0.168221	-0.565938
23701		9.326223	1.960312	-2.226051	-0.004210	-0.007044	-0.001096	-0.567139	-0.453857	0.588867	-0.262037	-0.763267	0.168368	-0.566049
23702		9.310546	1.953260	-2.335967	-0.000500	-0.011358	0.001112	-0.559082	-0.456543	0.594727	-0.261981	-0.763156	0.168571	-0.566165
23703		9.337688	2.035464	-2.240428	0.021189	-0.001780	-0.004715	-0.562256	-0.457520	0.595459	-0.261796	-0.763175	0.168483	-0.566251
23704		9.348257	2.059489	-2.131349	0.011252	0.000625	-0.007747	-0.556396	-0.451172	0.591797	-0.261739	-0.763129	0.168440	-0.566352
23705		9.359086	1.997948	-2.163548	-0.009549	-0.003598	-0.007914	-0.554688	-0.456543	0.595459	-0.261812	-0.763078	0.168519	-0.566364
23706		9.341129	1.908283	-2.261156	-0.021322	-0.011367	-0.001341	-0.556885	-0.453369	0.593018	-0.262006	-0.763060	0.168779	-0.566221
23707		9.352109	1.907676	-2.311049	0.001294	-0.005896	-0.007493	-0.552246	-0.456787	0.593750	-0.261985	-0.763063	0.168797	-0.566221
23708		9.342003	1.907314	-2.227579	0.019329	0.000617	-0.012065	-0.559814	-0.457275	0.598633	-0.261922	-0.763120	0.168642	-0.566220
23709		9.362326	1.959745	-2.168815	0.013273	-0.004001	-0.012552	-0.560547	-0.456543	0.599121	-0.261828	-0.763175	0.168513	-0.566227
23710		9.341879	1.969829	-2.181459	0.003362	-0.006317	-0.008764	-0.556396	-0.454102	0.593750	-0.261776	-0.763206	0.168492	-0.566216
23711		9.349448	1.931719	-2.262294	0.001202	-0.009027	-0.009993	-0.569824	-0.452881	0.592285	-0.261786	-0.763238	0.168505	-0.566164
23712		9.330491	1.912830	-2.273558	0.011646	-0.005361	-0.012642	-0.561035	-0.452393	0.592041	-0.261661	-0.763176	0.168436	-0.566326
23713		9.340380	1.921812	-2.219703	0.011601	-0.003735	-0.008191	-0.559326	-0.453857	0.583740	-0.261543	-0.763157	0.168389	-0.566420
23714		9.353293	1.961051	-2.210000	0.004775	-0.007497	-0.011441	-0.561279	-0.456787	0.597656	-0.261653	-0.763081	0.168464	-0.566449
23715		9.367279	2.008004	-2.249913	0.001986	-0.008344	-0.012861	-0.560059	-0.451416	0.593506	-0.261669	-0.763110	0.168443	-0.566409
23716		9.328865	2.005313	-2.197027	0.004557	-0.002661	-0.011858	-0.552490	-0.458008	0.597412	-0.261614	-0.763093	0.168382	-0.566475
23717		9.341505	1.931627	-2.173907	-0.006169	-0.009884	-0.008720	-0.559326	-0.453857	0.591553	-0.261738	-0.763154	0.168461	-0.566313
23718		9.326676	1.941425	-2.258270	-0.017233	-0.010649	-0.007363	-0.554688	-0.457275	0.593018	-0.261915	-0.763092	0.168661	-0.566255
23719		9.324759	1.902546	-2.253938	-0.004654	-0.005342	-0.015643	-0.555908	-0.453125	0.593506	-0.262101	-0.763088	0.168680	-0.566168
23720		9.363760	1.925024	-2.313139	0.018795	0.000314	-0.022301	-0.562012	-0.454102	0.593262	-0.262024	-0.763144	0.168413	-0.566208
23721		9.379229	1.925635	-2.215128	0.018362	0.001599	-0.016415	-0.560547	-0.456299	0.591309	-0.261913	-0.763129	0.168223	-0.566336
23722		9.362612	1.955513	-2.185779	0.010752	-0.004940	-0.014581	-0.560303	-0.456787	0.602295	-0.261922	-0.763118	0.168160	-0.566365
23723		9.323243	1.964242	-2.218111	0.005729	-0.001626	-0.016170	-0.559570	-0.460693	0.593506	-0.261882	-0.763163	0.168021	-0.566364
23724		9.302143	1.959422	-2.284726	0.014448	-0.003479	-0.020310	-0.559814	-0.453613	0.597168	-0.261960	-0.763178	0.167886	-0.566348
23725		9.323969	2.001920	-2.264514	0.028525	0.002255	-0.023144	-0.552002	-0.460205	0.598633	-0.261761	-0.763252	0.167524	-0.566447
23726		9.354918	2.019814	-2.173239	0.025186	0.005356	-0.021152	-0.559326	-0.451172	0.594971	-0.261728	-0.763332	0.167226	-0.566444
23727		9.357402	2.008826	-2.146276	0.005555	0.000037	-0.015408	-0.563477	-0.452393	0.591553	-0.261682	-0.763317	0.167112	-0.566519
23728		9.341724	1.968301	-2.203716	-0.008396	-0.007328	-0.011203	-0.556396	-0.448486	0.593262	-0.261769	-0.763242	0.167201	-0.566554
23729		9.336892	1.952519	-2.246178	-0.005276	-0.004545	-0.014730	-0.562012	-0.451416	0.592041	-0.261791	-0.763236	0.167171	-0.566559
23730		9.344795	1.923604	-2.251077	0.008076	-0.000565	-0.015726	-0.559082	-0.447021	0.598877	-0.261745	-0.763196	0.167064	-0.566667
23731		9.350337	1.959320	-2.214158	0.009824	-0.000314	-0.018814	-0.552002	-0.457275	0.593506	-0.261565	-0.763251	0.166827	-0.566745
23732		9.352901	1.957335	-2.207293	0.000580	0.001220	-0.016924	-0.557617	-0.453857	0.590088	-0.261728	-0.763236	0.166771	-0.566707
23733		9.343142	1.915537	-2.241392	-0.004114	-0.007147	-0.011179	-0.562500	-0.457031	0.593994	-0.261832	-0.763199	0.166843	-0.566687
23734		9.344935	1.879252	-2.250508	0.007011	-0.007963	-0.017009	-0.551758	-0.454102	0.600830	-0.261861	-0.763210	0.166782	-0.566677
23735		9.337564	1.936888	-2.271948	0.012150	-0.001874	-0.019578	-0.558838	-0.450928	0.599609	-0.261785	-0.763328	0.166551	-0.566622
23736		9.285567	1.958021	-2.246678	0.016039	-0.001483	-0.014690	-0.554932	-0.458740	0.596680	-0.261577	-0.763395	0.166343	-0.566688
23737		9.385309	2.065194	-2.250928	0.015702	-0.005535	-0.015493	-0.561035	-0.454590	0.591309	-0.261547	-0.763474	0.166208	-0.566635
23738		9.337317	2.027549	-2.221576	0.016458	0.006204	-0.015935	-0.554688	-0.443359	0.589355	-0.261509	-0.763401	0.166055	-0.566796
23739		9.281028	1.978102	-2.211422	0.002946	-0.008730	-0.010946	-0.554443	-0.452148	0.600098	-0.261394	-0.763431	0.166027	-0.566817
23740		9.293720	2.043250	-2.262451	-0.010647	-0.009447	-0.004713	-0.553223	-0.454346	0.591064	-0.261396	-0.763471	0.166130	-0.566732
23741		9.363205	1.942705	-2.192492	-0.007454	-0.002984	-0.002319	-0.547852	-0.455811	0.606445	-0.261498	-0.763403	0.166293	-0.566728
23742		9.365695	1.904887	-2.294671	0.002003	-0.000409	-0.007108	-0.563721	-0.462402	0.593506	-0.261425	-0.763506	0.166213	-0.566648
23743		9.360746	1.905074	-2.252924	0.005298	-0.002909	-0.003540	-0.555176	-0.455322	0.596680	-0.261478	-0.763421	0.166318	-0.566707
23744		9.330548	1.947379	-2.231971	0.015973	-0.005053	-0.004693	-0.559570	-0.449463	0.596924	-0.261317	-0.763479	0.166268	-0.566717
23745		9.312205	2.012993	-2.224889	0.018709	0.001562	-0.011233	-0.559814	-0.454346	0.596191	-0.261093	-0.763499	0.166094	-0.566845
23746		9.302845	1.960980	-2.238677	0.004591	-0.001054	-0.009565	-0.564697	-0.453613	0.603271	-0.261073	-0.763470	0.166077	-0.566898
23747		9.341544	1.938969	-2.292254	0.020126	-0.002732	-0.010586	-0.565674	-0.448242	0.593506	-0.260816	-0.763530	0.165904	-0.566986
23748		9.347501	1.980976	-2.181511	0.036463	0.004663	-0.015407	-0.560791	-0.452148	0.594482	-0.260476	-0.763533	0.165595	-0.567228
23749		9.364586	1.987526	-2.132796	0.019171	0.001871	-0.014823	-0.556885	-0.449951	0.593506	-0.260361	-0.763526	0.165427	-0.567339
23750		9.343836	1.972082	-2.178909	-0.004999	-0.005689	-0.006236	-0.559082	-0.449463	0.597656	-0.260393	-0.763495	0.165527	-0.567338
23751		9.334553	1.944844	-2.254136	-0.006886	-0.011112	-0.001275	-0.565674	-0.455078	0.593994	-0.260341	-0.763505	0.165676	-0.567304
23752		9.325534	1.917103	-2.234722	0.011586	-0.002572	-0.007204	-0.560303	-0.457520	0.601074	-0.260274	-0.763452	0.165678	-0.567406
23753		9.328323	1.904539	-2.208708	0.011521	-0.002581	-0.013037	-0.551025	-0.447754	0.596436	-0.260230	-0.763488	0.165574	-0.567408
23754		9.354016	1.990389	-2.208438	0.006007	-0.009021	-0.009011	-0.564453	-0.453369	0.592041	-0.260131	-0.763580	0.165540	-0.567340
23755		9.349697	1.998193	-2.217307	0.003294	-0.004677	-0.010151	-0.555176	-0.458008	0.596436	-0.260163	-0.763516	0.165587	-0.567397
23756		9.308579	1.939711	-2.248835	-0.005647	-0.007503	-0.006523	-0.559082	-0.448730	0.593018	-0.260294	-0.763511	0.165711	-0.567308
23757		9.333484	1.941030	-2.236608	-0.004613	-0.010059	-0.006656	-0.558838	-0.452148	0.588867	-0.260301	-0.763500	0.165823	-0.567287
23758		9.297624	1.933733	-2.241892	-0.005837	-0.003757	-0.007982	-0.558838	-0.448242	0.595459	-0.260428	-0.763410	0.165953	-0.567311
23759		9.423048	1.979986	-2.309923	-0.001308	-0.007888	-0.012080	-0.559326	-0.453125	0.585938	-0.260415	-0.763427	0.165962	-0.567292
23760		9.345249	1.932799	-2.231809	0.004014	0.002899	-0.006162	-0.568359	-0.456055	0.595703	-0.260484	-0.763296	0.166043	-0.567412
23761		9.306242	1.904863	-2.183273	-0.017818	-0.013588	0.001499	-0.555176	-0.453613	0.595215	-0.260599	-0.763210	0.166368	-0.567381
23762		9.307877	1.961978	-2.289665	-0.018273	-0.008730	-0.008457	-0.557373	-0.446045	0.597412	-0.260802	-0.763182	0.166555	-0.567270
23763		9.320390	1.857440	-2.250057	-0.008944	-0.000299	-0.011112	-0.561279	-0.453613	0.589844	-0.260818	-0.763148	0.166571	-0.567303
23764		9.367370	1.865454	-2.323908	0.017927	0.000873	-0.016363	-0.552002	-0.455566	0.591797	-0.260774	-0.763122	0.166436	-0.567398
23765		9.392856	1.875556	-2.235989	0.023631	0.002040	-0.013283	-0.559326	-0.461426	0.594482	-0.260693	-0.763158	0.166273	-0.567435
23766		9.317894	1.900247	-2.208045	0.020460	0.001868	-0.014369	-0.563232	-0.449463	0.596191	-0.260688	-0.763154	0.166147	-0.567480
23767		9.335110	1.991560	-2.266428	0.016318	-0.002585	-0.014220	-0.564209	-0.453613	0.596680	-0.260528	-0.763180	0.166003	-0.567561
23768		9.311069	1.981966	-2.225243	0.008029	-0.002572	-0.011408	-0.564697	-0.451904	0.593750	-0.260481	-0.763162	0.165965	-0.567617
23769		9.321807	1.957198	-2.213903	0.008027	0.000006	-0.018182	-0.560059	-0.456787	0.595947	-0.260488	-0.763123	0.165864	-0.567695
23770		9.345493	1.971185	-2.191399	0.015867	0.000194	-0.021962	-0.561035	-0.455078	0.601318	-0.260507	-0.763145	0.165677	-0.567711
23771		9.341850	1.928348	-2.202285	0.007710	-0.002459	-0.016660	-0.564453	-0.453125	0.596680	-0.260493	-0.763179	0.165570	-0.567703
23772		9.374284	1.858864	-2.252316	-0.006089	-0.002119	-0.013053	-0.562256	-0.457520	0.583740	-0.260588	-0.763116	0.165616	-0.567732
23773		9.358245	1.887138	-2.252759	-0.000307	-0.011988	-0.012392	-0.557861	-0.446533	0.593018	-0.260763	-0.763066	0.165747	-0.567681
23774		9.344470	1.919774	-2.237865	0.009077	-0.005659	-0.014981	-0.563477	-0.446533	0.595947	-0.260674	-0.763105	0.165655	-0.567695
23775		9.332096	1.975995	-2.217200	0.007391	-0.003877	-0.016254	-0.556152	-0.448730	0.593506	-0.260578	-0.763118	0.165549	-0.567753
23776		9.324004	1.982904	-2.212531	0.007524	-0.005000	-0.019428	-0.559326	-0.452393	0.590576	-0.260570	-0.763163	0.165434	-0.567730
23777		9.340102	1.941068	-2.233082	0.002213	-0.004745	-0.017082	-0.561035	-0.446289	0.595703	-0.260659	-0.763143	0.165418	-0.567720
23778		9.336690	1.974364	-2.236287	0.008819	-0.002956	-0.021177	-0.552002	-0.455078	0.596191	-0.260592	-0.763175	0.165250	-0.567757
23779		9.333283	1.957743	-2.212648	-0.000064	-0.000111	-0.021812	-0.565430	-0.448242	0.594482	-0.260754	-0.763189	0.165165	-0.567689
23780		9.316684	1.928413	-2.260516	-0.002248	-0.005926	-0.017537	-0.561768	-0.459229	0.589844	-0.260782	-0.763165	0.165142	-0.567715
23781		9.410991	1.934668	-2.294729	0.002940	-0.006634	-0.019036	-0.556396	-0.448730	0.594482	-0.260952	-0.763138	0.165150	-0.567670
23782		9.365976	1.936349	-2.234505	0.005040	0.004481	-0.018759	-0.558350	-0.455566	0.597412	-0.260965	-0.763111	0.165022	-0.567738
23783		9.303251	1.924717	-2.203585	-0.008054	-0.010699	-0.016422	-0.562256	-0.455566	0.588623	-0.261113	-0.763140	0.165082	-0.567614
23784		9.308668	1.984828	-2.257724	-0.013053	-0.007985	-0.015602	-0.556152	-0.452148	0.593750	-0.261360	-0.763062	0.165226	-0.567563
23785		9.318128	1.896411	-2.245284	-0.004913	-0.001631	-0.020830	-0.560059	-0.460693	0.590576	-0.261509	-0.763043	0.165188	-0.567531
23786		9.369174	1.890826	-2.321080	0.014698	0.003899	-0.026691	-0.552734	-0.456543	0.592529	-0.261638	-0.763010	0.165002	-0.567569
23787		9.383895	1.946964	-2.218997	0.017408	0.006913	-0.025372	-0.554199	-0.452637	0.595215	-0.261690	-0.763015	0.164764	-0.567608
23788		9.337462	1.976172	-2.189720	0.010847	-0.002225	-0.021458	-0.565430	-0.454346	0.591797	-0.261685	-0.763070	0.164605	-0.567583
23789		9.325723	1.956031	-2.205685	0.006380	-0.002377	-0.023026	-0.554932	-0.451904	0.603271	-0.261749	-0.763040	0.164496	-0.567625
23790		9.328929	1.961765	-2.248683	0.003719	-0.001217	-0.022968	-0.562256	-0.451416	0.595703	-0.261757	-0.763109	0.164328	-0.567577
23791		9.342991	1.975540	-2.236073	0.014722	0.001839	-0.024479	-0.556152	-0.451660	0.591553	-0.261704	-0.763120	0.164097	-0.567654
23792		9.341611	2.048243	-2.208498	0.019852	0.001689	-0.028395	-0.564941	-0.455322	0.599121	-0.261678	-0.763161	0.163812	-0.567693
23793		9.347665	2.033829	-2.174462	0.004360	0.001641	-0.023807	-0.564209	-0.454590	0.594238	-0.261737	-0.763137	0.163669	-0.567739
23794		9.324690	1.957444	-2.189540	-0.007522	-0.005203	-0.019759	-0.555420	-0.447754	0.591797	-0.261891	-0.763093	0.163690	-0.567721
23795		9.347649	1.964034	-2.242002	-0.006090	-0.005815	-0.019014	-0.561523	-0.455078	0.601807	-0.261980	-0.763095	0.163678	-0.567681
23796		9.335104	1.945708	-2.228393	0.010842	0.001475	-0.021391	-0.548828	-0.463867	0.594971	-0.261938	-0.763121	0.163491	-0.567720
23797		9.319882	1.990119	-2.202795	0.011582	-0.001455	-0.022227	-0.553467	-0.452148	0.593506	-0.262067	-0.763176	0.163369	-0.567621
23798		9.327395	2.072204	-2.186273	0.004492	-0.006218	-0.021585	-0.557129	-0.449463	0.603516	-0.262113	-0.763230	0.163273	-0.567555
23799		9.339240	2.013961	-2.218336	-0.007204	-0.002736	-0.021301	-0.553467	-0.454346	0.600342	-0.262169	-0.763260	0.163193	-0.567512
23800		9.316018	1.980211	-2.239391	0.000951	-0.000009	-0.026639	-0.553955	-0.452637	0.598145	-0.262273	-0.763300	0.163028	-0.567458
23801		9.336129	1.934749	-2.251768	0.004792	-0.001652	-0.025364	-0.555664	-0.458252	0.597900	-0.262319	-0.763349	0.162858	-0.567419
23802		9.324124	1.957098	-2.273389	0.010213	0.000727	-0.022814	-0.556152	-0.454590	0.592773	-0.262358	-0.763377	0.162693	-0.567410
23803		9.377585	1.998539	-2.245264	0.010824	-0.001623	-0.023913	-0.556152	-0.453857	0.594727	-0.262387	-0.763402	0.162534	-0.567410
23804		9.342692	2.008571	-2.224071	0.013416	0.005610	-0.024923	-0.560303	-0.454590	0.595947	-0.262391	-0.763396	0.162311	-0.567479
23805		9.292840	2.001071	-2.196018	0.001732	-0.006562	-0.019565	-0.557129	-0.458496	0.594238	-0.262435	-0.763415	0.162264	-0.567446
23806		9.304999	2.024338	-2.269649	-0.001499	-0.001519	-0.018235	-0.552979	-0.462402	0.590332	-0.262569	-0.763385	0.162258	-0.567428
23807		9.324658	1.972001	-2.232384	0.011906	0.002604	-0.029477	-0.559570	-0.463867	0.598877	-0.262736	-0.763384	0.162066	-0.567405
23808		9.350807	1.990675	-2.316917	0.027674	0.008374	-0.030978	-0.563477	-0.456543	0.588379	-0.262717	-0.763412	0.161702	-0.567481
23809		9.357454	2.009976	-2.173897	0.022590	0.003297	-0.021462	-0.552490	-0.455811	0.599854	-0.262649	-0.763379	0.161504	-0.567612
23810		9.359404	2.050551	-2.173585	0.011671	0.000140	-0.022092	-0.560303	-0.462402	0.585938	-0.262633	-0.763439	0.161323	-0.567591
23811		9.335074	2.051350	-2.151933	0.006508	-0.001823	-0.021791	-0.561035	-0.461182	0.592041	-0.262795	-0.763383	0.161288	-0.567601
23812		9.312538	2.038751	-2.263361	-0.000223	-0.004144	-0.016814	-0.560303	-0.451904	0.601807	-0.262927	-0.763342	0.161321	-0.567586
23813		9.308444	2.031228	-2.230970	0.014135	-0.000869	-0.015706	-0.551758	-0.459717	0.593018	-0.262766	-0.763386	0.161168	-0.567644
23814		9.330550	2.080788	-2.165739	0.013284	0.000014	-0.016347	-0.552979	-0.452637	0.598145	-0.262775	-0.763403	0.161080	-0.567642
23815		9.336252	2.049192	-2.156873	-0.005711	-0.001792	-0.012390	-0.557861	-0.450439	0.593994	-0.262829	-0.763392	0.161118	-0.567622
23816		9.341318	2.016947	-2.243106	-0.015927	-0.009939	-0.009446	-0.559082	-0.455811	0.588867	-0.262932	-0.763362	0.161294	-0.567565
23817		9.326221	2.009131	-2.286544	0.002955	-0.003920	-0.015741	-0.552246	-0.463867	0.595215	-0.262990	-0.763329	0.161303	-0.567580
23818		9.342791	1.978177	-2.202532	0.012241	0.000983	-0.018553	-0.548340	-0.461914	0.592285	-0.263049	-0.763344	0.161208	-0.567559
23819		9.350137	1.968106	-2.218751	0.009606	-0.006216	-0.015383	-0.558350	-0.463379	0.594238	-0.263102	-0.763400	0.161187	-0.567466
23820		9.343286	2.028968	-2.225104	0.012254	-0.005765	-0.013121	-0.553711	-0.459961	0.602051	-0.263094	-0.763423	0.161174	-0.567442
23821		9.332614	2.055565	-2.202826	0.011338	-0.004345	-0.016180	-0.558594	-0.460449	0.593262	-0.263055	-0.763497	0.161088	-0.567385
23822		9.329178	2.053858	-2.220655	0.007926	-0.006536	-0.014421	-0.561523	-0.468750	0.590820	-0.263072	-0.763510	0.161087	-0.567359
23823		9.319069	2.047104	-2.211837	0.004828	-0.002628	-0.016277	-0.553223	-0.458252	0.586182	-0.263226	-0.763457	0.161126	-0.567348
23824		9.315087	2.022176	-2.233607	0.002491	-0.003188	-0.013267	-0.550781	-0.461670	0.598389	-0.263317	-0.763420	0.161177	-0.567342
23825		9.361926	2.014575	-2.268423	0.007867	-0.005992	-0.016844	-0.554688	-0.455078	0.593506	-0.263356	-0.763486	0.161141	-0.567245
23826		9.350697	2.075371	-2.231571	0.012806	0.001819	-0.015015	-0.552734	-0.454834	0.598877	-0.263298	-0.763481	0.161047	-0.567305
23827		9.316392	2.034794	-2.155036	-0.004616	-0.005383	-0.011397	-0.559082	-0.462158	0.602783	-0.263345	-0.763493	0.161116	-0.567247
23828		9.323224	2.023442	-2.265719	-0.021776	-0.008531	-0.006997	-0.553223	-0.457275	0.588867	-0.263553	-0.763446	0.161383	-0.567137
23829		9.308357	1.975402	-2.272672	-0.001314	-0.000019	-0.014378	-0.559814	-0.458252	0.592529	-0.263665	-0.763391	0.161424	-0.567149
23830		9.339957	1.992559	-2.304653	0.015177	0.008109	-0.016482	-0.556152	-0.457764	0.597656	-0.263624	-0.763327	0.161296	-0.567290
23831		9.373847	2.016389	-2.196427	0.017197	0.006245	-0.009928	-0.560303	-0.455566	0.594238	-0.263496	-0.763307	0.161205	-0.567403
23832		9.362736	2.043667	-2.143639	0.006658	-0.004908	-0.006717	-0.559570	-0.459961	0.586182	-0.263410	-0.763297	0.161259	-0.567440
23833		9.315504	2.068174	-2.210423	0.001874	-0.005503	-0.008981	-0.556396	-0.451416	0.591309	-0.263467	-0.763244	0.161374	-0.567452
23834		9.290352	2.059572	-2.234205	0.002592	-0.001135	-0.011807	-0.553223	-0.457275	0.593506	-0.263448	-0.763213	0.161384	-0.567500
23835		9.305120	2.044982	-2.256298	0.016891	-0.002973	-0.008814	-0.555908	-0.467529	0.594971	-0.263322	-0.763250	0.161350	-0.567519
23836		9.365140	2.074456	-2.185789	0.023198	0.000614	-0.010037	-0.557373	-0.462646	0.591797	-0.263239	-0.763267	0.161295	-0.567550
23837		9.336031	2.024710	-2.131053	0.005317	0.002409	-0.009202	-0.557861	-0.461426	0.598145	-0.263290	-0.763198	0.161357	-0.567601
23838		9.327533	1.996447	-2.205141	-0.004561	-0.010053	-0.002323	-0.557373	-0.459229	0.596436	-0.263322	-0.763198	0.161571	-0.567526
23839		9.323543	2.033881	-2.229880	0.009224	-0.008030	-0.000224	-0.553467	-0.460449	0.588623	-0.263198	-0.763222	0.161695	-0.567515
23840		9.338262	2.003093	-2.183243	0.005938	-0.005101	-0.002518	-0.556885	-0.456787	0.591553	-0.263185	-0.763199	0.161841	-0.567511
23841		9.351879	1.997237	-2.197113	0.004353	-0.007550	-0.001455	-0.557373	-0.452637	0.602295	-0.263120	-0.763191	0.161990	-0.567509
23842		9.329190	1.991262	-2.206303	0.008946	-0.010003	-0.003256	-0.555664	-0.455322	0.595947	-0.262937	-0.763265	0.162050	-0.567477
23843		9.330513	2.004562	-2.212987	0.011689	-0.006998	-0.004104	-0.556152	-0.453125	0.598877	-0.262798	-0.763305	0.162105	-0.567472
23844		9.327209	1.969162	-2.215606	0.013368	-0.005134	-0.010778	-0.557861	-0.457764	0.593506	-0.262664	-0.763362	0.162061	-0.567470
23845		9.322966	2.007844	-2.240102	0.011171	-0.006274	-0.007495	-0.566895	-0.460205	0.589111	-0.262588	-0.763380	0.162108	-0.567468
23846		9.351305	2.069218	-2.222840	0.013805	-0.004771	-0.006361	-0.552490	-0.455566	0.593506	-0.262500	-0.763342	0.162165	-0.567543
23847		9.311451	2.027669	-2.170086	0.006124	-0.003636	-0.006662	-0.558838	-0.457275	0.596680	-0.262469	-0.763344	0.162240	-0.567534
23848		9.406596	2.007031	-2.238675	-0.006328	-0.009304	-0.000309	-0.558594	-0.450195	0.598633	-0.262487	-0.763320	0.162481	-0.567488
23849		9.293096	1.924491	-2.205687	-0.007274	-0.012996	0.012442	-0.552246	-0.454590	0.593018	-0.262346	-0.763311	0.162822	-0.567468
23850		9.305131	1.991571	-2.213793	-0.026301	-0.021094	0.019494	-0.562256	-0.455322	0.590332	-0.262400	-0.763277	0.163432	-0.567313
23851		9.363827	1.947147	-2.159526	-0.021197	-0.014938	0.014665	-0.552490	-0.450195	0.596436	-0.262444	-0.763182	0.163950	-0.567272
23852		9.319173	1.919229	-2.373282	0.006409	-0.004683	0.015790	-0.560547	-0.452148	0.598145	-0.262190	-0.763165	0.164206	-0.567337
23853		9.370634	1.978104	-2.175601	0.022534	-0.002591	0.019420	-0.554932	-0.451660	0.591797	-0.261759	-0.763156	0.164385	-0.567497
23854		9.750129	1.683008	-2.144051	-0.059744	-0.184550	0.027807	-0.555908	-0.449219	0.603760	-0.261720	-0.764144	0.165842	-0.565759
23855		9.249689	1.795776	-2.331929	-0.021736	-0.097423	0.053030	-0.555176	-0.454834	0.595215	-0.261247	-0.764615	0.166944	-0.565016
23856		9.084527	2.225981	-2.771588	0.117089	-0.090619	0.006890	-0.549072	-0.454102	0.597900	-0.259878	-0.765543	0.166663	-0.564474
23857		9.204590	2.290286	-1.997025	0.167843	0.046012	-0.039560	-0.555420	-0.448730	0.595703	-0.258657	-0.765782	0.165141	-0.565158
23858		9.282857	2.124187	-1.915995	0.031577	0.004155	-0.027537	-0.563477	-0.449463	0.596680	-0.258538	-0.765821	0.164821	-0.565253
23859		9.285745	2.000092	-2.356267	-0.046162	0.017840	-0.038593	-0.555420	-0.454102	0.603027	-0.259255	-0.765510	0.164898	-0.565323
23860		9.350187	1.851370	-2.224344	-0.090001	0.036798	-0.027790	-0.554199	-0.448242	0.596191	-0.260377	-0.764949	0.165326	-0.565441
23861		9.461438	1.777953	-2.186426	-0.120991	0.028853	0.008561	-0.562744	-0.457764	0.600342	-0.261478	-0.764262	0.166322	-0.565570
23862		9.363640	1.655357	-2.292386	-0.124845	-0.006613	0.033378	-0.562012	-0.461914	0.593506	-0.262396	-0.763747	0.167723	-0.565427
23863		9.258793	1.804028	-2.673725	-0.036459	-0.041090	0.026075	-0.558594	-0.457764	0.595459	-0.262496	-0.763760	0.168576	-0.565109
23864		9.307277	2.003888	-2.566364	0.100575	0.027732	-0.010478	-0.548096	-0.453125	0.594971	-0.261654	-0.763836	0.167862	-0.565609
23865		9.375351	1.884405	-2.053394	0.103197	0.068105	-0.028897	-0.557617	-0.452881	0.597656	-0.261004	-0.763708	0.166812	-0.566393
23866		9.385771	1.888187	-2.037223	0.026866	0.011474	-0.016495	-0.554932	-0.456543	0.593750	-0.260855	-0.763684	0.166599	-0.566556
23867		9.364032	2.002879	-2.290706	-0.020194	-0.032055	-0.004908	-0.560547	-0.452393	0.600342	-0.261037	-0.763781	0.167007	-0.566221
23868		9.330736	1.980290	-2.364061	-0.023966	0.000109	-0.008701	-0.560791	-0.449463	0.593018	-0.261274	-0.763656	0.167255	-0.566208
23869		9.297229	1.866978	-2.356547	0.005363	0.018329	-0.027535	-0.561523	-0.456787	0.597168	-0.261398	-0.763515	0.167057	-0.566399
23870		9.377789	1.959190	-2.303461	0.039467	0.007614	-0.044890	-0.561279	-0.452148	0.595947	-0.261342	-0.763604	0.166516	-0.566464
23871		9.339765	1.936018	-2.252034	0.023936	0.015274	-0.024824	-0.564209	-0.454834	0.593506	-0.261274	-0.763546	0.166229	-0.566657
23872		9.269046	1.863144	-2.246930	-0.009609	-0.003311	-0.008110	-0.555420	-0.465576	0.603027	-0.261395	-0.763456	0.166423	-0.566667
23873		9.338805	1.891145	-2.319803	-0.014734	-0.010019	-0.012602	-0.562988	-0.446533	0.592773	-0.261659	-0.763455	0.166670	-0.566473
23874		9.359420	1.858756	-2.198756	-0.010092	0.005101	-0.022394	-0.561768	-0.455811	0.594971	-0.261832	-0.763346	0.166655	-0.566545
23875		9.352367	1.853200	-2.324214	-0.004329	0.002724	-0.019424	-0.555908	-0.456787	0.592529	-0.261994	-0.763269	0.166681	-0.566566
23876		9.340432	1.842095	-2.329328	0.016219	0.004574	-0.015585	-0.558838	-0.443848	0.593262	-0.261965	-0.763247	0.166608	-0.566631
23877		9.347913	1.836869	-2.192117	0.027478	-0.002694	-0.016128	-0.555420	-0.451904	0.601074	-0.261700	-0.763323	0.166396	-0.566713
23878		9.350268	1.834877	-2.157452	0.022700	-0.001167	-0.006712	-0.558594	-0.457764	0.593750	-0.261469	-0.763380	0.166335	-0.566761
23879		9.381204	1.792183	-2.182205	-0.003598	-0.018098	0.016412	-0.565186	-0.452393	0.593994	-0.261362	-0.763380	0.166791	-0.566676
23880		9.327974	1.585079	-2.167409	-0.001283	-0.033261	0.061698	-0.551514	-0.450195	0.598145	-0.260822	-0.763387	0.167680	-0.566653
23881		9.250011	1.259797	-2.134411	-0.010612	-0.069803	0.125287	-0.565674	-0.452393	0.594971	-0.259851	-0.763544	0.169352	-0.566390
23882		9.548154	1.214693	-2.436742	-0.033507	-0.156473	0.182670	-0.559326	-0.448486	0.599854	-0.258524	-0.764054	0.172046	-0.565497
23883		9.563197	0.961383	-2.292617	-0.028538	-0.171630	0.277248	-0.561279	-0.441162	0.609619	-0.256432	-0.764504	0.175644	-0.564734
23884		9.356609	0.439325	-2.519356	-0.077306	-0.196917	0.386647	-0.554688	-0.438232	0.605469	-0.253914	-0.764743	0.180672	-0.563962
23885		9.273776	-0.249634	-3.353059	-0.014283	-0.220916	0.490974	-0.556152	-0.431396	0.602539	-0.250042	-0.765086	0.186359	-0.563376
23886		9.504661	-0.898165	-3.173018	0.154913	-0.282913	0.672227	-0.562256	-0.422119	0.614990	-0.243134	-0.765902	0.192802	-0.563123
23887		9.243915	-1.851662	-3.302668	0.367641	-0.256136	0.848552	-0.572510	-0.406250	0.616699	-0.232979	-0.766666	0.199349	-0.564095
23888		8.589138	-3.017747	-3.221688	0.713943	-0.236039	1.073816	-0.570068	-0.370361	0.633301	-0.217945	-0.767534	0.205560	-0.566689
23889		7.980575	-2.518906	-2.670329	1.177643	0.247633	1.095645	-0.581055	-0.331299	0.633789	-0.199394	-0.765971	0.207285	-0.574947
23890		7.210844	-2.145918	-2.960642	0.850152	0.572780	1.022079	-0.603760	-0.315186	0.630127	-0.185261	-0.761145	0.209784	-0.585088
23891		7.067401	-2.424265	-1.613382	0.800051	0.496782	1.254699	-0.614746	-0.277344	0.628906	-0.169760	-0.755830	0.215059	-0.594687
23892		5.702740	-2.358705	-0.569619	0.688740	0.236198	1.673443	-0.638184	-0.241455	0.625488	-0.151377	-0.750762	0.225570	-0.602129
23893		6.856902	4.291418	1.517637	0.055137	-0.057217	1.800856	-0.635010	-0.198486	0.631836	-0.137092	-0.745896	0.242475	-0.605021
23894		9.299526	3.282932	-6.435054	-0.780522	-0.264252	1.469206	-0.644531	-0.181152	0.626221	-0.132266	-0.741880	0.262772	-0.602554
23895		10.936366	-5.093235	-6.498264	0.251753	-0.002386	1.184830	-0.640869	-0.156250	0.632324	-0.120764	-0.738245	0.272047	-0.605310
23896		8.528464	-3.319107	-1.602365	1.239286	0.120616	1.092830	-0.652588	-0.129150	0.640869	-0.101204	-0.735270	0.272820	-0.612131
23897		12.752111	7.620707	-0.363522	0.655965	0.002038	0.675497	-0.649170	-0.108887	0.641602	-0.089878	-0.733656	0.274377	-0.615132
23898		15.931038	2.921634	-3.007624	-0.140461	0.043824	0.045909	-0.648682	-0.112305	0.632568	-0.090851	-0.732955	0.276180	-0.615019
23899		16.416544	-3.102470	-3.742626	-0.032049	0.083503	-0.046346	-0.652344	-0.110596	0.638184	-0.091716	-0.732372	0.276190	-0.615579
23900		19.011699	5.470033	-1.187117	0.230026	0.313964	-0.805418	-0.651611	-0.118164	0.631836	-0.096774	-0.732905	0.266973	-0.618232
23901		23.793211	5.338219	-3.784208	-0.437176	0.271156	-1.503426	-0.651855	-0.149658	0.628662	-0.113156	-0.735120	0.256436	-0.617280
23902		24.463541	7.479512	-5.706886	-0.832862	0.118649	-2.135617	-0.648682	-0.197754	0.613770	-0.137491	-0.739552	0.243147	-0.612404
23903		21.805722	-0.292421	-3.007813	-0.256130	0.222195	-2.755345	-0.641846	-0.257568	0.612549	-0.161440	-0.745292	0.219118	-0.608657
23904		15.524315	-7.197725	-0.119308	-0.737492	-0.062382	-2.079954	-0.632324	-0.297363	0.598633	-0.183894	-0.749637	0.205394	-0.601699
23905		8.228444	-2.285105	-1.756037	-0.904287	-0.146706	-1.553125	-0.618164	-0.342773	0.598633	-0.203597	-0.752349	0.197849	-0.594454
23906		1.423919	-2.357123	-5.204816	-1.131097	-0.695648	-1.173404	-0.603516	-0.366699	0.595947	-0.221203	-0.757260	0.196927	-0.582106
23907		0.689922	-5.563510	-1.758961	-0.640180	0.180208	-0.526321	-0.610840	-0.384766	0.586914	-0.231463	-0.755315	0.196060	-0.580934
23908		0.565330	-8.419724	-1.198187	-0.002552	-0.216538	0.128629	-0.601318	-0.385254	0.593506	-0.229958	-0.756420	0.197883	-0.579474
23909		-0.373634	-2.013422	-0.389459	0.670705	0.023204	-0.233505	-0.604980	-0.380859	0.595947	-0.225316	-0.758620	0.190846	-0.580781
23910		0.663784	0.705119	-0.171520	0.319011	-0.075140	0.112848	-0.596436	-0.371094	0.596436	-0.221269	-0.759657	0.189887	-0.581295
23911		0.167098	0.647979	-0.757359	0.182655	-0.009884	0.372294	-0.607666	-0.366699	0.593018	-0.216779	-0.759230	0.192228	-0.582774
23912		-0.240131	-0.722195	-0.034384	0.245629	-0.012901	0.324725	-0.604248	-0.352783	0.601807	-0.212055	-0.759058	0.193599	-0.584280
23913		-0.083283	-1.399432	-0.384365	0.421811	0.017963	0.285831	-0.609375	-0.343750	0.596924	-0.205965	-0.759236	0.193300	-0.586323
23914		0.604105	-2.071542	0.263851	0.391843	0.263596	0.459670	-0.618408	-0.337402	0.614746	-0.199497	-0.757050	0.194188	-0.591072
23915		0.563412	-2.065656	0.660565	0.091212	0.296101	0.794616	-0.630859	-0.318848	0.597168	-0.193452	-0.753031	0.200480	-0.596094
23916		0.392570	-4.736393	1.152102	-0.308574	0.218890	1.230147	-0.633057	-0.304199	0.602051	-0.187696	-0.747354	0.213922	-0.600391
23917		13.661399	-2.546649	-8.215292	-0.524099	-0.117491	1.558309	-0.641357	-0.286133	0.598633	-0.180511	-0.742596	0.232912	-0.601430
23918		20.408957	-1.540467	-3.448112	-0.251379	-0.589966	1.471434	-0.631836	-0.269287	0.612793	-0.169999	-0.741940	0.250047	-0.598416
23919		32.078899	9.363516	-5.403696	0.941148	0.315396	0.887576	-0.649658	-0.231445	0.618652	-0.155578	-0.738636	0.250953	-0.605999
23920		36.527932	8.955240	-5.387646	-0.563941	0.038627	0.417099	-0.645752	-0.235596	0.612549	-0.157660	-0.735849	0.259317	-0.605330
23921		32.991489	17.346058	-1.016319	-1.063002	0.189983	-0.930982	-0.648193	-0.268311	0.601807	-0.175012	-0.735175	0.258659	-0.601651
23922		24.022133	3.904989	-5.915852	-1.312099	0.391247	-1.666069	-0.639893	-0.316162	0.584717	-0.200742	-0.734447	0.252355	-0.597165
23923		12.154226	-5.499267	-3.559169	-0.348385	0.387886	-1.866568	-0.641357	-0.342041	0.571777	-0.218992	-0.736321	0.236836	-0.594796
23924		2.998763	-2.637981	-2.674736	-1.531264	-0.316480	-1.388873	-0.624512	-0.382812	0.555420	-0.242305	-0.738281	0.236226	-0.583461
23925		-1.174148	-10.298322	-4.687079	-1.580736	-0.284255	-0.401804	-0.620850	-0.412354	0.547363	-0.258847	-0.736514	0.244833	-0.574980
23926		1.217792	-14.333958	-4.469001	0.277160	-0.817381	0.259206	-0.612549	-0.401855	0.563477	-0.251832	-0.742359	0.247915	-0.569229
23927		-0.284688	0.831622	-0.144697	0.708678	0.177283	-0.349900	-0.617920	-0.400391	0.570557	-0.248191	-0.744281	0.239225	-0.572030
23928		0.601319	2.670940	-0.269149	0.607999	-0.189925	-0.042129	-0.614502	-0.396729	0.572266	-0.242174	-0.747529	0.235216	-0.572036
23929		0.385110	-1.384270	0.069967	0.422765	0.269128	0.211740	-0.622070	-0.387939	0.576172	-0.237455	-0.746132	0.233439	-0.576548
23930		0.249096	-2.169689	1.015150	0.265570	0.394864	0.245072	-0.618652	-0.379883	0.573975	-0.234309	-0.743238	0.232749	-0.581829
23931		0.184843	-1.348013	1.149162	0.360155	0.238888	0.389641	-0.633301	-0.364014	0.565674	-0.228770	-0.741323	0.233233	-0.586265
23932		0.351994	-0.275299	0.568020	0.102287	0.317934	0.604395	-0.626953	-0.356689	0.563965	-0.224258	-0.737382	0.237286	-0.591330
23933		-0.197124	-0.311448	1.976230	-0.091014	0.375903	0.845695	-0.653320	-0.345703	0.563477	-0.219913	-0.731714	0.244885	-0.596879
23934		2.536408	2.002902	0.107223	-1.438616	-0.069275	1.292355	-0.655029	-0.345947	0.552490	-0.223102	-0.724015	0.267725	-0.595274
23935		9.980559	-4.028357	-2.224738	-1.602477	-0.376647	1.349132	-0.660889	-0.344971	0.552002	-0.226188	-0.717500	0.293005	-0.590069
23936		23.058208	-5.724295	-13.640835	0.252559	-0.379365	1.253562	-0.665283	-0.323975	0.563477	-0.213200	-0.716251	0.303682	-0.591022
23937		28.834410	3.032642	-12.547747	0.814167	-0.271492	0.716417	-0.657227	-0.295898	0.574219	-0.199526	-0.717568	0.305123	-0.593453
23938		32.917722	6.174872	-3.758710	1.031142	-0.215672	-0.257965	-0.657715	-0.281738	0.587158	-0.191293	-0.722605	0.296088	-0.594626
23939		32.611744	15.940395	-0.176663	-0.450761	-0.192229	-1.403113	-0.646973	-0.316650	0.593994	-0.204968	-0.727978	0.287529	-0.587676
23940		28.655781	-1.720825	-1.169007	0.204626	0.449609	-2.372176	-0.632812	-0.349121	0.579102	-0.221976	-0.733379	0.263410	-0.586086
23941		17.421182	-7.193043	-1.731290	1.170010	0.563276	-2.294202	-0.633057	-0.367676	0.571289	-0.229723	-0.739626	0.232278	-0.588411
23942		5.487504	-3.769342	-3.932408	0.540229	0.152291	-1.336369	-0.626221	-0.388428	0.577637	-0.234901	-0.743732	0.215546	-0.587557
23943		-1.248499	-4.806046	-2.550467	-0.326822	-0.142933	-0.371473	-0.614258	-0.393311	0.557373	-0.240241	-0.744727	0.214988	-0.584334
23944		-0.547903	-6.074118	0.611119	-0.158380	0.107856	0.402455	-0.626709	-0.385742	0.561279	-0.239057	-0.742252	0.219596	-0.586252
23945		0.019901	-2.495377	-1.195395	0.532139	-0.317094	0.279802	-0.616699	-0.375488	0.571045	-0.231144	-0.745255	0.219344	-0.585709
23946		0.669700	3.862527	-0.776383	0.920907	-0.049759	-0.196196	-0.613525	-0.374268	0.575684	-0.223820	-0.748671	0.211060	-0.587239
23947		0.183229	2.540790	1.047660	0.192589	0.012855	0.012804	-0.615723	-0.368408	0.573242	-0.221979	-0.748979	0.209795	-0.587998
23948		-0.213179	-0.199010	0.634858	-0.489145	-0.087427	0.123537	-0.620361	-0.369629	0.578613	-0.225430	-0.747814	0.214818	-0.586352
23949		-0.053226	-2.050684	0.169119	-0.421379	-0.149780	0.113570	-0.624023	-0.374023	0.582031	-0.228102	-0.747307	0.219482	-0.584234
23950		0.531027	-4.244815	-0.211349	0.026912	0.004765	0.208968	-0.627441	-0.376953	0.573242	-0.226295	-0.746674	0.221347	-0.585041
23951		0.287546	-5.601969	-2.309886	0.283307	0.318384	0.502615	-0.628174	-0.354736	0.573242	-0.220854	-0.743610	0.223112	-0.590330
23952		3.813483	-4.335664	-2.530684	0.494617	0.631212	0.909223	-0.644775	-0.335205	0.571533	-0.211245	-0.737594	0.226336	-0.600086
23953		13.625655	9.518270	-1.789935	2.027687	0.565468	-0.171008	-0.642822	-0.315674	0.584229	-0.195324	-0.738841	0.208224	-0.610414
23954		17.985443	-6.042735	-13.859230	0.973647	-0.818261	0.551612	-0.638184	-0.289795	0.613281	-0.179948	-0.745859	0.208095	-0.606637
23955		30.755535	-22.558282	-13.735594	2.202695	-0.691407	1.646460	-0.624512	-0.235596	0.622803	-0.144982	-0.751252	0.208544	-0.609188
23956		21.457194	18.824531	8.030236	3.386007	0.737854	0.513148	-0.652832	-0.169434	0.622559	-0.111107	-0.749652	0.186514	-0.625212
23957		13.557673	40.506644	4.233123	-2.019617	-0.288960	0.244173	-0.649170	-0.201172	0.617188	-0.127410	-0.748196	0.205127	-0.617974
23958		15.683322	-0.934719	-9.468898	-3.652287	-0.096509	-0.146954	-0.644043	-0.252197	0.610107	-0.162331	-0.742652	0.231807	-0.606945
23959		9.104053	-12.258543	-5.585472	0.397994	0.068064	-1.399544	-0.627930	-0.277100	0.613525	-0.169385	-0.746840	0.215716	-0.605809
23960		8.867976	1.304942	-0.878505	1.964950	-0.056213	-1.844050	-0.621582	-0.275879	0.627441	-0.164775	-0.755968	0.183836	-0.606272
23961		5.897891	6.041632	0.380808	-0.006625	0.147510	-1.303283	-0.620850	-0.298828	0.622070	-0.175045	-0.757707	0.171387	-0.604869
23962		6.341555	-1.393211	1.506153	-1.500876	-0.270679	-0.536923	-0.613525	-0.325928	0.614746	-0.192732	-0.757411	0.178224	-0.597845
23963		7.654328	-6.747088	-2.095121	-1.284610	-0.377853	-0.007624	-0.603760	-0.346680	0.603516	-0.204080	-0.756991	0.188679	-0.591368
23964		9.238731	-4.673305	-4.330170	0.119821	-0.272284	0.047504	-0.597412	-0.343262	0.613037	-0.201975	-0.759123	0.188985	-0.589257
23965		10.917285	-0.754967	-3.312279	0.319589	0.117232	0.116899	-0.612061	-0.336182	0.618896	-0.198364	-0.758734	0.187602	-0.591422
23966		10.608523	-0.670691	-1.716032	0.210297	-0.110403	0.072720	-0.608643	-0.330566	0.624756	-0.195554	-0.759827	0.187149	-0.591098
23967		9.912376	1.353317	0.257511	-0.257959	-0.116597	0.113642	-0.609375	-0.332764	0.620850	-0.196861	-0.759730	0.190614	-0.589680
23968		10.289819	-0.530848	-0.990363	-0.315941	-0.082549	0.080184	-0.601318	-0.343262	0.613281	-0.199048	-0.759291	0.194043	-0.588391
23969		9.374796	0.167571	-2.696145	-0.055892	-0.069207	-0.036891	-0.604248	-0.335205	0.618164	-0.199716	-0.759682	0.194381	-0.587548
23970		8.781659	0.553124	-3.491327	-0.005981	-0.070625	-0.120937	-0.607666	-0.346680	0.617676	-0.200455	-0.760411	0.193619	-0.586605
23971		8.961764	0.042112	-3.027178	-0.059892	-0.038760	-0.131688	-0.600098	-0.348145	0.620850	-0.201914	-0.760776	0.192978	-0.585841
23972		9.320314	0.197631	-2.093873	-0.114954	-0.054923	-0.111477	-0.601562	-0.338867	0.614746	-0.203698	-0.761094	0.193069	-0.584780
23973		9.949609	-0.099318	-2.439208	-0.186298	0.012221	-0.081425	-0.601074	-0.352539	0.616699	-0.206041	-0.760641	0.193763	-0.584319
23974		9.097644	0.413104	-3.226829	-0.093938	0.150533	-0.157572	-0.600586	-0.354004	0.614990	-0.208440	-0.759603	0.192710	-0.585166
23975		8.620194	0.469793	-4.330903	0.011821	0.064976	-0.210540	-0.601562	-0.359131	0.612305	-0.210001	-0.759596	0.190645	-0.585293
23976		9.141193	0.049634	-3.805538	0.079576	0.072679	-0.206790	-0.589111	-0.365723	0.620361	-0.210921	-0.759689	0.188069	-0.585675
23977		9.900775	0.875169	-2.881551	0.116848	0.056756	-0.234835	-0.585449	-0.364746	0.616943	-0.211671	-0.760107	0.185168	-0.585786
23978		9.837172	1.823158	-2.008850	-0.156365	-0.019192	-0.114625	-0.593506	-0.369141	0.613770	-0.213955	-0.760071	0.185604	-0.584865
23979		9.249736	1.374858	-2.712759	-0.463680	-0.048241	0.024170	-0.592041	-0.369629	0.609619	-0.218068	-0.759059	0.189575	-0.583384
23980		9.227887	0.682590	-3.359105	-0.558058	-0.096014	0.070531	-0.598389	-0.373291	0.606689	-0.222587	-0.757997	0.194819	-0.581327
23981		9.483969	0.069113	-3.530955	-0.275895	-0.092219	0.061564	-0.589600	-0.386963	0.613281	-0.224474	-0.757676	0.197881	-0.579985
23982		9.483943	1.355398	-1.938495	-0.180981	-0.012267	0.041137	-0.595215	-0.388672	0.604004	-0.225855	-0.757118	0.199961	-0.579464
23983		9.838959	0.833982	-1.170985	-0.208238	-0.038127	0.106679	-0.593262	-0.380371	0.599609	-0.226956	-0.756470	0.202803	-0.578891
23984		9.732744	0.106264	-2.170000	-0.157956	-0.090307	0.153358	-0.598389	-0.380127	0.609131	-0.227070	-0.756217	0.205884	-0.578088
23985		9.410262	-0.834123	-2.999784	-0.038989	-0.154087	0.338879	-0.601562	-0.379883	0.596680	-0.224533	-0.756281	0.210103	-0.577478
23986		9.353275	-1.069641	-2.548561	0.076778	-0.089513	0.457619	-0.596191	-0.366699	0.609619	-0.220242	-0.755835	0.214253	-0.578189
23987		10.092386	-0.255983	-1.916098	0.251736	0.009727	0.436048	-0.604736	-0.364990	0.613770	-0.214685	-0.755218	0.216861	-0.580110
23988		10.049531	2.297592	-1.139676	0.334784	-0.088774	0.252202	-0.608398	-0.349854	0.616455	-0.209437	-0.756002	0.217355	-0.580822
23989		8.627336	3.809418	-2.440187	0.126282	-0.360644	-0.117518	-0.594238	-0.350098	0.614014	-0.208069	-0.759190	0.216536	-0.577452
23990		7.553589	3.088893	-3.808603	-0.088569	-0.397206	-0.333997	-0.592041	-0.357422	0.620850	-0.210216	-0.762645	0.215256	-0.572578
23991		8.630142	1.542366	-0.498545	-0.043872	-0.103706	-0.209929	-0.586914	-0.359375	0.631592	-0.211829	-0.763757	0.214012	-0.570966
23992		11.777861	0.533686	2.525296	0.082976	0.248536	-0.252536	-0.585938	-0.362793	0.622070	-0.213457	-0.762815	0.210626	-0.572875
23993		11.353239	1.028885	-0.187602	-0.331693	-0.022666	-0.407877	-0.588379	-0.374756	0.612549	-0.219445	-0.763086	0.209381	-0.570704
23994		8.814565	1.734755	-5.835304	-0.237861	-0.236330	-0.558450	-0.576416	-0.388672	0.620117	-0.225047	-0.765468	0.206468	-0.566377
23995		7.941234	1.315685	-4.673773	-0.022292	0.096350	-0.575346	-0.573242	-0.395264	0.621582	-0.229557	-0.766119	0.201019	-0.565647
23996		9.258542	-0.404828	-1.490582	0.198999	0.193770	-0.485307	-0.579346	-0.400879	0.616455	-0.231531	-0.766460	0.194612	-0.566621
23997		10.048724	-0.341445	-1.350798	0.274193	0.011381	-0.424781	-0.567871	-0.402832	0.620605	-0.231907	-0.768104	0.188666	-0.566251
23998		9.897032	1.021335	-2.481259	0.175459	-0.056051	-0.401241	-0.572266	-0.416016	0.622314	-0.232905	-0.769878	0.183920	-0.564993
23999		8.925540	2.138004	-3.415881	0.021998	-0.079076	-0.327956	-0.560303	-0.408203	0.627441	-0.234840	-0.771156	0.180925	-0.563413
24000		8.612213	2.251556	-3.879195	-0.109386	-0.032650	-0.250513	-0.565186	-0.419189	0.617920	-0.237547	-0.771566	0.179587	-0.562144
24001		9.242920	1.727461	-3.041144	-0.122733	0.053811	-0.235293	-0.562012	-0.425049	0.618896	-0.240498	-0.771249	0.178078	-0.561804
24002		9.405535	1.160791	-2.116755	-0.083726	0.125553	-0.342197	-0.553955	-0.423584	0.616699	-0.243981	-0.770782	0.175094	-0.561882
24003		9.602206	1.318905	-2.424507	0.040533	0.077917	-0.417461	-0.549316	-0.430420	0.622070	-0.246657	-0.771193	0.170724	-0.561493
24004		9.539926	1.732937	-2.537786	-0.055309	0.006516	-0.344448	-0.550293	-0.437256	0.613525	-0.249587	-0.771655	0.168011	-0.560382
24005		9.413123	1.720847	-3.014319	-0.062916	-0.062438	-0.219003	-0.553223	-0.439941	0.614746	-0.251577	-0.772274	0.166674	-0.559037
24006		9.235970	1.243441	-3.222433	0.034430	0.035119	-0.123562	-0.541260	-0.446045	0.618408	-0.252148	-0.772304	0.165240	-0.559164
24007		9.395442	1.598297	-2.666059	0.091155	0.084115	-0.082270	-0.548096	-0.434814	0.623535	-0.252012	-0.772116	0.163772	-0.559915
24008		9.415020	2.233698	-2.472514	-0.005487	0.085158	-0.085169	-0.552979	-0.444336	0.612305	-0.252767	-0.771624	0.162955	-0.560492
24009		9.349274	2.238982	-2.410494	-0.089598	0.074584	-0.071094	-0.550293	-0.444824	0.616211	-0.254261	-0.770873	0.162782	-0.560900
24010		9.034965	1.770679	-2.572394	-0.047254	0.014539	-0.064929	-0.546631	-0.448975	0.613770	-0.255168	-0.770685	0.162632	-0.560789
24011		9.250019	1.858090	-2.416722	0.060569	0.026602	-0.055335	-0.546875	-0.448730	0.612305	-0.255010	-0.770741	0.161791	-0.561028
24012		9.253517	2.133400	-2.607845	0.035531	0.056446	-0.050538	-0.544189	-0.448975	0.616699	-0.255123	-0.770492	0.161065	-0.561527
24013		9.249774	2.152502	-2.651523	0.018351	0.069974	-0.053049	-0.544189	-0.447754	0.604736	-0.255442	-0.770116	0.160446	-0.562074
24014		9.236989	2.022799	-2.382870	0.114003	0.098045	-0.082942	-0.551025	-0.443604	0.612793	-0.255118	-0.769884	0.158708	-0.563032
24015		9.327388	1.980141	-2.063745	0.111420	0.083244	-0.089512	-0.555908	-0.451416	0.605957	-0.254799	-0.769763	0.156987	-0.563823
24016		9.332237	2.151138	-2.184157	0.068766	0.047263	-0.068040	-0.552246	-0.445068	0.611328	-0.254713	-0.769686	0.155818	-0.564292
24017		9.272441	2.365375	-2.515457	0.086535	0.053508	-0.075271	-0.543213	-0.443359	0.612549	-0.254485	-0.769659	0.154491	-0.564796
24018		9.231308	2.269081	-2.137502	0.157151	0.097710	-0.090796	-0.547607	-0.453613	0.605957	-0.253774	-0.769597	0.152435	-0.565758
24019		9.268776	2.184356	-2.080070	0.075761	0.079662	-0.072585	-0.550049	-0.438477	0.596436	-0.253742	-0.769335	0.151130	-0.566478
24020		9.331521	2.142451	-2.113145	0.006572	0.032390	-0.028433	-0.557373	-0.434082	0.614990	-0.253917	-0.769086	0.150814	-0.566823
24021		9.297687	1.995405	-2.252290	-0.034204	0.013497	0.008270	-0.551270	-0.443359	0.598389	-0.254128	-0.768802	0.151264	-0.566994
24022		9.337240	2.064748	-2.442114	-0.068422	0.012314	0.023074	-0.556396	-0.446533	0.600830	-0.254637	-0.768363	0.152065	-0.567146
24023		9.347821	2.007529	-2.191324	-0.084734	0.012280	0.032764	-0.554688	-0.445068	0.607178	-0.255235	-0.767849	0.153074	-0.567301
24024		9.372247	1.899941	-2.122783	-0.107036	0.018953	0.036048	-0.558594	-0.450928	0.607178	-0.256015	-0.767235	0.154302	-0.567449
24025		9.365297	1.901449	-2.303556	-0.105327	-0.001604	0.031185	-0.562744	-0.454834	0.604736	-0.256790	-0.766773	0.155536	-0.567385
24026		9.313116	2.022731	-2.500113	-0.069183	-0.001177	0.012185	-0.551025	-0.444092	0.606201	-0.257365	-0.766447	0.156313	-0.567351
24027		9.348460	2.095662	-2.216716	-0.042952	0.024987	0.005718	-0.552246	-0.454346	0.607910	-0.257740	-0.766073	0.156813	-0.567549
24028		9.354329	1.921351	-2.121561	-0.108883	0.013061	0.024709	-0.559326	-0.448486	0.597900	-0.258628	-0.765532	0.158025	-0.567538
24029		9.356401	1.940996	-2.220607	-0.117628	-0.016790	0.035210	-0.554688	-0.451660	0.600342	-0.259441	-0.765120	0.159413	-0.567335
24030		9.400711	1.930545	-2.131560	-0.106217	-0.016809	0.034905	-0.557861	-0.454590	0.608154	-0.260155	-0.764763	0.160762	-0.567109
24031		9.322915	1.952881	-2.264780	-0.088424	0.001627	0.018683	-0.558105	-0.454346	0.592041	-0.260840	-0.764377	0.161796	-0.567020
24032		9.347787	1.921859	-2.138604	-0.074782	-0.001351	0.015915	-0.559570	-0.454346	0.589355	-0.261429	-0.764028	0.162654	-0.566975
24033		9.362290	1.978053	-2.224927	-0.073405	-0.019237	0.014285	-0.553711	-0.454590	0.589111	-0.261978	-0.763805	0.163535	-0.566768
24034		9.373147	1.961110	-2.045651	-0.012410	0.002553	-0.001877	-0.553223	-0.449707	0.593994	-0.262106	-0.763676	0.163786	-0.566810
24035		9.338830	1.894679	-2.019897	-0.013805	0.017292	-0.022207	-0.554199	-0.455322	0.593994	-0.262389	-0.763496	0.163815	-0.566913
24036		9.283610	2.011520	-2.132192	-0.022455	-0.002015	-0.023305	-0.563477	-0.460693	0.598877	-0.262747	-0.763423	0.163968	-0.566802
24037		9.310682	2.109750	-2.281870	-0.006615	-0.004842	-0.028249	-0.559814	-0.450684	0.591553	-0.262986	-0.763419	0.163961	-0.566697
24038		9.352977	2.070239	-2.192772	0.008236	0.014229	-0.025482	-0.551025	-0.463379	0.589355	-0.263069	-0.763320	0.163778	-0.566845
24039		9.342514	2.009672	-2.046226	0.005572	0.009105	-0.020051	-0.561035	-0.458984	0.597412	-0.263203	-0.763249	0.163743	-0.566890
24040		9.324148	2.005736	-2.093487	-0.016614	0.001473	-0.017247	-0.554443	-0.467773	0.593506	-0.263465	-0.763150	0.163893	-0.566858
24041		9.367290	2.084522	-2.184732	-0.037053	-0.010369	-0.009953	-0.559570	-0.454102	0.591553	-0.263901	-0.763056	0.164332	-0.566654
24042		9.309194	2.047417	-2.313426	-0.026610	-0.005523	-0.007885	-0.557129	-0.456299	0.588867	-0.264159	-0.762948	0.164638	-0.566590
24043		9.320582	1.976371	-2.186262	-0.009054	0.008442	-0.008098	-0.559082	-0.456787	0.593506	-0.264296	-0.762800	0.164781	-0.566685
24044		9.376122	2.011327	-2.102220	-0.004859	-0.006928	-0.010394	-0.560059	-0.452393	0.587891	-0.264369	-0.762786	0.164932	-0.566626
24045		9.335046	2.074069	-2.130280	-0.009666	-0.004642	-0.012321	-0.556885	-0.459961	0.592041	-0.264492	-0.762731	0.165060	-0.566605
24046		9.313435	2.118870	-2.143048	-0.014928	-0.011891	-0.009308	-0.552490	-0.462891	0.583496	-0.264662	-0.762717	0.165321	-0.566467
24047		9.314173	2.038390	-2.153083	-0.029970	-0.018079	-0.007389	-0.551025	-0.465820	0.593994	-0.264981	-0.762683	0.165730	-0.566244
24048		9.325100	2.030161	-2.184185	-0.041111	-0.024152	0.001915	-0.553223	-0.458740	0.593506	-0.265321	-0.762662	0.166362	-0.565928
24049		9.364527	1.971240	-2.160156	-0.030788	-0.015682	0.007802	-0.559326	-0.466309	0.589600	-0.265500	-0.762601	0.166918	-0.565764
24050		9.366977	1.974690	-2.174941	-0.021442	-0.008421	-0.004120	-0.555176	-0.454346	0.600098	-0.265725	-0.762517	0.167265	-0.565669
24051		9.357188	1.965286	-2.087791	-0.006487	-0.016013	-0.012811	-0.556396	-0.463623	0.583496	-0.265778	-0.762594	0.167445	-0.565485
24052		9.282956	2.009423	-2.179760	0.012486	-0.016905	-0.016554	-0.557617	-0.462158	0.586914	-0.265748	-0.762703	0.167450	-0.565351
24053		9.306902	2.072677	-2.195643	0.014088	-0.012386	-0.018405	-0.553955	-0.464355	0.599854	-0.265710	-0.762794	0.167410	-0.565258
24054		9.361005	2.093522	-2.140637	0.022440	-0.012415	-0.028701	-0.550781	-0.461670	0.595947	-0.265658	-0.762971	0.167251	-0.565092
24055		9.415256	2.028713	-2.187794	0.021261	-0.007890	-0.033095	-0.561523	-0.457031	0.588135	-0.265655	-0.763118	0.167034	-0.564958
24056		9.330731	1.997284	-2.209922	0.019652	-0.016976	-0.023563	-0.557861	-0.457764	0.589844	-0.265560	-0.763263	0.166891	-0.564850
24057		9.310824	2.114045	-2.191543	0.004475	-0.026694	-0.018869	-0.562988	-0.454590	0.592041	-0.265561	-0.763426	0.166947	-0.564612
24058		9.272721	2.132305	-2.166083	-0.012663	-0.017844	-0.021904	-0.550781	-0.457275	0.591064	-0.265740	-0.763470	0.167044	-0.564440
24059		9.301869	2.024450	-2.257030	-0.010171	-0.030993	-0.018267	-0.558105	-0.465820	0.597412	-0.265868	-0.763631	0.167237	-0.564104
24060		9.316830	2.009810	-2.312036	0.017914	-0.010172	-0.019338	-0.553467	-0.459229	0.587402	-0.265801	-0.763733	0.167169	-0.564018
24061		9.347436	2.015126	-2.199487	0.013368	-0.005952	-0.020389	-0.558838	-0.467773	0.594238	-0.265785	-0.763783	0.167088	-0.563983
24062		9.327019	2.013741	-2.222445	0.009593	-0.018337	-0.020877	-0.551514	-0.459717	0.590332	-0.265807	-0.763906	0.167095	-0.563803
24063		9.314016	2.042691	-2.282532	0.009194	-0.019195	-0.014734	-0.552734	-0.461670	0.590088	-0.265762	-0.764032	0.167149	-0.563637
24064		9.318486	2.012144	-2.233591	0.023502	-0.005557	-0.016020	-0.555176	-0.460205	0.590820	-0.265626	-0.764107	0.167049	-0.563629
24065		9.296676	1.999558	-2.222882	0.027248	-0.013557	-0.022073	-0.558105	-0.463623	0.599854	-0.265472	-0.764259	0.166883	-0.563545
24066		9.305733	2.069819	-2.306232	0.031706	-0.013642	-0.021881	-0.553223	-0.465332	0.593750	-0.265272	-0.764437	0.166700	-0.563452
24067		9.329294	2.111266	-2.219732	0.038561	-0.014092	-0.023649	-0.551758	-0.466553	0.590820	-0.265046	-0.764639	0.166467	-0.563354
24068		9.335755	2.105702	-2.209604	0.031451	-0.006427	-0.032194	-0.553467	-0.460205	0.593018	-0.264979	-0.764775	0.166184	-0.563284
24069		9.303104	2.081415	-2.282709	0.021011	-0.012303	-0.030887	-0.556396	-0.456055	0.595947	-0.264952	-0.764918	0.165979	-0.563163
24070		9.296714	2.021667	-2.263765	0.024096	-0.014406	-0.024464	-0.552734	-0.462402	0.607178	-0.264816	-0.765073	0.165799	-0.563069
24071		9.303336	2.015633	-2.253629	0.021968	-0.012091	-0.021652	-0.552002	-0.456299	0.598877	-0.264703	-0.765228	0.165687	-0.562945
24072		9.294042	1.973062	-2.324925	0.031494	-0.010929	-0.018550	-0.564697	-0.457764	0.593994	-0.264464	-0.765384	0.165509	-0.562897
24073		9.337391	2.017350	-2.326361	0.042743	-0.010893	-0.016631	-0.545654	-0.460205	0.597656	-0.264112	-0.765530	0.165258	-0.562937
24074		9.329602	2.102191	-2.202757	0.054680	-0.007548	-0.018712	-0.551270	-0.457520	0.595215	-0.263693	-0.765747	0.164934	-0.562934
24075		9.290424	2.144639	-2.222412	0.030773	-0.011131	-0.014278	-0.549561	-0.464355	0.599121	-0.263455	-0.765881	0.164815	-0.562898
24076		9.246258	2.110127	-2.292628	0.016814	-0.016773	-0.009841	-0.548828	-0.457031	0.598389	-0.263340	-0.766007	0.164888	-0.562758
24077		9.275117	2.127005	-2.330286	0.012442	-0.009614	-0.011194	-0.548096	-0.458984	0.599121	-0.263257	-0.766074	0.164924	-0.562695
24078		9.365115	2.103534	-2.325378	0.011918	-0.011425	-0.005460	-0.546143	-0.468018	0.599609	-0.263144	-0.766142	0.165035	-0.562623
24079		9.278670	2.017146	-2.296534	0.004362	-0.002582	-0.000394	-0.550781	-0.458252	0.600586	-0.263137	-0.766113	0.165262	-0.562599
24080		9.283718	2.058035	-2.246432	-0.010179	-0.008572	-0.002017	-0.555176	-0.455566	0.594482	-0.263210	-0.766078	0.165546	-0.562529
24081		9.301107	1.983311	-2.272135	-0.008444	-0.011751	-0.004659	-0.554688	-0.459473	0.601807	-0.263271	-0.766054	0.165787	-0.562462
24082		9.308904	1.922536	-2.362460	0.003593	-0.010467	-0.004426	-0.558350	-0.453613	0.606445	-0.263225	-0.766076	0.165957	-0.562404
24083		9.343983	2.011727	-2.377136	0.018943	-0.002733	-0.003170	-0.552979	-0.455566	0.595215	-0.262997	-0.766096	0.165971	-0.562480
24084		9.347272	2.061870	-2.240359	0.022352	-0.003456	-0.005378	-0.554443	-0.453857	0.599609	-0.262789	-0.766123	0.165969	-0.562541
24085		9.274884	2.039041	-2.254697	0.009228	-0.009380	0.003243	-0.555176	-0.457031	0.601074	-0.262617	-0.766137	0.166150	-0.562548
24086		9.309451	2.060814	-2.289969	-0.006515	-0.023031	0.008592	-0.549561	-0.461426	0.605713	-0.262545	-0.766185	0.166552	-0.562398
24087		9.289469	2.056763	-2.284023	-0.002565	-0.011752	0.005764	-0.554688	-0.448975	0.595459	-0.262500	-0.766193	0.166885	-0.562310
24088		9.316283	2.085513	-2.283375	0.018801	-0.011341	-0.005958	-0.550537	-0.455811	0.601807	-0.262281	-0.766263	0.166899	-0.562311
24089		9.309144	2.152082	-2.290494	0.024467	-0.003279	-0.017416	-0.549805	-0.452881	0.594482	-0.262137	-0.766340	0.166769	-0.562313
24090		9.277090	2.076822	-2.247923	-0.000928	-0.006849	-0.008972	-0.546875	-0.453125	0.605469	-0.262169	-0.766326	0.166906	-0.562275
24091		9.307000	2.004754	-2.306573	-0.000194	-0.012187	-0.008169	-0.549561	-0.450195	0.598877	-0.262160	-0.766383	0.167052	-0.562159
24092		9.333923	1.965818	-2.274944	-0.012417	-0.016416	-0.002092	-0.550293	-0.457520	0.595459	-0.262211	-0.766397	0.167347	-0.562029
24093		9.342093	1.987637	-2.322031	-0.026956	-0.012257	-0.004553	-0.558594	-0.454102	0.595947	-0.262473	-0.766324	0.167748	-0.561886
24094		9.314878	1.970735	-2.361406	-0.010013	-0.011221	-0.009175	-0.549561	-0.458496	0.593506	-0.262577	-0.766294	0.167958	-0.561816
24095		9.284997	1.967732	-2.363522	0.008196	-0.008601	-0.013180	-0.549072	-0.453613	0.603271	-0.262577	-0.766327	0.168025	-0.561751
24096		9.329091	1.995419	-2.308593	0.006211	-0.004813	-0.008611	-0.549805	-0.456299	0.604248	-0.262525	-0.766343	0.168096	-0.561731
24097		9.323018	2.008175	-2.259599	-0.020353	-0.015583	0.002138	-0.557373	-0.456299	0.602051	-0.262642	-0.766324	0.168504	-0.561580
24098		9.316153	2.021334	-2.290489	-0.028491	-0.022322	0.002431	-0.546631	-0.457520	0.606445	-0.262818	-0.766302	0.168993	-0.561382
24099		9.314292	2.009606	-2.289267	-0.025322	-0.019397	0.000241	-0.544434	-0.457520	0.605225	-0.262989	-0.766310	0.169430	-0.561159
24100		9.320215	1.959319	-2.292480	-0.010259	-0.010599	-0.007262	-0.555420	-0.460449	0.598633	-0.263090	-0.766324	0.169661	-0.561022
24101		9.349325	2.007996	-2.387250	-0.000769	-0.006434	-0.018060	-0.547607	-0.451416	0.597900	-0.263204	-0.766319	0.169732	-0.560954
24102		9.302526	2.026019	-2.338422	0.009626	-0.003571	-0.023543	-0.552979	-0.454834	0.592041	-0.263220	-0.766362	0.169623	-0.560921
24103		9.278297	2.013325	-2.311708	-0.010356	-0.006593	-0.022289	-0.550049	-0.455322	0.600586	-0.263439	-0.766329	0.169705	-0.560838
24104		9.313473	1.985293	-2.317844	-0.018441	-0.004696	-0.017008	-0.548340	-0.460693	0.597412	-0.263687	-0.766272	0.169871	-0.560750
24105		9.294967	1.892287	-2.389009	-0.003147	0.000481	-0.024548	-0.552490	-0.456055	0.608887	-0.263887	-0.766240	0.169875	-0.560699
24106		9.347427	2.010320	-2.436268	0.030849	0.009167	-0.032499	-0.550293	-0.469727	0.593750	-0.263780	-0.766294	0.169481	-0.560794
24107		9.332608	2.075859	-2.212935	0.024215	0.010519	-0.032475	-0.552490	-0.454834	0.600342	-0.263849	-0.766280	0.169242	-0.560853
24108		9.250362	2.055472	-2.233275	-0.005276	0.002285	-0.017048	-0.549316	-0.458252	0.603271	-0.263977	-0.766211	0.169286	-0.560873
24109		9.284326	2.047059	-2.343243	-0.004988	-0.008955	-0.013450	-0.546387	-0.462158	0.597412	-0.264068	-0.766228	0.169409	-0.560770
24110		9.304378	1.997235	-2.327239	-0.000898	0.005790	-0.021250	-0.550293	-0.460938	0.602051	-0.264240	-0.766163	0.169416	-0.560776
24111		9.303792	1.982419	-2.380171	0.008882	0.000815	-0.021002	-0.552734	-0.464600	0.602295	-0.264285	-0.766167	0.169353	-0.560768
24112		9.292450	2.055515	-2.313521	0.023440	-0.000262	-0.020458	-0.555176	-0.459961	0.596924	-0.264201	-0.766218	0.169217	-0.560779
24113		9.317641	2.048482	-2.217434	0.004024	0.002062	-0.013534	-0.553955	-0.458740	0.599121	-0.264245	-0.766158	0.169263	-0.560827
24114		9.302820	2.020711	-2.283283	0.000787	-0.003379	-0.011928	-0.550781	-0.454834	0.602539	-0.264286	-0.766130	0.169352	-0.560818
24115		9.337046	2.014279	-2.286007	0.004999	-0.004888	-0.017298	-0.553711	-0.462158	0.600098	-0.264295	-0.766157	0.169333	-0.560783
24116		9.317262	2.093848	-2.263120	0.002494	-0.001972	-0.016329	-0.551514	-0.459229	0.598389	-0.264370	-0.766136	0.169380	-0.560763
24117		9.268106	2.072777	-2.278016	-0.000406	-0.002478	-0.017964	-0.555420	-0.460693	0.594971	-0.264472	-0.766115	0.169420	-0.560731
24118		9.322492	2.033505	-2.289046	-0.011028	-0.003791	-0.013906	-0.554688	-0.458496	0.602539	-0.264655	-0.766041	0.169595	-0.560692
24119		9.309394	1.966468	-2.304979	-0.001449	-0.006162	-0.018464	-0.556152	-0.466064	0.597900	-0.264744	-0.766047	0.169630	-0.560631
24120		9.329075	1.996407	-2.354703	0.002211	-0.004918	-0.019829	-0.545166	-0.458496	0.595947	-0.264860	-0.766040	0.169681	-0.560571
24121		9.292198	2.112439	-2.257130	0.012449	0.002107	-0.026189	-0.556152	-0.462891	0.596924	-0.264907	-0.766059	0.169533	-0.560567
24122		9.286230	2.060914	-2.253964	-0.003318	0.000032	-0.027507	-0.555420	-0.462402	0.592041	-0.265124	-0.766015	0.169516	-0.560531
24123		9.286480	1.991342	-2.360514	0.002793	-0.004117	-0.024429	-0.552002	-0.461914	0.594971	-0.265257	-0.766004	0.169507	-0.560485
24124		9.355668	1.994095	-2.340291	0.026408	0.002804	-0.030289	-0.556885	-0.457520	0.598877	-0.265212	-0.766052	0.169241	-0.560522
24125		9.298032	2.065459	-2.247409	0.017547	0.004402	-0.026683	-0.551514	-0.465576	0.598145	-0.265194	-0.766050	0.169029	-0.560598
24126		9.243785	2.162267	-2.285601	-0.007892	-0.007969	-0.020951	-0.553711	-0.466553	0.587891	-0.265404	-0.766045	0.169143	-0.560470
24127		9.264375	2.143160	-2.250736	-0.022765	-0.008344	-0.018830	-0.545166	-0.466309	0.604980	-0.265766	-0.765958	0.169420	-0.560333
24128		9.299013	2.055068	-2.324622	-0.025591	-0.002825	-0.026475	-0.556152	-0.461426	0.598633	-0.266184	-0.765903	0.169562	-0.560167
24129		9.357419	2.028565	-2.410541	0.013840	0.008741	-0.036452	-0.556152	-0.457764	0.596191	-0.266291	-0.765879	0.169280	-0.560234
24130		9.322561	2.027587	-2.273736	0.030293	0.018726	-0.037107	-0.549072	-0.461914	0.604492	-0.266249	-0.765839	0.168826	-0.560446
24131		9.290060	2.071613	-2.293090	0.007460	0.005429	-0.027081	-0.546387	-0.460449	0.597656	-0.266339	-0.765829	0.168670	-0.560463
24132		9.304228	2.130932	-2.265465	0.003121	0.002891	-0.026242	-0.547363	-0.465088	0.597900	-0.266468	-0.765813	0.168572	-0.560454
24133		9.268517	2.020847	-2.241706	0.001263	0.009622	-0.021960	-0.554932	-0.466553	0.598877	-0.266621	-0.765730	0.168533	-0.560506
24134		9.295287	1.970023	-2.388300	-0.024307	-0.008822	-0.008004	-0.557129	-0.463867	0.604492	-0.266882	-0.765645	0.168876	-0.560396
24135		9.317775	2.068946	-2.322801	-0.002647	0.008995	-0.006636	-0.547607	-0.458740	0.598145	-0.266931	-0.765514	0.168982	-0.560519
24136		9.303562	2.030588	-2.273944	0.023893	0.011427	-0.022459	-0.554199	-0.453613	0.601562	-0.266833	-0.765501	0.168725	-0.560660
24137		9.332813	2.080504	-2.287350	0.038858	0.011306	-0.034134	-0.552734	-0.462402	0.595215	-0.266633	-0.765559	0.168210	-0.560832
24138		9.315241	2.163870	-2.197849	0.031818	0.008184	-0.033344	-0.541260	-0.466797	0.594238	-0.266556	-0.765595	0.167846	-0.560928
24139		9.278993	2.175922	-2.225401	0.022341	0.004372	-0.033202	-0.546631	-0.461914	0.595703	-0.266597	-0.765651	0.167587	-0.560910
24140		9.260473	2.166031	-2.331503	0.021369	0.009768	-0.035619	-0.551270	-0.465332	0.591553	-0.266640	-0.765662	0.167259	-0.560972
24141		9.298561	1.997607	-2.259610	0.011833	0.011564	-0.022553	-0.552002	-0.467285	0.594971	-0.266712	-0.765577	0.167159	-0.561083
24142		9.345689	1.996469	-2.263957	-0.010881	-0.003856	0.001903	-0.548340	-0.455811	0.590820	-0.266800	-0.765480	0.167503	-0.561071
24143		9.342643	2.007490	-2.334739	-0.004389	-0.004562	0.001590	-0.555664	-0.466797	0.595947	-0.266771	-0.765417	0.167737	-0.561101
24144		9.292827	2.127056	-2.317102	0.027433	0.007262	-0.014320	-0.559082	-0.464355	0.596680	-0.266622	-0.765398	0.167616	-0.561234
24145		9.238650	2.147978	-2.232023	0.044196	0.007582	-0.023240	-0.549072	-0.462402	0.593018	-0.266358	-0.765446	0.167276	-0.561396
24146		9.244976	2.253282	-2.234885	0.018089	0.000843	-0.019173	-0.556152	-0.459717	0.596924	-0.266310	-0.765463	0.167178	-0.561425
24147		9.321155	2.269026	-2.274284	0.002421	0.003171	-0.014626	-0.551025	-0.469238	0.593994	-0.266355	-0.765394	0.167198	-0.561491
24148		9.260906	2.181742	-2.244416	-0.003938	0.001810	-0.011972	-0.549316	-0.457520	0.590576	-0.266506	-0.765309	0.167364	-0.561485
24149		9.254294	2.167923	-2.212363	-0.010021	-0.000178	-0.017273	-0.553711	-0.461914	0.596436	-0.266686	-0.765233	0.167457	-0.561475
24150		9.243738	2.093832	-2.285167	-0.029098	-0.008318	-0.010035	-0.552002	-0.468018	0.596680	-0.266988	-0.765137	0.167787	-0.561365
24151		9.298562	2.054873	-2.374389	-0.014950	-0.003516	-0.005791	-0.553711	-0.462646	0.600342	-0.267169	-0.765047	0.168078	-0.561314
24152		9.346968	2.095107	-2.285553	0.024352	0.010894	-0.010821	-0.546631	-0.457764	0.597168	-0.266995	-0.765006	0.167944	-0.561492
24153		9.332264	2.121430	-2.139904	0.008475	0.007702	-0.012563	-0.546631	-0.464600	0.584717	-0.266965	-0.764953	0.167889	-0.561596
24154		9.282614	2.177304	-2.218624	-0.012783	-0.002756	-0.010551	-0.547607	-0.465820	0.589844	-0.267172	-0.764864	0.168138	-0.561544
24155		9.262693	2.101360	-2.272081	-0.006635	-0.001797	-0.004077	-0.558594	-0.468018	0.592529	-0.267270	-0.764785	0.168387	-0.561531
24156		9.288838	2.058215	-2.331451	-0.005889	0.001983	-0.009004	-0.546631	-0.472900	0.597900	-0.267400	-0.764669	0.168584	-0.561567
24157		9.307695	2.109665	-2.296527	0.023512	0.010172	-0.017649	-0.556641	-0.468262	0.597900	-0.267352	-0.764655	0.168464	-0.561645
24158		9.285477	2.138996	-2.145224	0.019436	0.007023	-0.012710	-0.550537	-0.456055	0.596436	-0.267267	-0.764616	0.168408	-0.561755
24159		9.311076	2.099300	-2.175407	-0.003329	0.000102	-0.007331	-0.548096	-0.456787	0.600586	-0.267284	-0.764559	0.168499	-0.561798
24160		9.323926	2.084163	-2.261936	-0.007073	-0.005714	-0.011817	-0.543213	-0.462402	0.595703	-0.267351	-0.764556	0.168577	-0.561747
24161		9.320485	2.085063	-2.248558	0.009017	0.006513	-0.016440	-0.543945	-0.460693	0.597412	-0.267371	-0.764528	0.168511	-0.561795
24162		9.301123	2.097699	-2.242857	0.009786	0.003735	-0.012832	-0.550781	-0.466064	0.586182	-0.267337	-0.764518	0.168464	-0.561839
24163		9.293386	2.102651	-2.236629	-0.000917	-0.000722	-0.010643	-0.552734	-0.465820	0.596924	-0.267435	-0.764451	0.168622	-0.561836
24164		9.321676	2.125022	-2.241467	-0.011147	-0.000798	-0.011451	-0.552490	-0.462402	0.596436	-0.267606	-0.764373	0.168797	-0.561808
24165		9.321145	2.111442	-2.266392	-0.011256	-0.009848	-0.007302	-0.557617	-0.463379	0.591309	-0.267710	-0.764353	0.169017	-0.561720
24166		9.386212	2.160890	-2.288504	-0.023472	-0.008706	0.015595	-0.553467	-0.469971	0.590820	-0.267785	-0.764208	0.169572	-0.561714
24167		9.620302	2.336558	-2.258451	-0.064881	-0.006731	0.052815	-0.555176	-0.472412	0.595459	-0.268040	-0.763839	0.170809	-0.561720
24168		9.450234	1.919565	-2.017006	-0.154176	0.001599	0.129045	-0.556641	-0.458252	0.597900	-0.268630	-0.762954	0.173363	-0.561857
24169		9.511014	2.051368	-2.136445	-0.195779	-0.029317	0.174399	-0.547363	-0.469971	0.590820	-0.269131	-0.762063	0.176622	-0.561813
24170		9.267553	2.223004	-2.337889	-0.212056	-0.015638	0.219054	-0.552979	-0.463623	0.587402	-0.269588	-0.760920	0.180458	-0.561923
24171		9.067637	2.443032	-2.403199	-0.203417	-0.022172	0.249623	-0.557861	-0.464600	0.585449	-0.269691	-0.759764	0.184508	-0.562124
24172		9.004910	2.675306	-2.444696	-0.218624	-0.038958	0.283096	-0.562988	-0.457764	0.586670	-0.269668	-0.758575	0.189046	-0.562232
24173		9.083460	2.733733	-2.275234	-0.348922	-0.082865	0.330153	-0.565430	-0.461182	0.575195	-0.270392	-0.757129	0.195034	-0.561788
24174		9.185374	2.583508	-2.229277	-0.436728	-0.105914	0.360794	-0.572266	-0.455078	0.573486	-0.271703	-0.755414	0.202054	-0.560982
24175		9.209547	2.375331	-2.396931	-0.553471	-0.095495	0.386556	-0.577637	-0.459717	0.570312	-0.273896	-0.753116	0.210036	-0.560074
24176		9.295874	1.982185	-2.286391	-0.504925	-0.105216	0.379535	-0.569824	-0.454834	0.569092	-0.275643	-0.751015	0.217641	-0.559133
24177		9.373111	1.299314	-2.394427	-0.496262	-0.097743	0.399864	-0.570068	-0.455566	0.564209	-0.277127	-0.748832	0.225256	-0.558311
24178		9.544595	0.868606	-2.445744	-0.410273	-0.102574	0.444397	-0.574707	-0.457764	0.565430	-0.277463	-0.746817	0.232686	-0.557795
24179		9.615418	0.524879	-2.297321	-0.347870	-0.120410	0.530175	-0.576660	-0.460205	0.558105	-0.276553	-0.744856	0.240526	-0.557544
24180		9.879365	0.236832	-2.031217	-0.277455	-0.157751	0.640171	-0.591797	-0.450684	0.557617	-0.274136	-0.743001	0.249065	-0.557463
24181		9.831322	-0.350653	-1.599008	-0.209782	-0.193414	0.752339	-0.593506	-0.439697	0.571533	-0.270147	-0.741182	0.258283	-0.557638
24182		10.082840	-0.544027	-1.761080	-0.236829	-0.295706	0.812986	-0.594238	-0.432373	0.567383	-0.265564	-0.739762	0.268472	-0.556912
24183		10.355332	-0.341370	-2.160170	-0.241680	-0.322209	0.862646	-0.598389	-0.419678	0.572754	-0.260585	-0.738236	0.279239	-0.555994
24184		9.965251	-0.438592	-2.058015	-0.212934	-0.286503	0.888524	-0.607178	-0.418213	0.570068	-0.255222	-0.736371	0.289865	-0.555515
24185		9.909985	-0.362746	-2.345994	-0.108607	-0.230107	0.824966	-0.611084	-0.397461	0.575928	-0.249581	-0.734547	0.299042	-0.555629
24186		9.611438	-0.304186	-2.367673	0.112590	-0.137857	0.700900	-0.614014	-0.377197	0.577881	-0.243029	-0.733178	0.305181	-0.557002
24187		9.311895	0.681545	-2.260676	0.340365	-0.056164	0.522039	-0.625977	-0.367188	0.578125	-0.235901	-0.732559	0.307817	-0.559426
24188		9.100383	1.768044	-1.516147	0.532710	0.050612	0.343585	-0.624756	-0.358398	0.576660	-0.228702	-0.732356	0.307204	-0.563007
24189		9.081755	2.291033	-0.975702	0.316529	0.067621	0.202926	-0.628906	-0.349854	0.581787	-0.224570	-0.731920	0.306775	-0.565465
24190		8.674584	1.718691	-0.745505	0.038791	0.091594	0.026338	-0.624756	-0.344727	0.585205	-0.224308	-0.731209	0.306605	-0.566580
24191		8.720440	1.268200	-0.751746	-0.137531	0.050372	-0.147547	-0.636719	-0.357666	0.585449	-0.226705	-0.730984	0.306167	-0.566153
24192		8.569545	1.174142	-1.443066	-0.143446	0.020398	-0.346122	-0.626221	-0.357178	0.580078	-0.230483	-0.731676	0.304068	-0.564863
24193		9.066235	1.853388	-1.195593	-0.066490	0.092215	-0.568537	-0.623535	-0.371094	0.573242	-0.235374	-0.732910	0.299156	-0.563869
24194		9.501555	2.763259	-1.667618	-0.309107	0.118777	-0.701908	-0.616211	-0.376221	0.576416	-0.243540	-0.733675	0.294646	-0.561777
24195		9.423423	1.052199	-2.419553	-0.771235	-0.071249	-0.739138	-0.617920	-0.404541	0.565430	-0.255427	-0.734428	0.293535	-0.556067
24196		11.265244	-0.506492	-5.080032	-1.169441	-0.589573	-0.701824	-0.600342	-0.431641	0.568848	-0.268779	-0.737156	0.297146	-0.544117
24197		10.910247	-1.563972	-4.639706	-0.332926	-0.099521	-0.642715	-0.591553	-0.449219	0.564941	-0.275773	-0.739002	0.293896	-0.539862
24198		9.537994	-0.624072	-0.521180	0.606249	0.317249	-0.741796	-0.592041	-0.462646	0.567383	-0.276273	-0.741542	0.281942	-0.542491
24199		8.777263	-0.231996	-2.326818	0.057216	0.085775	-0.637827	-0.580566	-0.467285	0.575195	-0.280337	-0.743301	0.275453	-0.541333
24200		8.614091	1.244696	-4.498932	-0.248078	-0.200264	-0.571345	-0.581055	-0.483398	0.566162	-0.285757	-0.745668	0.272609	-0.536662
24201		9.592261	3.177336	-3.611728	-0.146349	-0.195618	-0.427054	-0.565674	-0.484375	0.566650	-0.289292	-0.747809	0.270441	-0.532873
24202		9.234432	0.888898	-3.451521	-0.078821	-0.093023	-0.115899	-0.568359	-0.487305	0.581543	-0.290449	-0.748456	0.270338	-0.531386
24203		9.543195	-0.665221	-4.738646	-0.135938	-0.225742	-0.005777	-0.568359	-0.490723	0.573730	-0.290935	-0.749411	0.272109	-0.528863
24204		9.819598	-0.173894	-4.300660	-0.275167	-0.083254	0.089566	-0.562500	-0.494385	0.574707	-0.292598	-0.748568	0.275209	-0.527535
24205		9.597495	0.120061	-3.082793	-0.289614	-0.067787	0.228917	-0.569580	-0.486328	0.574463	-0.293519	-0.747084	0.279643	-0.526793
24206		9.353078	0.202236	-3.312940	-0.177108	-0.134362	0.281030	-0.567871	-0.494873	0.563477	-0.292795	-0.746251	0.284066	-0.526010
24207		8.982940	0.051636	-3.363274	-0.152884	-0.100767	0.267613	-0.564453	-0.490479	0.562012	-0.292075	-0.745308	0.288099	-0.525554
24208		9.081457	0.279347	-3.197855	-0.140277	-0.095665	0.243302	-0.572754	-0.494873	0.571777	-0.291406	-0.744457	0.291799	-0.525090
24209		9.341912	1.500214	-3.356825	0.086696	-0.098998	0.201211	-0.582520	-0.475098	0.566162	-0.288880	-0.744602	0.293624	-0.525263
24210		9.262660	1.229934	-2.414636	0.327132	0.040058	0.186408	-0.569336	-0.474609	0.569580	-0.284713	-0.744733	0.293240	-0.527561
24211		9.557866	0.103643	-1.979238	0.332576	0.043712	0.206047	-0.584473	-0.459961	0.572266	-0.280378	-0.744781	0.292968	-0.529962
24212		9.396524	0.283760	-2.804694	0.116530	-0.140665	0.179956	-0.578613	-0.455811	0.575684	-0.277542	-0.745368	0.294533	-0.529762
24213		9.105766	1.357624	-3.488750	-0.052304	-0.201486	0.140337	-0.575928	-0.466309	0.582764	-0.276313	-0.745914	0.297051	-0.528228
24214		8.946112	0.960589	-3.555471	0.099869	-0.035152	0.161866	-0.586670	-0.455078	0.582031	-0.274147	-0.745803	0.298186	-0.528873
24215		9.544563	-0.684690	-4.048283	0.373226	-0.051912	0.251970	-0.585693	-0.448486	0.586426	-0.268765	-0.746384	0.298415	-0.530684
24216		9.620213	-2.459663	-4.543755	0.507040	-0.088918	0.465479	-0.587158	-0.435303	0.604248	-0.260568	-0.746822	0.299863	-0.533332
24217		9.886922	-3.495343	-3.515242	0.636878	-0.066517	0.833060	-0.602783	-0.409668	0.612549	-0.248747	-0.746071	0.303763	-0.537802
24218		10.346933	-3.258702	-2.795706	0.795171	0.062967	1.226966	-0.608643	-0.375000	0.603516	-0.233227	-0.743248	0.309807	-0.545168
24219		11.644935	-2.475367	-2.669438	0.777561	0.283287	1.482270	-0.622803	-0.347168	0.600830	-0.216902	-0.737575	0.317598	-0.555038
24220		12.348199	-1.909276	-1.490348	0.666135	0.589999	1.650662	-0.644287	-0.302002	0.596436	-0.201561	-0.728424	0.326732	-0.567466
24221		12.448494	-1.704255	-0.751964	0.225447	0.560731	1.828343	-0.660156	-0.273682	0.595703	-0.188723	-0.717228	0.340486	-0.577959
24222		12.524069	-2.162331	-2.761703	-0.198798	0.088168	2.021511	-0.681641	-0.235107	0.592285	-0.176164	-0.707188	0.359925	-0.582499
24223		11.290511	-3.526542	-0.282738	-0.106008	0.368710	2.144103	-0.687256	-0.197510	0.579346	-0.163017	-0.694253	0.378897	-0.589810
24224		11.557324	-2.524968	-3.765835	0.528286	0.462875	2.128703	-0.696777	-0.146973	0.576416	-0.144797	-0.681455	0.392569	-0.600451
24225		11.060092	-3.572476	-2.950500	1.035563	0.949231	1.988936	-0.728027	-0.099854	0.562500	-0.125547	-0.666033	0.400018	-0.616947
24226		9.257814	-1.234164	0.124325	0.610865	0.716431	1.770153	-0.725586	-0.048340	0.548096	-0.110278	-0.652295	0.408972	-0.628563
24227		9.245306	-0.592193	-0.562270	0.039164	0.310264	1.818465	-0.737061	-0.007812	0.540527	-0.097177	-0.640316	0.423149	-0.633638
24228		9.579488	-2.487349	-1.695852	-0.162043	0.235951	1.825256	-0.742188	0.023926	0.532471	-0.085197	-0.628298	0.438822	-0.636725
24229		9.485539	-3.427323	-1.594597	0.071968	0.281376	1.653753	-0.741211	0.058105	0.523926	-0.072952	-0.616800	0.451012	-0.640956
24230		9.290774	-3.362593	-1.877166	0.264403	0.305233	1.504567	-0.742188	0.085693	0.513672	-0.060523	-0.605871	0.460295	-0.646054
24231		9.080331	-3.312853	-1.479703	0.327424	0.278958	1.421618	-0.744385	0.123535	0.512451	-0.048112	-0.595458	0.468285	-0.651017
24232		8.381448	-3.634744	-1.973280	0.304416	0.242318	1.310415	-0.742676	0.158447	0.493652	-0.036547	-0.585791	0.475499	-0.655297
24233		7.687135	-3.816571	-1.947299	0.245805	0.283512	1.179277	-0.731689	0.179199	0.496094	-0.026720	-0.576382	0.482081	-0.659294
24234		7.462911	-4.450893	-1.730360	0.287762	0.278433	1.079282	-0.725586	0.209961	0.484863	-0.017378	-0.567501	0.487485	-0.663324
24235		6.927780	-4.881391	-1.855533	0.447709	0.248452	0.899195	-0.727783	0.230469	0.476074	-0.008209	-0.559894	0.490198	-0.667950
24236		6.361045	-4.199368	-1.651114	0.588230	0.260407	0.710119	-0.729248	0.256592	0.466797	0.000292	-0.553272	0.490335	-0.673395
24237		6.104862	-4.282050	-1.380411	0.535806	0.180902	0.490616	-0.729980	0.269043	0.460693	0.007070	-0.548601	0.489337	-0.677891
24238		5.912864	-3.770182	-1.579710	0.318363	0.160501	0.322070	-0.716553	0.274414	0.447998	0.011053	-0.545119	0.488992	-0.680889
24239		5.266406	-3.849427	-0.938778	0.192695	0.152281	0.157252	-0.719727	0.283691	0.449463	0.012827	-0.542719	0.488579	-0.683068
24240		5.447134	-4.861231	-1.060851	0.097554	0.085669	-0.004474	-0.730957	0.282959	0.441650	0.012981	-0.541887	0.487866	-0.684235
24241		5.753806	-5.534669	-0.738362	0.089749	0.011387	-0.143094	-0.728760	0.289062	0.444336	0.012349	-0.542535	0.486267	-0.684870
24242		5.688249	-5.727216	-1.118501	0.019506	0.062648	-0.204471	-0.730957	0.284424	0.441406	0.010403	-0.543125	0.484860	-0.685432
24243		6.128555	-6.708138	-1.098374	0.134681	0.071788	-0.258654	-0.726562	0.273926	0.433838	0.008719	-0.543945	0.482097	-0.686753
24244		6.331615	-7.032301	-0.818627	0.282743	0.057395	-0.344818	-0.735840	0.267578	0.433838	0.007387	-0.545377	0.477470	-0.688863
24245		6.607957	-5.973018	0.475502	0.152313	-0.051113	-0.373123	-0.742920	0.269775	0.435791	0.005569	-0.547909	0.473753	-0.689437
24246		7.101359	-6.493560	-0.389251	-0.061122	-0.153496	-0.346990	-0.732910	0.255371	0.440430	0.003122	-0.551171	0.472034	-0.688029
24247		7.651849	-6.768208	-0.426593	-0.051211	-0.147213	-0.298082	-0.737793	0.250244	0.459717	0.001127	-0.554080	0.470559	-0.686708
24248		7.216569	-6.160245	-0.325839	-0.134230	-0.194767	-0.253195	-0.734131	0.247314	0.456055	-0.000778	-0.557125	0.470099	-0.684557
24249		6.493156	-6.043481	-0.621358	-0.165379	-0.230889	-0.352528	-0.740234	0.238281	0.457520	-0.003537	-0.561049	0.469201	-0.681955
24250		6.453298	-5.101924	-0.298830	-0.024532	-0.259270	-0.500356	-0.741455	0.230957	0.468750	-0.006402	-0.566065	0.466051	-0.679945
24251		6.521260	-4.280512	0.386147	-0.123069	-0.307241	-0.607792	-0.741699	0.215820	0.470947	-0.010597	-0.572075	0.462953	-0.676974
24252		6.618097	-3.549233	0.134633	-0.436493	-0.277231	-0.714527	-0.741943	0.201416	0.479004	-0.018107	-0.578353	0.461690	-0.672326
24253		8.462873	-7.449321	-1.057838	-0.628160	-0.434261	-0.566232	-0.744141	0.181152	0.493408	-0.024848	-0.584980	0.463081	-0.665385
24254		9.664236	-10.471513	-2.148424	-0.307574	-0.378840	-0.367209	-0.743896	0.160889	0.507324	-0.027907	-0.590034	0.463200	-0.660701
24255		9.856366	-12.158247	-2.845340	-0.187387	-0.460723	-0.011204	-0.733398	0.167725	0.516113	-0.026665	-0.593714	0.464969	-0.656199
24256		6.890118	-3.630218	0.048536	0.123257	-0.144382	-0.176985	-0.736084	0.166260	0.517822	-0.026317	-0.595844	0.462857	-0.655775
24257		6.660557	-2.229940	-1.228634	-0.321695	-0.386131	-0.324325	-0.734863	0.151611	0.525146	-0.029089	-0.600646	0.463353	-0.650909
24258		8.043964	-6.722725	-2.927733	-0.097849	-0.309209	-0.502542	-0.733643	0.145752	0.531494	-0.032075	-0.605907	0.460630	-0.647818
24259		10.648096	-7.632554	-2.753702	0.458132	-0.307096	-0.520098	-0.732666	0.149170	0.531250	-0.031002	-0.611429	0.453245	-0.647890
24260		8.752255	-3.667971	-2.113270	0.391873	-0.152499	-0.517723	-0.732422	0.139893	0.537842	-0.031290	-0.615613	0.446323	-0.648720
24261		8.015527	-4.311943	-2.099277	0.089989	-0.439583	-0.539666	-0.728760	0.130615	0.549805	-0.032475	-0.622089	0.441758	-0.645601
24262		8.924808	-6.326925	-2.522274	0.315244	-0.491342	-0.541236	-0.733154	0.125732	0.550781	-0.031633	-0.629031	0.435346	-0.643267
24263		8.588936	-3.996070	-1.802607	0.354232	-0.448672	-0.454676	-0.724609	0.118164	0.557861	-0.029993	-0.635133	0.429225	-0.641461
24264		8.175374	-4.374119	-2.025699	0.012203	-0.396845	-0.374178	-0.722412	0.108398	0.571533	-0.030702	-0.640220	0.426440	-0.638220
24265		7.986040	-5.474018	-2.776325	0.193089	-0.230320	-0.314507	-0.717285	0.102295	0.577148	-0.030375	-0.643708	0.422610	-0.637274
24266		7.509938	-5.109060	-2.230463	0.351231	-0.209739	-0.241667	-0.720459	0.114258	0.575928	-0.028303	-0.646686	0.418091	-0.637335
24267		7.620263	-4.611937	-2.012563	0.243812	-0.254446	-0.178500	-0.712646	0.108154	0.575684	-0.026356	-0.649633	0.414940	-0.636481
24268		8.028193	-4.607999	-1.176950	0.055941	-0.249348	-0.102116	-0.707275	0.094971	0.581787	-0.025359	-0.652068	0.413897	-0.634707
24269		8.202399	-5.111109	-1.255929	0.001484	-0.164040	-0.025247	-0.707275	0.100586	0.594238	-0.024646	-0.653407	0.413887	-0.633364
24270		8.238444	-4.457410	-1.541892	0.149630	0.012040	0.055598	-0.709717	0.110352	0.586914	-0.022984	-0.652978	0.413309	-0.634245
24271		8.474009	-4.261304	-2.076782	0.122231	0.172139	0.147255	-0.711670	0.114502	0.588623	-0.021643	-0.650792	0.413639	-0.636321
24272		8.494496	-4.615627	-2.449226	-0.025621	0.216422	0.203548	-0.715332	0.121094	0.573730	-0.021285	-0.647917	0.415588	-0.637995
24273		9.382922	-5.109440	-3.072360	-0.041102	0.123013	0.161340	-0.711182	0.117920	0.568359	-0.020905	-0.645993	0.417327	-0.638823
24274		9.505773	-4.100537	-2.840589	-0.054057	0.031958	0.070774	-0.715088	0.124756	0.570801	-0.020884	-0.645261	0.418466	-0.638818
24275		9.608518	-4.917483	-3.632800	-0.099072	0.029589	-0.029669	-0.714844	0.118896	0.584717	-0.022010	-0.645063	0.419150	-0.638531
24276		8.814874	-5.586959	-3.225429	0.064902	0.044137	-0.100585	-0.714355	0.120117	0.573242	-0.022455	-0.645169	0.417967	-0.639185
24277		7.688899	-5.536146	-2.355117	0.280905	0.000149	-0.120292	-0.711670	0.122314	0.576904	-0.021087	-0.645781	0.414899	-0.640610
24278		7.335227	-5.389246	-1.442258	0.412588	-0.066617	-0.106043	-0.718750	0.117920	0.569336	-0.018192	-0.646876	0.410912	-0.642162
24279		7.850704	-5.749653	-1.363965	0.564877	-0.034214	-0.057438	-0.707275	0.125488	0.567871	-0.013857	-0.647469	0.406055	-0.644757
24280		8.218456	-4.994342	-0.864513	0.580470	0.057344	0.059535	-0.716797	0.136719	0.571045	-0.008912	-0.646698	0.402000	-0.648150
24281		9.119249	-5.900351	-1.228664	0.424747	0.061433	0.272570	-0.720459	0.150635	0.569580	-0.003519	-0.644776	0.400906	-0.650789
24282		9.743420	-7.173312	-1.361150	0.337586	0.028228	0.422473	-0.718994	0.166748	0.559326	0.002561	-0.642340	0.401709	-0.652704
24283		9.061246	-6.810289	-1.559646	0.626838	0.075274	0.515324	-0.713623	0.181885	0.555176	0.011486	-0.638993	0.400856	-0.656407
24284		7.188976	-4.379386	-1.067759	0.629233	0.155373	0.444346	-0.698730	0.199219	0.550049	0.019443	-0.635278	0.399398	-0.660701
24285		5.983967	-3.244080	-0.858896	0.545295	0.128678	0.300559	-0.702393	0.208740	0.542969	0.025685	-0.632469	0.397481	-0.664328
24286		6.885402	-4.226276	-0.898075	0.344675	0.067144	0.171126	-0.701172	0.217529	0.534912	0.029564	-0.630852	0.396154	-0.666493
24287		7.001523	-4.436865	-0.850266	0.324950	0.048517	-0.010503	-0.708496	0.223633	0.530762	0.031846	-0.630274	0.393549	-0.668476
24288		7.016906	-3.718068	-0.553505	0.312742	-0.047613	-0.151139	-0.713379	0.223877	0.534668	0.033330	-0.631185	0.389875	-0.669695
24289		7.189902	-3.254034	-0.777754	0.039501	-0.158968	-0.273598	-0.711182	0.220215	0.543213	0.032172	-0.633733	0.387467	-0.668742
24290		7.442999	-3.289040	-0.936898	0.013135	-0.136988	-0.411868	-0.709961	0.214600	0.540283	0.029544	-0.636767	0.384203	-0.667865
24291		7.756506	-3.941440	-0.766776	-0.018594	-0.152216	-0.559435	-0.712646	0.203125	0.546387	0.025507	-0.640623	0.379993	-0.666751
24292		8.683342	-5.564803	0.029554	0.113767	-0.251728	-0.499361	-0.711914	0.195312	0.552734	0.023499	-0.644953	0.375111	-0.665413
24293		10.389409	-7.226121	-0.615960	-0.107088	-0.401667	-0.270528	-0.709717	0.184570	0.553711	0.022316	-0.649495	0.373855	-0.661733
24294		9.433314	-6.992451	-0.503842	-0.100644	-0.298981	-0.078601	-0.699463	0.184326	0.558838	0.022285	-0.652274	0.374093	-0.658860
24295		8.336590	-5.890138	-0.305672	-0.279093	-0.256007	0.028436	-0.700195	0.178711	0.564941	0.021487	-0.654231	0.376699	-0.655453
24296		7.568502	-4.987118	-0.467173	-0.198805	-0.127465	-0.006844	-0.702393	0.180664	0.565674	0.020446	-0.655271	0.378373	-0.653480
24297		7.342702	-4.384255	-1.305860	-0.080486	-0.167371	-0.091174	-0.699707	0.174316	0.587158	0.019881	-0.656999	0.378360	-0.651768
24298		7.943677	-4.591881	-1.393426	-0.015458	-0.244044	-0.152169	-0.702148	0.176758	0.580811	0.019707	-0.659617	0.377361	-0.649704
24299		8.343668	-5.168264	-1.715778	-0.087434	-0.303573	-0.124513	-0.699951	0.162598	0.590332	0.019455	-0.662597	0.377098	-0.646826
24300		8.348154	-5.646158	-1.742199	-0.133930	-0.380794	-0.061959	-0.690674	0.168945	0.591064	0.019669	-0.665910	0.377705	-0.643052
24301		8.396957	-6.143499	-2.136110	-0.094565	-0.482010	-0.034063	-0.678467	0.162109	0.610107	0.020946	-0.669876	0.378176	-0.638600
24302		8.317255	-5.118490	-1.328309	0.000662	-0.390247	-0.140169	-0.675781	0.163330	0.615723	0.021731	-0.673562	0.377069	-0.635343
24303		8.283015	-4.242637	-1.206912	-0.156090	-0.409411	-0.194739	-0.677002	0.159180	0.622803	0.020858	-0.677679	0.376716	-0.631190
24304		8.794919	-4.755266	-2.253072	-0.240602	-0.443543	-0.244122	-0.663330	0.155029	0.626709	0.019040	-0.682295	0.376557	-0.626351
24305		9.531273	-5.398115	-2.813745	-0.165988	-0.319484	-0.336123	-0.663818	0.137939	0.631104	0.016562	-0.686322	0.375056	-0.622913
24306		9.264820	-4.745914	-2.232071	-0.144354	-0.381830	-0.389867	-0.654297	0.131836	0.649170	0.014125	-0.691060	0.372872	-0.619035
24307		9.443827	-4.579570	-2.401864	-0.105566	-0.346611	-0.449761	-0.658936	0.118652	0.649414	0.011402	-0.695759	0.369915	-0.615592
24308		9.876007	-4.069320	-2.061374	-0.298686	-0.248448	-0.448790	-0.653076	0.108398	0.648926	0.006542	-0.699695	0.368389	-0.612105
24309		9.724591	-4.334201	-2.351984	-0.525032	-0.219414	-0.499988	-0.659912	0.093994	0.675781	-0.000820	-0.703614	0.368114	-0.607798
24310		9.406451	-4.716315	-3.252645	-0.410416	-0.184060	-0.619785	-0.655273	0.072998	0.666016	-0.008240	-0.707753	0.365913	-0.604256
24311		8.892933	-3.563139	-3.594133	-0.358800	-0.174555	-0.687489	-0.659180	0.056885	0.670166	-0.015764	-0.712067	0.362669	-0.600985
24312		8.703069	-3.693431	-4.164693	-0.462548	-0.288115	-0.737301	-0.652588	0.028320	0.675049	-0.024068	-0.717359	0.359745	-0.596155
24313		8.963680	-3.688465	-3.899370	-0.278434	-0.341407	-0.831189	-0.647949	0.020752	0.683105	-0.031184	-0.723427	0.354588	-0.591563
24314		8.940714	-3.705210	-3.468018	-0.113919	-0.338631	-0.922656	-0.647949	0.008057	0.684326	-0.037487	-0.729845	0.347332	-0.587606
24315		8.851560	-3.122123	-3.310732	-0.063338	-0.294904	-0.938254	-0.639893	-0.017090	0.697021	-0.043630	-0.735924	0.339489	-0.584174
24316		8.437000	-2.547918	-3.644610	-0.094864	-0.298415	-0.948613	-0.637451	-0.031982	0.700439	-0.050119	-0.741945	0.331735	-0.580480
24317		8.438712	-2.667638	-3.935947	0.017861	-0.362386	-0.990415	-0.628418	-0.044678	0.703125	-0.055593	-0.748554	0.322762	-0.576542
24318		8.869926	-3.114458	-3.265692	0.142364	-0.331434	-1.003351	-0.627441	-0.062256	0.712158	-0.060110	-0.754951	0.312693	-0.573287
24319		8.911392	-2.306228	-2.591502	0.041278	-0.269875	-0.995828	-0.617188	-0.077393	0.711670	-0.065761	-0.760673	0.303326	-0.570127
24320		9.028527	-2.384279	-2.647384	-0.032323	-0.264236	-0.961553	-0.614502	-0.094238	0.711182	-0.071880	-0.766045	0.294755	-0.566681
24321		9.303532	-1.199857	-2.542169	-0.138151	-0.185284	-0.985816	-0.616211	-0.115723	0.718750	-0.079467	-0.770732	0.286588	-0.563494
24322		9.488883	-1.224422	-3.080445	-0.297094	-0.142967	-0.975402	-0.605225	-0.139404	0.713135	-0.088653	-0.774801	0.279552	-0.560066
24323		9.413371	-1.051343	-3.213590	-0.282306	-0.120689	-0.992728	-0.607422	-0.153320	0.721924	-0.097885	-0.778664	0.272175	-0.556796
24324		9.084323	-0.006637	-3.419900	-0.280148	-0.045863	-0.993818	-0.596191	-0.171875	0.723145	-0.107337	-0.781887	0.264628	-0.554170
24325		8.841895	-0.442661	-4.461148	-0.228710	-0.015325	-1.059602	-0.590088	-0.196045	0.718506	-0.116823	-0.785052	0.255988	-0.551830
24326		8.588250	-0.305657	-4.342356	-0.095474	0.009075	-1.116828	-0.593994	-0.215576	0.714844	-0.125457	-0.788279	0.245788	-0.549969
24327		8.555176	0.710382	-3.405679	-0.117990	-0.020272	-1.193093	-0.583008	-0.231445	0.721924	-0.134725	-0.791742	0.234991	-0.547515
24328		9.037297	0.751408	-2.657808	-0.300115	0.006420	-1.203523	-0.582764	-0.257812	0.715576	-0.145909	-0.794569	0.225229	-0.544649
24329		8.815063	0.412711	-2.705282	-0.538660	0.044785	-1.098674	-0.579346	-0.290283	0.698730	-0.158828	-0.796216	0.218010	-0.541558
24330		8.340882	0.363154	-3.344194	-0.733949	0.008890	-1.074980	-0.568604	-0.328857	0.706299	-0.173403	-0.797454	0.212376	-0.537490
24331		8.255810	0.911267	-2.433293	-0.635591	0.063667	-0.976584	-0.569092	-0.335938	0.698486	-0.186443	-0.798086	0.206895	-0.534314
24332		7.968745	0.465700	-2.585427	-0.538527	0.072824	-0.916117	-0.564697	-0.357422	0.691162	-0.198088	-0.798577	0.201294	-0.531523
24333		8.044648	-0.840055	-4.428016	-0.211407	0.007799	-0.826010	-0.558838	-0.378906	0.685059	-0.205678	-0.799968	0.194551	-0.529054
24334		8.539848	-2.006353	-4.746726	-0.029848	0.013916	-0.557422	-0.547119	-0.389160	0.691650	-0.209680	-0.801067	0.189278	-0.527731
24335		8.997907	-2.874141	-4.013708	-0.132056	-0.044734	-0.088051	-0.545166	-0.395996	0.685547	-0.211460	-0.801155	0.189539	-0.526793
24336		9.306371	-2.719846	-3.908414	-0.438660	-0.217489	0.350699	-0.543457	-0.398926	0.681152	-0.213007	-0.800503	0.196682	-0.524536
24337		9.298802	-2.489079	-4.759540	-0.605991	-0.185012	0.533737	-0.551270	-0.394043	0.686768	-0.215089	-0.798674	0.206666	-0.522633
24338		8.834942	-0.911911	-3.781262	-0.421651	-0.165326	0.570029	-0.549805	-0.400146	0.681885	-0.215113	-0.797042	0.215739	-0.521447
24339		8.745047	1.075202	-4.821482	-0.155538	-0.176560	0.485586	-0.548828	-0.391113	0.686279	-0.212996	-0.796370	0.222266	-0.520601
24340		8.831693	1.267663	-4.413052	0.276250	-0.050825	0.206618	-0.556396	-0.376709	0.693359	-0.208734	-0.796779	0.222860	-0.521447
24341		9.428385	2.937561	-2.568345	0.487390	-0.079430	0.055760	-0.548096	-0.379883	0.691406	-0.203261	-0.798326	0.220637	-0.522188
24342		9.209298	2.136106	-3.937602	0.278679	0.006700	-0.094698	-0.551514	-0.377686	0.690430	-0.201097	-0.799171	0.218055	-0.522818
24343		9.042091	0.960231	-3.917126	0.297396	0.042157	-0.096297	-0.545166	-0.375244	0.694336	-0.198852	-0.799824	0.215241	-0.523842
24344		9.037586	1.124764	-2.911243	0.353820	-0.052343	0.028542	-0.547852	-0.369629	0.701904	-0.194969	-0.800887	0.213537	-0.524374
24345		9.045771	0.872935	-4.236378	0.260019	0.024140	0.000376	-0.556641	-0.355957	0.705811	-0.192410	-0.801284	0.211974	-0.525347
24346		8.805892	-0.067290	-4.117111	0.416133	0.033350	-0.011966	-0.546387	-0.354980	0.706543	-0.188384	-0.802016	0.209229	-0.526788
24347		8.662015	-0.185000	-2.525759	0.363997	-0.077720	0.109429	-0.552734	-0.343262	0.713867	-0.183789	-0.803017	0.208310	-0.527250
24348		8.692554	-0.913299	-4.462114	0.200661	-0.139211	0.241294	-0.553955	-0.338379	0.712891	-0.179798	-0.803688	0.209925	-0.526963
24349		8.498904	-0.730230	-4.599989	0.519554	-0.016061	0.286909	-0.554443	-0.321777	0.719727	-0.172622	-0.804113	0.209623	-0.528831
24350		8.240471	-1.504174	-4.459932	0.706593	-0.010252	0.357432	-0.558838	-0.307129	0.726807	-0.163097	-0.804658	0.208768	-0.531358
24351		8.207970	-0.943858	-3.327556	0.866700	0.005818	0.544660	-0.554688	-0.273926	0.724854	-0.150742	-0.804826	0.208682	-0.534775
24352		8.684396	-0.853959	-2.611220	0.416209	-0.135768	0.761039	-0.568115	-0.270020	0.733887	-0.141075	-0.804412	0.214019	-0.535925
24353		9.006370	-0.114900	-2.655001	0.151771	0.078959	0.903046	-0.569336	-0.247559	0.732910	-0.133683	-0.801603	0.222163	-0.538707
24354		9.115698	-0.073318	-2.515295	-0.000078	0.183667	1.041677	-0.579590	-0.234863	0.729004	-0.127144	-0.797325	0.232499	-0.542266
24355		8.010010	-0.371268	-3.283415	-0.124378	0.172688	1.138644	-0.583984	-0.207764	0.727783	-0.121132	-0.792482	0.244613	-0.545403
24356		7.640292	1.832117	-4.341944	-0.387230	-0.018309	1.119984	-0.586914	-0.202148	0.733398	-0.117230	-0.788429	0.258556	-0.545698
24357		9.183133	-1.165963	-3.795710	-0.201608	-0.031925	0.957568	-0.588867	-0.184814	0.728760	-0.112542	-0.785118	0.269596	-0.546116
24358		9.310687	-2.002013	-4.200011	0.060623	0.116413	0.896412	-0.600586	-0.177002	0.735596	-0.106177	-0.781257	0.277994	-0.548711
24359		8.828443	-2.066429	-3.508588	0.330207	-0.022554	0.851558	-0.600098	-0.155762	0.733154	-0.096994	-0.778758	0.284258	-0.550751
24360		7.604839	-0.811556	-3.825841	0.264134	-0.160385	0.894606	-0.596191	-0.138916	0.735107	-0.087653	-0.776865	0.291523	-0.551192
24361		8.827582	1.558821	-4.170107	-0.011234	-0.294769	0.838987	-0.593994	-0.115723	0.738037	-0.080869	-0.775694	0.300253	-0.549187
24362		10.050849	-3.979340	-5.294170	0.447489	-0.183011	0.748661	-0.591797	-0.102051	0.742432	-0.070659	-0.774465	0.304788	-0.549832
24363		8.712872	-3.414941	-3.468291	0.831879	0.088629	0.807367	-0.596680	-0.077637	0.740723	-0.057353	-0.771351	0.306969	-0.554525
24364		7.621474	1.247899	-1.708779	0.111030	0.113925	0.851718	-0.604004	-0.062988	0.743652	-0.050782	-0.767242	0.314511	-0.556637
24365		11.301081	-1.536644	-5.700967	-0.462142	-0.024342	0.516187	-0.593750	-0.059326	0.749268	-0.051494	-0.764976	0.322866	-0.554903
24366		11.140944	-5.990304	-6.138847	0.562973	0.125314	0.308063	-0.608398	-0.042725	0.744141	-0.044438	-0.763124	0.321994	-0.558558
24367		7.689637	-0.918220	-2.524435	0.664037	0.182490	0.399085	-0.603271	-0.027588	0.741699	-0.036014	-0.760493	0.321229	-0.563174
24368		8.076814	-2.244791	-2.614104	-0.210210	-0.161855	0.592669	-0.601562	-0.020264	0.735107	-0.033153	-0.759053	0.328588	-0.561043
24369		9.780495	-2.611664	-4.365910	0.148096	0.021978	0.431977	-0.596436	-0.008057	0.740967	-0.028774	-0.757092	0.331808	-0.562039
24370		10.591385	-4.203416	-4.561262	0.452033	0.112356	0.136830	-0.597412	0.003906	0.733643	-0.023959	-0.755807	0.330054	-0.565019
24371		8.396923	-3.780232	-3.564736	0.632141	0.125099	0.129265	-0.604248	0.015869	0.734131	-0.017547	-0.754476	0.326932	-0.568834
24372		7.186879	-2.245961	-2.586833	0.348920	-0.066264	0.220028	-0.608154	0.028564	0.736328	-0.012382	-0.754037	0.326709	-0.569681
24373		8.351119	-3.575661	-3.251806	0.169804	-0.108410	0.304854	-0.595703	0.027100	0.736084	-0.008126	-0.753504	0.328552	-0.569402
24374		9.183397	-3.517998	-3.833063	0.390251	0.079184	0.207231	-0.596436	0.046143	0.730225	-0.003268	-0.752040	0.327895	-0.571761
24375		8.782229	-4.406444	-3.638162	0.362783	0.075995	0.169956	-0.594971	0.050781	0.736816	0.001089	-0.750729	0.327061	-0.573965
24376		7.451011	-3.634480	-2.979653	0.301487	0.039190	0.225706	-0.598877	0.058594	0.733643	0.005419	-0.749438	0.327197	-0.575548
24377		8.073272	-2.982453	-2.839003	-0.159451	0.039878	0.303922	-0.602051	0.060791	0.728027	0.005986	-0.747835	0.331371	-0.575240
24378		8.984863	-4.430391	-4.042632	0.036117	0.198227	0.225198	-0.606445	0.067871	0.724609	0.007157	-0.745390	0.333398	-0.577225
24379		8.401875	-4.690849	-3.266558	0.336517	0.278792	0.223086	-0.612305	0.077393	0.726074	0.010780	-0.742326	0.333232	-0.581199
24380		7.537534	-2.412588	-1.956405	0.283254	0.125570	0.259018	-0.608887	0.080566	0.716797	0.014808	-0.740209	0.333764	-0.583501
24381		8.342385	-4.558371	-3.134504	-0.109959	-0.066987	0.288312	-0.610107	0.088623	0.726807	0.016206	-0.739430	0.337393	-0.582363
24382		8.449190	-4.603840	-3.424474	0.200022	0.025982	0.317963	-0.604736	0.096191	0.725586	0.020302	-0.737774	0.339053	-0.583370
24383		8.600923	-3.035060	-2.759177	0.276316	0.173917	0.390320	-0.608643	0.114746	0.722656	0.025002	-0.734690	0.340859	-0.586021
24384		9.707015	-3.551416	-3.739181	0.073821	0.079360	0.392962	-0.609131	0.108887	0.711914	0.028277	-0.732327	0.344115	-0.586926
24385		10.198074	-4.489774	-4.384871	0.071574	0.080833	0.335149	-0.604004	0.118408	0.709473	0.031072	-0.730182	0.346851	-0.587847
24386		9.518779	-3.758825	-3.561704	0.127893	-0.002080	0.224498	-0.609131	0.135010	0.715820	0.033935	-0.729094	0.348126	-0.588284
24387		9.100484	-3.279057	-3.074576	-0.063068	0.068474	0.104514	-0.597900	0.128174	0.709961	0.033887	-0.728089	0.349722	-0.588585
24388		9.139099	-5.569154	-3.013556	-0.034307	0.066846	0.000927	-0.603760	0.122070	0.707031	0.033335	-0.727537	0.350178	-0.589028
24389		8.087398	-4.960125	-2.119295	0.129166	0.083240	-0.019322	-0.606445	0.133301	0.702148	0.034036	-0.726880	0.349247	-0.590350
24390		7.170356	-4.040841	-2.103023	0.028074	0.156157	0.052013	-0.617676	0.128906	0.707520	0.034042	-0.725414	0.349722	-0.591870
24391		7.045391	-4.781578	-2.296255	-0.139682	0.209899	0.125301	-0.615967	0.129150	0.704590	0.032821	-0.723294	0.352128	-0.593106
24392		7.175033	-5.680632	-2.876501	-0.058426	0.209019	0.162538	-0.615967	0.136475	0.700684	0.032618	-0.720973	0.354272	-0.594664
24393		7.068722	-4.888795	-2.563711	0.067550	0.155109	0.222249	-0.619385	0.135254	0.697510	0.034242	-0.718729	0.355990	-0.596261
24394		7.500407	-4.241583	-3.076666	-0.052233	-0.000469	0.208420	-0.616211	0.147217	0.696533	0.035370	-0.717746	0.358413	-0.595927
24395		8.160187	-5.618821	-3.109744	-0.111036	-0.063053	0.154327	-0.623291	0.137451	0.701172	0.035862	-0.717495	0.360750	-0.594789
24396		8.369939	-5.814284	-2.463536	0.017564	-0.025046	0.116277	-0.616943	0.149902	0.705566	0.037034	-0.717069	0.361811	-0.594587
24397		7.936733	-4.465728	-1.520230	-0.031438	-0.051086	0.087180	-0.613037	0.145996	0.702148	0.037686	-0.716991	0.362966	-0.593936
24398		7.834901	-4.016821	-2.064599	-0.182736	-0.066449	0.037580	-0.604492	0.151611	0.707031	0.036678	-0.717319	0.364790	-0.592483
24399		8.045120	-5.344687	-2.534845	-0.132923	-0.090345	-0.042813	-0.609131	0.135010	0.703125	0.035644	-0.718168	0.365510	-0.591073
24400		8.296322	-4.849430	-2.109464	0.048055	-0.021217	-0.065639	-0.602295	0.138672	0.710205	0.035726	-0.718523	0.364717	-0.591126
24401		7.886615	-4.367844	-2.348075	-0.017851	0.000203	-0.077145	-0.611084	0.137207	0.708008	0.035044	-0.718804	0.364320	-0.591070
24402		7.940663	-4.390706	-2.509441	-0.071887	-0.066655	-0.174339	-0.610352	0.128174	0.708008	0.033459	-0.720041	0.363407	-0.590218
24403		8.298500	-4.546524	-2.468071	-0.066911	-0.094160	-0.280515	-0.611816	0.136475	0.713135	0.031254	-0.721953	0.361489	-0.589180
24404		9.147454	-4.946051	-3.854662	-0.159183	-0.149241	-0.365413	-0.618896	0.123291	0.719482	0.027855	-0.724679	0.359444	-0.587251
24405		8.920363	-4.448986	-3.443246	-0.053571	-0.069831	-0.417935	-0.621338	0.115234	0.710938	0.024661	-0.727001	0.356167	-0.586521
24406		8.610224	-3.947627	-3.065556	-0.179021	-0.109398	-0.414870	-0.620361	0.102539	0.721680	0.020519	-0.729614	0.353809	-0.584861
24407		8.697035	-4.157370	-3.198262	-0.174337	-0.099063	-0.434606	-0.612549	0.092041	0.715088	0.016228	-0.732214	0.351236	-0.583295
24408		8.825986	-4.289681	-2.656020	-0.140239	-0.056058	-0.444419	-0.611816	0.084961	0.722412	0.011988	-0.734512	0.348321	-0.582255
24409		9.242633	-3.894524	-3.177929	-0.275450	-0.033788	-0.394943	-0.617432	0.067627	0.723877	0.006774	-0.736430	0.346838	-0.580800
24410		9.504662	-3.446954	-3.903648	-0.382196	-0.002586	-0.399494	-0.617188	0.057373	0.720947	0.000399	-0.738118	0.346076	-0.579149
24411		9.890714	-3.428375	-4.182286	-0.423009	0.036020	-0.433882	-0.617188	0.046387	0.724121	-0.006766	-0.739638	0.345268	-0.577651
24412		10.161989	-3.133701	-3.568354	-0.463882	-0.000934	-0.478078	-0.622559	0.030029	0.725586	-0.014463	-0.741568	0.344327	-0.575592
24413		10.285104	-2.778889	-3.395935	-0.527691	0.009907	-0.543353	-0.616455	0.017822	0.726807	-0.023270	-0.743632	0.343204	-0.573307
24414		10.319534	-2.686038	-3.338180	-0.556606	0.060150	-0.593769	-0.623047	-0.008545	0.717529	-0.032911	-0.745477	0.341770	-0.571292
24415		9.977050	-2.214665	-3.658296	-0.595713	0.106422	-0.639715	-0.622314	-0.026611	0.721436	-0.043453	-0.747084	0.340119	-0.569470
24416		9.820731	-1.943526	-4.039681	-0.650211	0.076948	-0.668418	-0.621338	-0.044678	0.711426	-0.054571	-0.748902	0.338563	-0.567048
24417		9.554165	-1.273200	-4.166924	-0.691706	0.152857	-0.729705	-0.626953	-0.075684	0.713379	-0.066824	-0.750301	0.336613	-0.565044
24418		8.944036	-1.464808	-4.442241	-0.746812	0.171968	-0.763884	-0.631104	-0.095947	0.714600	-0.079914	-0.751535	0.334664	-0.562857
24419		8.440446	-1.694549	-4.540668	-0.661572	0.130292	-0.790319	-0.632568	-0.121338	0.708252	-0.092193	-0.753130	0.331846	-0.560513
24420		7.675169	-1.195002	-4.873073	-0.652888	0.032626	-0.834261	-0.637939	-0.149658	0.695068	-0.104282	-0.755471	0.328608	-0.557141
24421		7.852322	-2.139236	-5.029532	-0.598866	-0.057400	-0.862387	-0.626953	-0.173828	0.706787	-0.115686	-0.758485	0.324778	-0.553025
24422		8.578306	-1.944489	-4.043097	-0.353954	0.016351	-0.914953	-0.628662	-0.196533	0.691406	-0.125401	-0.761446	0.318625	-0.550412
24423		9.115643	-0.712576	-2.353130	-0.234683	0.055184	-0.972024	-0.617676	-0.216064	0.697266	-0.134526	-0.764426	0.310989	-0.548490
24424		9.143752	-0.669558	-2.415103	-0.468375	0.044515	-0.978744	-0.619385	-0.237793	0.694336	-0.145859	-0.766994	0.304870	-0.545436
24425		8.587702	-1.232707	-3.355743	-0.576390	0.045333	-0.936683	-0.614258	-0.269775	0.695068	-0.157915	-0.769053	0.299822	-0.541966
24426		8.004033	-0.799436	-3.617852	-0.609414	0.119300	-0.866920	-0.617920	-0.289795	0.680908	-0.170075	-0.770147	0.295483	-0.539109
24427		8.000872	0.142343	-3.510264	-0.550762	0.034584	-0.872139	-0.619873	-0.314941	0.674316	-0.181363	-0.771813	0.290820	-0.535570
24428		8.218435	-0.742161	-4.025130	-0.571689	-0.020442	-0.864185	-0.603760	-0.332764	0.674072	-0.192569	-0.773647	0.286462	-0.531344
24429		7.824106	-0.709937	-3.779055	-0.453116	-0.053457	-0.824365	-0.592041	-0.350098	0.670898	-0.202203	-0.775736	0.281740	-0.527229
24430		8.345025	-0.461486	-2.894071	-0.373062	-0.047074	-0.836693	-0.584961	-0.371826	0.661133	-0.211134	-0.777927	0.276318	-0.523355
24431		8.960017	0.607614	-2.882664	-0.448676	-0.045498	-0.721216	-0.582520	-0.389404	0.671875	-0.220034	-0.779410	0.272484	-0.519478
24432		8.227551	0.432158	-3.506148	-0.434985	-0.036772	-0.727289	-0.575684	-0.411377	0.664307	-0.228835	-0.780814	0.268439	-0.515660
24433		8.086034	-0.820764	-3.676086	-0.137389	-0.008531	-0.654651	-0.562012	-0.427979	0.652100	-0.234346	-0.782570	0.263086	-0.513276
24434		8.295939	-1.167459	-3.244650	0.023334	0.001450	-0.579973	-0.555176	-0.436035	0.664307	-0.237832	-0.784437	0.257401	-0.511703
24435		9.529366	-2.072587	-3.361147	0.007240	-0.093721	-0.415583	-0.548340	-0.426270	0.658691	-0.240098	-0.786310	0.253702	-0.509613
24436		9.475442	-2.022649	-4.050268	0.225420	0.005956	-0.297885	-0.553467	-0.429688	0.668945	-0.239770	-0.787809	0.249464	-0.509543
24437		9.245565	-1.000283	-3.859305	0.213721	0.001968	-0.205956	-0.550293	-0.431641	0.670166	-0.238954	-0.788999	0.246222	-0.509662
24438		9.138917	0.581927	-3.599836	-0.053992	0.076438	-0.049264	-0.557861	-0.440186	0.656738	-0.240009	-0.788426	0.246015	-0.510153
24439		9.295269	0.143732	-3.968204	-0.134724	0.000026	0.044133	-0.555664	-0.443115	0.664062	-0.241043	-0.787801	0.247486	-0.509920
24440		8.981106	1.294275	-3.597742	0.198467	0.079063	-0.002425	-0.553223	-0.430664	0.670166	-0.239329	-0.787821	0.246132	-0.511350
24441		8.867380	2.691067	-3.778244	0.255278	-0.012289	-0.133229	-0.547852	-0.438721	0.665771	-0.237597	-0.788994	0.243388	-0.511663
24442		9.147742	2.688744	-3.389945	0.129764	0.105138	-0.217651	-0.551758	-0.438721	0.655029	-0.238012	-0.789287	0.240270	-0.512490
24443		9.200848	1.535840	-3.198487	0.019308	0.084196	-0.124394	-0.547119	-0.437012	0.655518	-0.238859	-0.789097	0.238843	-0.513056
24444		8.553578	0.943843	-4.152680	0.046440	0.032298	-0.120558	-0.546875	-0.443604	0.663086	-0.239254	-0.789310	0.237429	-0.513201
24445		8.779881	1.360445	-3.479487	0.022695	-0.026980	0.003927	-0.553467	-0.443115	0.664551	-0.238908	-0.789463	0.237574	-0.513059
24446		9.104934	1.096150	-3.895973	-0.030016	-0.002331	-0.001433	-0.549561	-0.439453	0.661865	-0.239190	-0.789315	0.237931	-0.512991
24447		8.946526	1.591491	-3.349076	0.091615	0.012245	-0.037442	-0.553467	-0.439453	0.661865	-0.238544	-0.789544	0.237107	-0.513319
24448		8.923119	1.219805	-3.376215	0.104446	-0.021794	-0.020130	-0.554443	-0.435547	0.659668	-0.237560	-0.789977	0.236475	-0.513401
24449		9.238857	1.090045	-3.300467	-0.005335	-0.009896	0.020157	-0.557617	-0.427490	0.663574	-0.237437	-0.789887	0.236909	-0.513396
24450		8.938502	0.850182	-3.659260	-0.013746	-0.006549	0.090849	-0.556641	-0.428467	0.666748	-0.236946	-0.789543	0.238077	-0.513612
24451		8.852791	0.847066	-4.015858	0.073364	-0.030006	0.105017	-0.557373	-0.437500	0.670410	-0.235434	-0.789565	0.238896	-0.513894
24452		9.004263	0.812006	-3.361762	0.058997	-0.004315	0.082537	-0.554688	-0.429932	0.670166	-0.234292	-0.789443	0.239518	-0.514314
24453		9.287993	0.601507	-3.094445	0.086041	-0.037800	0.125837	-0.555176	-0.430908	0.670898	-0.232499	-0.789484	0.240487	-0.514612
24454		8.907239	0.429673	-3.697813	0.070891	-0.078201	0.167269	-0.557129	-0.419678	0.665527	-0.230471	-0.789610	0.242082	-0.514583
24455		9.317566	0.202016	-3.276247	0.133778	-0.046764	0.257824	-0.558350	-0.417969	0.673584	-0.227328	-0.789431	0.244074	-0.515313
24456		8.747833	-1.394036	-4.735837	0.197951	0.083992	0.317089	-0.569336	-0.412109	0.677734	-0.223565	-0.788398	0.245862	-0.517686
24457		8.109966	-1.320803	-4.776137	0.755419	0.181163	0.366775	-0.568848	-0.386719	0.677979	-0.214270	-0.788085	0.244252	-0.522831
24458		8.268846	0.946762	-2.899918	1.114953	0.120902	0.508573	-0.576416	-0.365234	0.688232	-0.200279	-0.788557	0.241811	-0.528766
24459		8.331178	2.096888	-2.470655	0.541335	-0.073045	0.506236	-0.579346	-0.346680	0.692383	-0.191343	-0.788753	0.243586	-0.530963
24460		9.118876	-0.221232	-4.339420	0.307830	-0.111812	0.518251	-0.581299	-0.334717	0.690918	-0.184498	-0.788553	0.247099	-0.532060
24461		8.966072	-0.069201	-2.644411	0.609261	-0.150456	0.562321	-0.583008	-0.318115	0.695068	-0.174257	-0.789097	0.249114	-0.533762
24462		8.857057	0.717799	-2.272009	0.128256	-0.161859	0.673933	-0.583740	-0.304932	0.706299	-0.167967	-0.788245	0.255444	-0.534046
24463		8.409059	0.223193	-2.260100	-0.479824	-0.200476	0.859920	-0.589355	-0.294189	0.706055	-0.166278	-0.785688	0.267706	-0.532335
24464		8.255501	-1.088333	-3.919487	-0.425770	-0.269087	1.020384	-0.586914	-0.292725	0.700684	-0.162723	-0.783017	0.281267	-0.530371
24465		8.726325	0.456749	-5.141794	0.233096	-0.113671	0.895637	-0.588867	-0.270996	0.704346	-0.154074	-0.780957	0.288886	-0.531895
24466		8.021558	-1.323712	-4.915875	0.321138	-0.117969	0.653445	-0.597168	-0.248047	0.709961	-0.146137	-0.779884	0.293526	-0.533168
24467		8.147904	-3.823353	-4.049085	0.509363	-0.101662	0.799288	-0.598145	-0.229736	0.715820	-0.135427	-0.778420	0.298265	-0.535499
24468		9.089952	0.562663	-3.579183	0.369739	-0.159178	0.783384	-0.598145	-0.209473	0.723633	-0.125951	-0.777059	0.303852	-0.536647
24469		9.664188	0.103160	-2.531507	0.208386	-0.033217	0.609163	-0.596680	-0.193115	0.728760	-0.119674	-0.775189	0.308592	-0.538080
24470		9.632195	0.038085	-4.589672	0.063028	0.045646	0.560213	-0.598389	-0.183838	0.723877	-0.115424	-0.772720	0.313689	-0.539612
24471		9.494900	-3.732608	-4.564938	0.255614	0.027238	0.530517	-0.602051	-0.179199	0.726807	-0.109440	-0.770726	0.317208	-0.541649
24472		8.817892	-1.731585	-3.754892	0.366754	0.087370	0.507151	-0.598389	-0.158691	0.724609	-0.102785	-0.768520	0.319662	-0.544635
24473		8.057162	-1.141817	-2.997792	0.288798	-0.001113	0.510345	-0.610107	-0.150146	0.731934	-0.096489	-0.766762	0.322767	-0.546432
24474		9.345866	-1.544552	-3.604142	0.346091	-0.005032	0.480433	-0.604004	-0.133057	0.723633	-0.089833	-0.765174	0.325181	-0.548357
24475		9.306691	-1.717743	-3.904347	0.358533	0.043130	0.447186	-0.609863	-0.107178	0.732422	-0.083476	-0.763364	0.327118	-0.550728
24476		8.653800	-0.766172	-3.343253	0.108410	0.033379	0.532148	-0.618896	-0.110107	0.734619	-0.078854	-0.760979	0.331561	-0.552051
24477		8.772174	-2.544382	-5.291990	0.053029	-0.021256	0.435551	-0.614502	-0.104736	0.733643	-0.075219	-0.759282	0.335521	-0.552502
24478		9.130905	-3.235593	-5.178887	0.353683	-0.047143	0.383498	-0.614014	-0.087646	0.735840	-0.068982	-0.758237	0.336929	-0.553893
24479		8.505962	-2.073830	-3.344442	0.422639	-0.107485	0.400781	-0.611328	-0.077393	0.731689	-0.061707	-0.757560	0.338056	-0.554990
24480		8.844898	-0.990766	-3.868048	0.190250	0.007318	0.399035	-0.607178	-0.055420	0.730713	-0.057137	-0.755877	0.340679	-0.556168
24481		9.240980	-3.672256	-4.520886	0.126264	0.050716	0.312217	-0.614990	-0.055420	0.732666	-0.053937	-0.754204	0.342868	-0.557412
24482		8.600553	-3.600129	-4.242055	0.414086	0.073463	0.307322	-0.612549	-0.040039	0.738037	-0.048168	-0.752560	0.342990	-0.560082
24483		8.574505	-1.911130	-3.245989	0.323348	-0.092624	0.295535	-0.614258	-0.032959	0.734863	-0.042612	-0.752051	0.343725	-0.560764
24484		9.519364	-3.177659	-4.530368	0.241758	-0.106926	0.180548	-0.616455	-0.017578	0.733154	-0.038577	-0.752071	0.343949	-0.560893
24485		9.443943	-4.129182	-3.964128	0.487170	-0.008199	0.132699	-0.612305	-0.021484	0.736328	-0.032983	-0.751699	0.341931	-0.562977
24486		8.421567	-1.835401	-2.683456	0.379199	-0.038091	0.188199	-0.603271	-0.012451	0.740723	-0.027909	-0.751231	0.341220	-0.564307
24487		9.102761	-2.774459	-3.599015	0.006759	-0.093216	0.181179	-0.606934	-0.001953	0.740479	-0.026143	-0.751045	0.343088	-0.563506
24488		9.511996	-4.315057	-4.242210	0.340015	0.045391	0.072265	-0.604248	0.000977	0.738525	-0.022598	-0.750446	0.341519	-0.565407
24489		8.552612	-3.749767	-3.427582	0.397963	0.032091	0.095002	-0.604980	0.015137	0.732666	-0.018300	-0.749844	0.339759	-0.567418
24490		7.388726	-1.792592	-3.184266	0.296638	-0.092375	0.156885	-0.603760	0.025635	0.735596	-0.013975	-0.749819	0.339308	-0.567844
24491		8.139703	-3.663208	-3.424304	0.030148	-0.130257	0.180916	-0.603760	0.021973	0.733643	-0.011812	-0.749906	0.340970	-0.566781
24492		8.833271	-4.654510	-3.082624	0.086993	-0.047189	0.165394	-0.594727	0.035156	0.740723	-0.009597	-0.749469	0.342074	-0.566735
24493		8.111806	-3.318480	-2.759356	0.281302	0.096930	0.169678	-0.609131	0.037354	0.740723	-0.006123	-0.748015	0.341821	-0.568854
24494		8.606714	-3.556921	-3.436963	0.262285	0.144278	0.143322	-0.606689	0.042480	0.736084	-0.003234	-0.746314	0.341442	-0.571334
24495		8.866364	-4.402529	-3.423400	0.397759	0.134482	0.167786	-0.609619	0.057129	0.733887	0.001133	-0.744568	0.340320	-0.574282
24496		8.370448	-2.809913	-2.943815	0.232808	0.064723	0.203393	-0.610840	0.057617	0.732178	0.004527	-0.743155	0.340699	-0.575869
24497		8.726441	-3.833548	-3.839421	-0.110999	-0.003559	0.208914	-0.613770	0.067627	0.733398	0.005042	-0.742219	0.343601	-0.575347
24498		8.868894	-4.437630	-3.719236	0.099344	0.071550	0.156177	-0.598877	0.069092	0.727783	0.006824	-0.740951	0.344489	-0.576431
24499		8.708147	-3.404404	-3.057435	0.177915	0.080989	0.146226	-0.606445	0.071045	0.725098	0.009221	-0.739650	0.344733	-0.577921
24500		9.232211	-3.947053	-3.260488	0.151630	0.130867	0.122120	-0.604980	0.076416	0.726807	0.010974	-0.738084	0.344941	-0.579764
