// Start Time: Unknown
// Update Rate: 40.0Hz
// Filter Profile: human (46.1)
// Firmware Version: 4.6.0
PacketCounter	SampleTimeFine	Acc_X	Acc_Y	Acc_Z	Gyr_X	Gyr_Y	Gyr_Z	Mag_X	Mag_Y	Mag_Z	Quat_q0	Quat_q1	Quat_q2	Quat_q3
23593		9.702089	1.067679	-0.828802	0.005920	-0.001574	-0.005281	-0.678223	-0.366211	0.503906	-0.235167	-0.714329	0.178952	-0.634355
23594		9.692813	1.114769	-0.802662	0.011526	0.000723	-0.008662	-0.682129	-0.364990	0.503906	-0.235134	-0.714377	0.178781	-0.634362
23595		9.688149	1.154504	-0.778743	0.008712	-0.001580	-0.012918	-0.674072	-0.361816	0.490234	-0.235153	-0.714442	0.178602	-0.634332
23596		9.707512	1.144038	-0.819102	0.009076	-0.005811	-0.009825	-0.676270	-0.367432	0.507080	-0.235141	-0.714535	0.178457	-0.634272
23597		9.691075	1.106945	-0.837227	0.006235	-0.002888	-0.010920	-0.677002	-0.366455	0.506836	-0.235172	-0.714600	0.178311	-0.634228
23598		9.708605	1.169387	-0.810117	0.003121	-0.000633	-0.004102	-0.675537	-0.370117	0.508789	-0.235185	-0.714624	0.178243	-0.634216
23599		9.711433	1.141089	-0.823589	0.000677	-0.002987	-0.006294	-0.677246	-0.364746	0.505127	-0.235241	-0.714664	0.178173	-0.634170
23600		9.678844	1.121103	-0.855066	0.003189	-0.001915	-0.011118	-0.667725	-0.370361	0.503174	-0.235322	-0.714715	0.178030	-0.634123
23601		9.664828	1.121078	-0.829507	0.003594	0.001169	-0.014270	-0.679932	-0.368164	0.506592	-0.235434	-0.714753	0.177844	-0.634090
23602		9.707993	1.113241	-0.867002	0.007735	0.000172	-0.015697	-0.676514	-0.367188	0.504639	-0.235524	-0.714815	0.177610	-0.634052
23603		9.691575	1.120346	-0.871740	0.013462	-0.000914	-0.015999	-0.672852	-0.368164	0.504150	-0.235560	-0.714909	0.177331	-0.634011
23604		9.702708	1.157577	-0.843198	0.013427	0.003502	-0.014198	-0.674561	-0.368164	0.503418	-0.235592	-0.714970	0.177056	-0.634007
23605		9.719427	1.206131	-0.846735	0.005509	0.003820	-0.011995	-0.681152	-0.370605	0.509033	-0.235686	-0.715002	0.176854	-0.633993
23606		9.708245	1.147489	-0.855425	-0.003106	0.001439	-0.013001	-0.673584	-0.365479	0.501465	-0.235881	-0.715038	0.176704	-0.633922
23607		9.657500	1.120602	-0.848198	-0.000312	0.002241	-0.019273	-0.675537	-0.378418	0.504639	-0.236087	-0.715084	0.176476	-0.633856
23608		9.637412	1.142741	-0.870170	0.012975	0.009136	-0.018083	-0.677979	-0.369385	0.503174	-0.236206	-0.715125	0.176124	-0.633864
23609		9.696169	1.183256	-0.837225	0.007260	0.000928	-0.009262	-0.668457	-0.370361	0.497070	-0.236267	-0.715190	0.175930	-0.633821
23610		9.742218	1.153389	-0.835106	-0.003581	-0.001985	-0.005548	-0.670898	-0.363281	0.501465	-0.236381	-0.715232	0.175858	-0.633753
23611		9.721685	1.152393	-0.827406	0.001374	0.003886	-0.004109	-0.670410	-0.369385	0.501465	-0.236431	-0.715237	0.175758	-0.633756
23612		9.668596	1.138229	-0.796594	0.000314	0.008664	-0.004983	-0.678711	-0.370117	0.511230	-0.236531	-0.715207	0.175635	-0.633786
23613		9.645518	1.157727	-0.827155	0.006042	0.006774	-0.006639	-0.676514	-0.361084	0.500000	-0.236599	-0.715224	0.175466	-0.633788
23614		9.662458	1.162015	-0.842577	0.009495	0.004708	-0.008556	-0.668945	-0.365234	0.498047	-0.236601	-0.715230	0.175266	-0.633836
23615		9.677029	1.197640	-0.804289	0.009861	0.002222	-0.010560	-0.677246	-0.374756	0.506592	-0.236620	-0.715273	0.175044	-0.633842
23616		9.707274	1.200956	-0.784294	0.004014	-0.000867	-0.009917	-0.671631	-0.358887	0.503418	-0.236746	-0.715343	0.174869	-0.633764
23617		9.697406	1.147556	-0.814128	-0.005253	0.003675	-0.008503	-0.670898	-0.380371	0.505615	-0.236846	-0.715323	0.174790	-0.633770
23618		9.697304	1.149473	-0.812630	-0.001153	0.007916	-0.006774	-0.676514	-0.373779	0.502686	-0.237048	-0.715308	0.174648	-0.633752
23619		9.687503	1.138255	-0.828859	0.002630	0.005234	-0.005159	-0.676025	-0.366699	0.502930	-0.237156	-0.715284	0.174517	-0.633774
23620		9.682307	1.161385	-0.835599	0.010719	0.002935	-0.004391	-0.681396	-0.365234	0.499756	-0.237113	-0.715296	0.174356	-0.633821
23621		9.688063	1.184535	-0.774005	0.007065	0.001423	-0.004288	-0.674561	-0.371582	0.501953	-0.237095	-0.715277	0.174235	-0.633882
23622		9.696873	1.196774	-0.797050	-0.002242	0.003760	-0.004119	-0.671143	-0.367676	0.495605	-0.237210	-0.715244	0.174172	-0.633895
23623		9.701446	1.160639	-0.820166	-0.001391	0.004579	-0.005762	-0.668457	-0.374512	0.505859	-0.237301	-0.715185	0.174078	-0.633952
23624		9.701356	1.162042	-0.819244	-0.001713	0.002647	-0.005551	-0.677490	-0.371582	0.500488	-0.237432	-0.715214	0.173999	-0.633892
23625		9.651892	1.181150	-0.820834	-0.003860	-0.000909	-0.002742	-0.675781	-0.370850	0.494385	-0.237541	-0.715185	0.173986	-0.633887
23626		9.710043	1.175160	-0.842560	-0.001952	0.000127	-0.003184	-0.676025	-0.377686	0.498535	-0.237645	-0.715124	0.173948	-0.633928
23627		9.736833	1.190808	-0.840919	-0.006382	0.002198	0.001042	-0.670410	-0.367676	0.504395	-0.237834	-0.715051	0.173987	-0.633928
23628		9.654129	1.175953	-0.789550	-0.012517	0.001926	-0.000608	-0.681396	-0.375244	0.494873	-0.237921	-0.715040	0.174051	-0.633890
23629		9.619669	1.113384	-0.800011	-0.019217	-0.001064	-0.004774	-0.674805	-0.362793	0.497070	-0.238246	-0.714910	0.174160	-0.633885
23630		9.692693	1.146433	-0.845678	-0.002609	0.003806	-0.006176	-0.676514	-0.365723	0.499756	-0.238224	-0.714853	0.174090	-0.633978
23631		9.717284	1.150675	-0.801615	-0.000007	0.003365	-0.002383	-0.678711	-0.376709	0.503174	-0.238179	-0.714810	0.174047	-0.634055
23632		9.734847	1.168531	-0.786273	-0.002920	-0.002416	0.002866	-0.675537	-0.366699	0.507812	-0.238268	-0.714799	0.174116	-0.634015
23633		9.710109	1.159789	-0.766769	-0.003175	0.004232	0.004532	-0.677979	-0.372070	0.489258	-0.238161	-0.714795	0.174153	-0.634048
23634		9.703853	1.116456	-0.796103	0.003726	0.007541	0.005094	-0.680908	-0.365967	0.494385	-0.238206	-0.714599	0.174174	-0.634247
23635		9.652656	1.168627	-0.804347	0.011892	0.008021	0.005635	-0.677734	-0.372314	0.507568	-0.238020	-0.714456	0.174120	-0.634493
23636		9.676611	1.169440	-0.802013	0.016454	0.000130	0.000414	-0.674072	-0.369141	0.496338	-0.237854	-0.714542	0.173990	-0.634494
23637		9.689697	1.181645	-0.775211	0.017913	0.002612	-0.002886	-0.676025	-0.360840	0.506348	-0.237737	-0.714541	0.173820	-0.634586
23638		9.697628	1.216176	-0.755686	0.010764	0.001775	-0.000757	-0.678955	-0.382568	0.492432	-0.237418	-0.714615	0.173677	-0.634661
23639		9.710836	1.156432	-0.762610	0.001334	0.004124	-0.001280	-0.681641	-0.370850	0.499512	-0.237767	-0.714448	0.173719	-0.634706
23640		9.685147	1.147581	-0.784039	0.005480	0.003135	-0.002696	-0.677734	-0.369873	0.497803	-0.237770	-0.714374	0.173663	-0.634804
23641		9.680702	1.142217	-0.771748	-0.001303	0.001441	0.000135	-0.679688	-0.364746	0.509521	-0.237804	-0.714302	0.173682	-0.634867
23642		9.683621	1.126327	-0.794240	-0.002476	-0.001310	0.001987	-0.674316	-0.374023	0.503418	-0.237609	-0.714363	0.173686	-0.634871
23643		9.678501	1.147948	-0.802115	-0.005725	-0.002292	0.002678	-0.676758	-0.372314	0.500732	-0.237704	-0.714383	0.173762	-0.634792
23644		9.718986	1.118247	-0.776762	-0.008612	-0.000769	0.001689	-0.674805	-0.357910	0.507324	-0.237816	-0.714338	0.173860	-0.634774
23645		9.701785	1.086755	-0.781962	-0.003782	0.001866	-0.002972	-0.677979	-0.367432	0.500488	-0.237536	-0.714410	0.173791	-0.634816
23646		9.665623	1.093274	-0.840839	0.001297	0.001923	-0.002520	-0.679688	-0.365967	0.507324	-0.237488	-0.714374	0.173762	-0.634882
23647		9.669332	1.079399	-0.821455	-0.000045	0.002790	-0.000915	-0.674072	-0.369385	0.498047	-0.237327	-0.714396	0.173725	-0.634929
23648		9.721197	1.131338	-0.817004	0.002884	0.000104	0.003699	-0.674072	-0.361572	0.511963	-0.237292	-0.714369	0.173754	-0.634964
23649		9.766922	1.127206	-0.833590	-0.000045	0.002790	-0.000915	-0.677734	-0.371582	0.498047	-0.236980	-0.714507	0.173652	-0.634952
23650		9.652488	1.105929	-0.781518	0.002189	0.003315	-0.005631	-0.669922	-0.369873	0.498047	-0.237085	-0.714437	0.173620	-0.635002
23651		9.660779	1.085607	-0.764421	-0.006904	-0.000652	-0.012110	-0.673096	-0.370361	0.499512	-0.237288	-0.714457	0.173573	-0.634915
23652		9.680128	1.089113	-0.812853	0.004262	0.003283	-0.009563	-0.678711	-0.364502	0.496094	-0.237355	-0.714463	0.173456	-0.634916
23653		9.719372	1.103146	-0.815930	0.011252	0.001828	-0.005811	-0.677490	-0.365723	0.500244	-0.237220	-0.714404	0.173364	-0.635058
23654		9.757551	1.110422	-0.798604	0.004310	-0.001242	-0.003553	-0.674316	-0.363525	0.502197	-0.237098	-0.714411	0.173320	-0.635108
23655		9.694000	1.140000	-0.784710	0.007718	0.001114	-0.003670	-0.679199	-0.373047	0.492188	-0.236879	-0.714469	0.173204	-0.635156
23656		9.680213	1.137725	-0.758765	0.008568	0.002747	-0.003956	-0.671631	-0.371094	0.503418	-0.237038	-0.714315	0.173218	-0.635265
23657		9.664791	1.132792	-0.815744	0.009062	0.000246	-0.005272	-0.676514	-0.362549	0.503174	-0.236996	-0.714419	0.173077	-0.635203
23658		9.673521	1.145042	-0.840009	0.010695	-0.003439	-0.004585	-0.676270	-0.371826	0.496582	-0.236705	-0.714518	0.172940	-0.635237
23659		9.691999	1.151778	-0.774411	0.006543	0.000094	-0.006910	-0.678467	-0.364502	0.504395	-0.236820	-0.714474	0.172895	-0.635256
23660		9.704371	1.150502	-0.779722	0.008095	-0.003004	-0.008378	-0.670898	-0.368652	0.503662	-0.236615	-0.714564	0.172747	-0.635271
23661		9.719647	1.133447	-0.807896	0.002163	-0.003068	-0.005837	-0.682861	-0.364258	0.503906	-0.236582	-0.714682	0.172654	-0.635176
23662		9.693130	1.105036	-0.799804	0.001502	0.000506	-0.001031	-0.681152	-0.364502	0.504883	-0.236385	-0.714653	0.172647	-0.635284
23663		9.684965	1.113412	-0.807065	0.007560	-0.001175	0.002209	-0.679932	-0.363525	0.497070	-0.236106	-0.714678	0.172609	-0.635370
23664		9.699445	1.088005	-0.814020	0.006182	-0.002510	0.002573	-0.677734	-0.365723	0.504883	-0.235955	-0.714609	0.172669	-0.635488
23665		9.687924	1.125933	-0.809237	0.007284	-0.004166	-0.001756	-0.674316	-0.366455	0.509277	-0.235753	-0.714698	0.172589	-0.635485
23666		9.714907	1.098323	-0.821234	0.003013	-0.002350	0.000325	-0.674805	-0.364990	0.503906	-0.235533	-0.714846	0.172492	-0.635426
23667		9.704890	1.128326	-0.827265	0.009063	-0.000669	0.001179	-0.672607	-0.369629	0.496094	-0.235323	-0.714911	0.172418	-0.635451
23668		9.703364	1.136323	-0.816634	0.004802	-0.002932	-0.003509	-0.679688	-0.365967	0.496826	-0.235444	-0.714891	0.172434	-0.635424
23669		9.703176	1.137569	-0.817137	0.001180	-0.000515	-0.007267	-0.678223	-0.368408	0.499268	-0.235514	-0.714799	0.172459	-0.635495
23670		9.665111	1.148503	-0.802561	-0.002852	0.003003	-0.008909	-0.668457	-0.363525	0.504883	-0.235653	-0.714720	0.172455	-0.635533
23671		9.733973	1.162617	-0.826818	-0.005203	0.000864	-0.007589	-0.678955	-0.370361	0.505615	-0.235603	-0.714830	0.172360	-0.635453
23672		9.694351	1.122684	-0.845230	-0.013645	-0.002714	-0.004300	-0.678955	-0.364502	0.502441	-0.235715	-0.714838	0.172430	-0.635384
23673		9.649583	1.057146	-0.821693	-0.017823	-0.004748	-0.005476	-0.679443	-0.366211	0.496338	-0.235785	-0.714815	0.172557	-0.635350
23674		9.672799	1.074642	-0.829434	-0.006350	0.003679	-0.006881	-0.674072	-0.362061	0.506592	-0.235921	-0.714669	0.172634	-0.635442
23675		9.697970	1.069691	-0.838513	0.007517	-0.000013	-0.001417	-0.678711	-0.361084	0.497070	-0.235611	-0.714789	0.172498	-0.635460
23676		9.735852	1.089613	-0.831503	0.010292	-0.004063	0.002627	-0.677002	-0.365479	0.506592	-0.235385	-0.714758	0.172535	-0.635568
23677		9.732536	1.118518	-0.819533	0.010404	-0.000717	0.000928	-0.673828	-0.361084	0.499512	-0.235116	-0.714852	0.172421	-0.635593
23678		9.675901	1.175020	-0.765005	0.009292	0.004300	0.002870	-0.680664	-0.364990	0.507324	-0.234905	-0.714827	0.172394	-0.635706
23679		9.660684	1.168133	-0.821835	0.005284	-0.000536	0.003297	-0.675781	-0.368652	0.500977	-0.234648	-0.714875	0.172349	-0.635760
23680		9.670335	1.121381	-0.848896	0.006476	-0.005322	0.004865	-0.672119	-0.362793	0.500977	-0.234580	-0.714907	0.172391	-0.635737
23681		9.715440	1.096517	-0.835345	0.010224	0.005348	0.004737	-0.684082	-0.365967	0.498535	-0.234390	-0.714903	0.172348	-0.635823
23682		9.678185	1.196575	-0.816707	0.009578	0.004027	0.001422	-0.675293	-0.363770	0.497559	-0.234323	-0.714772	0.172380	-0.635987
23683		9.682993	1.218035	-0.796942	-0.010875	-0.005036	-0.005349	-0.680908	-0.369629	0.498047	-0.234467	-0.714737	0.172504	-0.635939
23684		9.715642	1.114112	-0.803455	-0.020714	-0.003136	-0.014269	-0.674316	-0.361328	0.501465	-0.234875	-0.714631	0.172647	-0.635869
23685		9.708191	1.055452	-0.803401	-0.014015	-0.000949	-0.011450	-0.672363	-0.362793	0.498779	-0.234954	-0.714642	0.172653	-0.635825
23686		9.714529	1.075466	-0.856814	-0.008293	0.001250	-0.006325	-0.685059	-0.372803	0.499023	-0.235028	-0.714618	0.172686	-0.635816
23687		9.697695	1.060337	-0.830853	-0.002056	-0.004859	-0.004189	-0.671387	-0.370605	0.501709	-0.235195	-0.714540	0.172780	-0.635817
23688		9.683822	1.058457	-0.805803	0.002887	-0.000604	-0.005455	-0.685303	-0.366699	0.499756	-0.235278	-0.714601	0.172723	-0.635733
23689		9.712354	1.052991	-0.805983	0.006938	0.003076	-0.002258	-0.679688	-0.370850	0.500244	-0.235202	-0.714502	0.172707	-0.635877
23690		9.674701	1.037806	-0.875317	0.012781	0.005360	-0.004246	-0.674072	-0.366211	0.498291	-0.235199	-0.714455	0.172609	-0.635958
23691		9.680978	1.110182	-0.822571	0.021375	-0.000240	-0.006130	-0.669678	-0.360840	0.497559	-0.235068	-0.714511	0.172430	-0.635992
23692		9.675618	1.132935	-0.830681	0.019746	0.000899	-0.003078	-0.670410	-0.364014	0.496582	-0.234837	-0.714580	0.172261	-0.636045
23693		9.736804	1.169228	-0.831506	0.012157	-0.001865	-0.001430	-0.678711	-0.364014	0.503906	-0.234755	-0.714617	0.172209	-0.636048
23694		9.697439	1.185961	-0.806265	-0.000654	0.001128	0.000742	-0.678711	-0.364746	0.502930	-0.234635	-0.714616	0.172211	-0.636093
23695		9.687445	1.110827	-0.805437	-0.008528	-0.001273	-0.003961	-0.681885	-0.364502	0.499756	-0.234654	-0.714607	0.172255	-0.636084
23696		9.664652	1.115845	-0.827808	-0.003221	0.002943	-0.003168	-0.680908	-0.367188	0.502197	-0.234661	-0.714515	0.172293	-0.636175
23697		9.680619	1.083858	-0.844785	0.002067	0.001596	-0.001223	-0.678467	-0.364014	0.499268	-0.234625	-0.714482	0.172290	-0.636225
23698		9.712850	1.140119	-0.854370	0.007762	-0.000037	-0.000040	-0.678467	-0.361572	0.499023	-0.234511	-0.714465	0.172269	-0.636292
23699		9.713262	1.155064	-0.823293	0.002005	-0.003721	0.002750	-0.666992	-0.361572	0.501709	-0.234371	-0.714457	0.172321	-0.636339
23700		9.697074	1.094862	-0.809449	0.000276	0.002179	0.002608	-0.682129	-0.360840	0.498535	-0.234265	-0.714517	0.172310	-0.636313
23701		9.665962	1.120293	-0.848019	0.001522	0.005978	0.005614	-0.684326	-0.362549	0.499756	-0.234118	-0.714390	0.172379	-0.636491
23702		9.683314	1.121131	-0.863599	-0.001310	0.002166	0.009281	-0.676270	-0.366211	0.501709	-0.233976	-0.714277	0.172512	-0.636634
23703		9.690662	1.104494	-0.835678	-0.000355	-0.003410	0.008127	-0.681396	-0.367920	0.503418	-0.233905	-0.714295	0.172616	-0.636612
23704		9.710474	1.115207	-0.791199	-0.003971	-0.003449	0.000311	-0.673340	-0.363037	0.499756	-0.233923	-0.714300	0.172681	-0.636582
23705		9.702584	1.110972	-0.788294	-0.010618	0.003852	-0.007515	-0.669922	-0.366211	0.503906	-0.234060	-0.714266	0.172709	-0.636562
23706		9.700165	1.089871	-0.839341	-0.010288	0.002425	-0.005339	-0.673584	-0.358643	0.503662	-0.234183	-0.714311	0.172716	-0.636465
23707		9.693091	1.028638	-0.838868	-0.001338	-0.000765	-0.001104	-0.671875	-0.364502	0.503174	-0.234008	-0.714382	0.172676	-0.636461
23708		9.689759	1.058084	-0.826037	0.005358	0.001427	0.001713	-0.675049	-0.365479	0.506592	-0.233896	-0.714443	0.172628	-0.636446
23709		9.709551	1.069436	-0.780791	0.002522	-0.000661	0.000286	-0.678711	-0.367188	0.505127	-0.233775	-0.714531	0.172570	-0.636407
23710		9.715022	1.081468	-0.813415	0.003486	0.002685	-0.004408	-0.675049	-0.361084	0.501221	-0.233738	-0.714557	0.172483	-0.636415
23711		9.704180	1.063913	-0.809748	0.010882	0.002686	-0.006506	-0.686035	-0.360596	0.502686	-0.233610	-0.714594	0.172344	-0.636459
23712		9.686223	1.089760	-0.812654	0.005490	-0.001036	-0.001657	-0.676758	-0.360596	0.498535	-0.233420	-0.714575	0.172312	-0.636558
23713		9.703599	1.078942	-0.820015	-0.000436	-0.002736	-0.001826	-0.675049	-0.362061	0.493652	-0.233385	-0.714567	0.172358	-0.636567
23714		9.708387	1.070942	-0.822389	-0.000529	0.000298	0.000076	-0.680420	-0.365234	0.506836	-0.233456	-0.714482	0.172475	-0.636605
23715		9.713871	1.112133	-0.832937	0.002796	0.002425	-0.003549	-0.676758	-0.358643	0.500488	-0.233359	-0.714516	0.172383	-0.636627
23716		9.696286	1.124340	-0.826150	-0.003198	-0.002867	-0.004837	-0.673096	-0.367920	0.505859	-0.233304	-0.714536	0.172394	-0.636622
23717		9.676418	1.067067	-0.821920	-0.010506	-0.004180	-0.009732	-0.681396	-0.361816	0.500000	-0.233450	-0.714631	0.172373	-0.636467
23718		9.685808	1.053112	-0.826314	-0.013773	-0.000176	-0.008725	-0.672363	-0.366943	0.500488	-0.233576	-0.714564	0.172452	-0.636475
23719		9.674526	1.021036	-0.853999	0.000914	0.005318	-0.006963	-0.670654	-0.361816	0.498047	-0.233678	-0.714554	0.172398	-0.636464
23720		9.710783	1.050705	-0.834659	0.010247	-0.001172	-0.006080	-0.680908	-0.365723	0.503662	-0.233621	-0.714610	0.172311	-0.636445
23721		9.722351	1.105830	-0.837647	0.006435	-0.003250	-0.005199	-0.679688	-0.365967	0.497314	-0.233540	-0.714661	0.172232	-0.636439
23722		9.724928	1.057594	-0.820256	0.004105	0.000171	-0.005032	-0.676270	-0.368408	0.510742	-0.233593	-0.714612	0.172236	-0.636473
23723		9.676472	1.082579	-0.842341	0.006995	0.008394	-0.006226	-0.675293	-0.366943	0.504395	-0.233504	-0.714678	0.172037	-0.636486
23724		9.657513	1.073695	-0.844917	0.019241	0.005137	-0.006847	-0.676270	-0.362793	0.504150	-0.233371	-0.714744	0.171806	-0.636523
23725		9.694324	1.123456	-0.856570	0.019997	0.000156	-0.010836	-0.669678	-0.367676	0.504150	-0.233188	-0.714854	0.171548	-0.636536
23726		9.707322	1.153943	-0.798825	0.012740	-0.003136	-0.013458	-0.677002	-0.361084	0.503906	-0.233192	-0.715007	0.171333	-0.636420
23727		9.711806	1.148501	-0.801401	0.004226	0.001057	-0.010783	-0.680420	-0.363281	0.500488	-0.233133	-0.715050	0.171207	-0.636428
23728		9.711008	1.102010	-0.792048	-0.005782	0.003106	-0.009781	-0.674561	-0.358887	0.502197	-0.233233	-0.714985	0.171205	-0.636466
23729		9.700199	1.056413	-0.809854	-0.005130	0.002796	-0.009170	-0.677246	-0.359863	0.499268	-0.233243	-0.714982	0.171172	-0.636474
23730		9.696185	1.072755	-0.828446	0.000130	-0.000747	-0.008455	-0.676025	-0.356689	0.506348	-0.233239	-0.714973	0.171150	-0.636491
23731		9.691490	1.069528	-0.816797	-0.000356	-0.000699	-0.011197	-0.668213	-0.368652	0.500000	-0.233112	-0.715054	0.171024	-0.636481
23732		9.709664	1.096026	-0.822789	-0.001863	-0.000389	-0.008817	-0.675049	-0.362793	0.496582	-0.233291	-0.715090	0.171006	-0.636380
23733		9.709975	1.055176	-0.835053	0.000820	-0.000488	-0.009311	-0.676758	-0.365234	0.500977	-0.233380	-0.715062	0.171003	-0.636378
23734		9.689485	1.025495	-0.849463	0.007672	0.002277	-0.007275	-0.670654	-0.364746	0.508301	-0.233364	-0.715064	0.170911	-0.636407
23735		9.693224	1.075293	-0.848795	0.010554	0.002404	-0.003579	-0.677979	-0.357666	0.508545	-0.233204	-0.715177	0.170748	-0.636383
23736		9.662692	1.137426	-0.887267	0.009340	0.001623	-0.003996	-0.671875	-0.367432	0.504639	-0.232921	-0.715256	0.170590	-0.636439
23737		9.723210	1.125631	-0.878897	0.012118	-0.000694	-0.005035	-0.680664	-0.362549	0.497803	-0.232847	-0.715350	0.170451	-0.636398
23738		9.719940	1.171579	-0.834470	0.011277	0.004050	-0.004552	-0.673340	-0.353027	0.499756	-0.232787	-0.715283	0.170397	-0.636511
23739		9.628562	1.150816	-0.821962	0.005066	0.003508	-0.009714	-0.675049	-0.361084	0.510498	-0.232677	-0.715283	0.170304	-0.636575
23740		9.652235	1.125636	-0.842076	-0.012160	-0.004462	-0.006567	-0.670898	-0.362793	0.494629	-0.232640	-0.715386	0.170288	-0.636477
23741		9.715340	1.112080	-0.865672	-0.008509	0.002546	-0.000032	-0.666260	-0.367676	0.510742	-0.232813	-0.715283	0.170470	-0.636481
23742		9.750326	1.056282	-0.838054	-0.003590	0.002067	0.001211	-0.681885	-0.371582	0.501465	-0.232773	-0.715388	0.170433	-0.636388
23743		9.715087	1.062430	-0.855565	0.004128	0.002298	0.003996	-0.672119	-0.364502	0.505127	-0.232776	-0.715323	0.170477	-0.636448
23744		9.683100	1.097046	-0.842115	0.006403	0.002486	0.004264	-0.677734	-0.361084	0.503418	-0.232641	-0.715358	0.170457	-0.636463
23745		9.688577	1.074436	-0.833589	0.008173	0.006073	-0.000597	-0.678467	-0.364014	0.502686	-0.232498	-0.715334	0.170392	-0.636560
23746		9.657600	1.116065	-0.840364	0.014754	0.006658	-0.001162	-0.682129	-0.363281	0.507812	-0.232352	-0.715313	0.170277	-0.636668
23747		9.707567	1.085192	-0.827923	0.014587	0.001436	-0.005658	-0.684326	-0.358398	0.499268	-0.232144	-0.715374	0.170086	-0.636726
23748		9.699971	1.096290	-0.793926	0.021909	0.000313	-0.004805	-0.678467	-0.358643	0.504395	-0.231912	-0.715369	0.169944	-0.636854
23749		9.724996	1.120452	-0.781776	0.012147	0.001510	-0.003793	-0.675781	-0.361816	0.500977	-0.231721	-0.715404	0.169825	-0.636916
23750		9.715214	1.137593	-0.776886	-0.001417	0.006186	-0.003068	-0.677246	-0.357422	0.502930	-0.231759	-0.715339	0.169844	-0.636969
23751		9.694694	1.091041	-0.821991	-0.002485	0.001221	-0.001759	-0.683350	-0.364502	0.501465	-0.231694	-0.715324	0.169874	-0.637003
23752		9.667122	1.040715	-0.823836	0.001099	-0.000027	-0.001616	-0.677979	-0.368408	0.508545	-0.231685	-0.715280	0.169901	-0.637048
23753		9.702898	1.082964	-0.814624	0.005233	0.001455	0.001032	-0.667725	-0.358398	0.503418	-0.231594	-0.715325	0.169834	-0.637049
23754		9.729626	1.098046	-0.813148	0.002140	0.001839	0.002282	-0.684570	-0.364258	0.498535	-0.231502	-0.715361	0.169855	-0.637036
23755		9.711831	1.093808	-0.837594	0.000238	0.001689	-0.003717	-0.672363	-0.369629	0.502930	-0.231557	-0.715272	0.169895	-0.637105
23756		9.682916	1.130049	-0.815448	-0.004945	-0.001730	-0.002478	-0.675781	-0.358643	0.501953	-0.231694	-0.715294	0.169950	-0.637016
23757		9.679691	1.039116	-0.827825	-0.014701	-0.001354	-0.002819	-0.676025	-0.359863	0.498291	-0.231779	-0.715264	0.170086	-0.636982
23758		9.658316	1.065128	-0.839339	-0.007098	0.004450	-0.001871	-0.677246	-0.358643	0.501953	-0.231859	-0.715174	0.170188	-0.637027
23759		9.780604	1.109483	-0.860902	-0.002037	0.001502	-0.003986	-0.676514	-0.365479	0.496582	-0.231834	-0.715157	0.170199	-0.637052
23760		9.707671	1.112268	-0.854831	-0.013480	-0.001393	-0.003748	-0.682129	-0.367432	0.501465	-0.232065	-0.715080	0.170373	-0.637008
23761		9.645872	1.057548	-0.823655	-0.016245	-0.000718	-0.005408	-0.671875	-0.366211	0.504150	-0.232270	-0.715013	0.170502	-0.636975
23762		9.656630	0.986083	-0.829656	-0.023567	0.000399	-0.006256	-0.672852	-0.359375	0.503906	-0.232540	-0.714990	0.170660	-0.636859
23763		9.679963	1.037297	-0.876957	0.001872	0.006930	-0.006559	-0.676514	-0.360840	0.498779	-0.232499	-0.714989	0.170582	-0.636896
23764		9.749480	1.019548	-0.818974	0.008334	0.001152	-0.008003	-0.668457	-0.367188	0.497803	-0.232462	-0.714995	0.170501	-0.636925
23765		9.745524	1.034904	-0.837967	0.013737	0.000632	-0.004016	-0.674561	-0.370361	0.503662	-0.232477	-0.715033	0.170446	-0.636891
23766		9.683588	1.071115	-0.803246	0.014749	0.006669	-0.001154	-0.677490	-0.357666	0.504150	-0.232427	-0.715039	0.170344	-0.636930
23767		9.691623	1.109698	-0.844983	0.010998	0.008178	0.000836	-0.680908	-0.363281	0.504150	-0.232208	-0.715020	0.170251	-0.637056
23768		9.660642	1.088782	-0.833207	0.002953	0.002981	-0.004322	-0.684814	-0.361816	0.500000	-0.232156	-0.715010	0.170199	-0.637100
23769		9.692969	1.070202	-0.814065	0.006912	0.001774	-0.009905	-0.675293	-0.364014	0.501465	-0.232118	-0.714984	0.170093	-0.637171
23770		9.704606	1.113169	-0.806552	0.013829	0.001835	-0.014722	-0.677490	-0.368408	0.505371	-0.232114	-0.715040	0.169895	-0.637163
23771		9.692247	1.076388	-0.814504	0.008225	-0.004331	-0.015303	-0.682373	-0.362793	0.503174	-0.232158	-0.715147	0.169732	-0.637070
23772		9.718407	1.061371	-0.773250	-0.004787	0.000529	-0.008344	-0.677490	-0.368652	0.492676	-0.232200	-0.715127	0.169719	-0.637081
23773		9.716293	1.039649	-0.824771	-0.002576	0.002615	-0.002562	-0.675049	-0.355225	0.498047	-0.232380	-0.715017	0.169827	-0.637109
23774		9.693629	1.043701	-0.846982	0.001243	0.002170	0.000301	-0.678223	-0.356201	0.502930	-0.232279	-0.714982	0.169863	-0.637176
23775		9.700493	1.059114	-0.796812	0.001959	-0.000032	-0.004599	-0.672852	-0.358643	0.503418	-0.232159	-0.715003	0.169819	-0.637208
23776		9.677113	1.078545	-0.829361	0.004116	0.001059	-0.011445	-0.675537	-0.359619	0.498047	-0.232133	-0.715058	0.169708	-0.637185
23777		9.706264	1.110198	-0.828931	0.005920	-0.001238	-0.010177	-0.679443	-0.359375	0.502441	-0.232132	-0.715079	0.169641	-0.637180
23778		9.711654	1.061602	-0.843151	-0.002706	0.000483	-0.012255	-0.672607	-0.365479	0.503174	-0.232160	-0.715084	0.169576	-0.637181
23779		9.685480	1.084459	-0.843272	-0.000635	0.001261	-0.014819	-0.681641	-0.360840	0.501221	-0.232297	-0.715123	0.169496	-0.637110
23780		9.673711	1.112192	-0.827651	0.001760	0.001443	-0.013862	-0.681885	-0.369385	0.496826	-0.232317	-0.715117	0.169388	-0.637138
23781		9.753551	1.054636	-0.858623	-0.000871	-0.000428	-0.011104	-0.674805	-0.361328	0.500488	-0.232488	-0.715070	0.169389	-0.637127
23782		9.739788	1.103011	-0.841662	-0.006379	0.001409	-0.008117	-0.677490	-0.364990	0.503906	-0.232576	-0.715051	0.169416	-0.637110
23783		9.659983	1.074124	-0.813230	-0.009126	0.000436	-0.012473	-0.680176	-0.367188	0.494629	-0.232720	-0.715054	0.169410	-0.637055
23784		9.653817	1.034939	-0.843526	-0.010487	-0.001726	-0.013456	-0.678955	-0.363525	0.501709	-0.232980	-0.714990	0.169479	-0.637014
23785		9.684473	1.059693	-0.853412	0.001063	0.006744	-0.014157	-0.679443	-0.371826	0.496582	-0.233043	-0.714957	0.169362	-0.637059
23786		9.736651	1.059135	-0.850709	0.002031	0.002813	-0.012603	-0.673584	-0.368896	0.500977	-0.233230	-0.714907	0.169328	-0.637055
23787		9.744204	1.083086	-0.821689	0.005852	-0.001474	-0.013665	-0.671875	-0.358398	0.505615	-0.233332	-0.714962	0.169244	-0.636979
23788		9.696535	1.097117	-0.793555	0.009411	0.004488	-0.011981	-0.684570	-0.364258	0.499268	-0.233223	-0.715028	0.169059	-0.636994
23789		9.661439	1.092776	-0.801181	0.008490	0.003426	-0.013840	-0.674072	-0.359619	0.511230	-0.233202	-0.715004	0.168895	-0.637072
23790		9.687593	1.095902	-0.830688	0.005132	0.005463	-0.011269	-0.682617	-0.358887	0.503906	-0.233087	-0.715078	0.168713	-0.637079
23791		9.692956	1.125385	-0.831122	0.008003	0.002580	-0.010150	-0.674805	-0.363525	0.501465	-0.232943	-0.715097	0.168549	-0.637154
23792		9.703234	1.162825	-0.802709	0.009018	0.000100	-0.016483	-0.684326	-0.362305	0.505371	-0.232959	-0.715157	0.168382	-0.637125
23793		9.692197	1.148019	-0.800003	0.003366	-0.003300	-0.017986	-0.681885	-0.364746	0.504150	-0.232931	-0.715225	0.168201	-0.637107
23794		9.693884	1.130501	-0.801460	-0.004993	0.002795	-0.016240	-0.675293	-0.359131	0.498291	-0.233028	-0.715214	0.168106	-0.637109
23795		9.713251	1.086072	-0.840413	-0.000205	0.003172	-0.014328	-0.680664	-0.364990	0.511230	-0.233088	-0.715195	0.168033	-0.637128
23796		9.703620	1.091593	-0.825979	0.001835	0.001684	-0.010348	-0.669189	-0.371826	0.503906	-0.233008	-0.715257	0.167885	-0.637126
23797		9.678558	1.134789	-0.815525	0.003019	0.001085	-0.009811	-0.675049	-0.363037	0.501953	-0.233115	-0.715308	0.167830	-0.637044
23798		9.689328	1.142567	-0.808655	-0.002674	0.001850	-0.012353	-0.675293	-0.359619	0.510986	-0.233187	-0.715312	0.167783	-0.637026
23799		9.703753	1.106258	-0.846047	-0.003941	-0.000008	-0.017608	-0.675781	-0.365479	0.508301	-0.233179	-0.715404	0.167624	-0.636967
23800		9.667407	1.097609	-0.833183	-0.000250	0.001278	-0.020503	-0.672363	-0.362549	0.508545	-0.233248	-0.715477	0.167434	-0.636909
23801		9.698262	1.094573	-0.865543	0.008420	0.000155	-0.019884	-0.675293	-0.367920	0.503906	-0.233212	-0.715598	0.167184	-0.636853
23802		9.711137	1.097620	-0.828937	0.002430	0.000309	-0.014567	-0.673096	-0.364746	0.501221	-0.233274	-0.715641	0.167070	-0.636812
23803		9.724528	1.103868	-0.854414	0.007640	0.002617	-0.012186	-0.674316	-0.360596	0.501709	-0.233283	-0.715663	0.166957	-0.636813
23804		9.708733	1.160389	-0.825897	0.009405	0.004499	-0.011958	-0.677002	-0.366211	0.504395	-0.233227	-0.715675	0.166817	-0.636856
23805		9.653819	1.139945	-0.816518	0.001975	0.001728	-0.017414	-0.676025	-0.368164	0.500732	-0.233290	-0.715708	0.166671	-0.636835
23806		9.656223	1.093277	-0.839384	0.002267	0.001451	-0.018852	-0.671631	-0.371826	0.498779	-0.233420	-0.715722	0.166547	-0.636803
23807		9.680608	1.105699	-0.857498	0.017484	0.009552	-0.017367	-0.676270	-0.372559	0.509277	-0.233491	-0.715713	0.166321	-0.636847
23808		9.710045	1.140559	-0.814468	0.016545	0.003188	-0.015258	-0.682129	-0.365479	0.499756	-0.233421	-0.715806	0.166044	-0.636840
23809		9.718841	1.189734	-0.837408	0.009420	-0.000233	-0.009446	-0.669189	-0.365234	0.507812	-0.233361	-0.715808	0.165946	-0.636886
23810		9.725449	1.158453	-0.778259	0.007267	0.003461	-0.012880	-0.676514	-0.369629	0.495361	-0.233335	-0.715880	0.165785	-0.636857
23811		9.658760	1.194942	-0.793529	0.005601	0.009333	-0.012357	-0.680908	-0.370605	0.501465	-0.233460	-0.715786	0.165716	-0.636934
23812		9.675011	1.213965	-0.818370	0.005048	0.004333	-0.008320	-0.676270	-0.364014	0.512695	-0.233473	-0.715752	0.165641	-0.636987
23813		9.666167	1.188499	-0.826033	0.001254	-0.001680	-0.003609	-0.669434	-0.368408	0.500000	-0.233330	-0.715838	0.165574	-0.636961
23814		9.688687	1.186180	-0.803580	-0.000449	-0.001616	-0.005417	-0.670898	-0.362793	0.508057	-0.233405	-0.715856	0.165622	-0.636900
23815		9.685191	1.188052	-0.812356	-0.006213	0.004121	-0.007660	-0.676270	-0.366211	0.504395	-0.233431	-0.715866	0.165609	-0.636882
23816		9.688635	1.141104	-0.793220	-0.011041	0.000953	-0.009334	-0.672852	-0.363525	0.498535	-0.233544	-0.715849	0.165647	-0.636850
23817		9.707844	1.109347	-0.842127	-0.001620	0.002062	-0.011139	-0.671387	-0.371338	0.503174	-0.233633	-0.715827	0.165643	-0.636844
23818		9.681123	1.111307	-0.811797	0.005907	-0.001788	-0.008669	-0.668457	-0.367432	0.502686	-0.233658	-0.715886	0.165583	-0.636783
23819		9.711612	1.150034	-0.791135	0.006669	0.000937	-0.004810	-0.674561	-0.372559	0.503662	-0.233636	-0.715924	0.165554	-0.636757
23820		9.708288	1.135432	-0.831509	0.004918	0.003472	-0.002590	-0.669434	-0.369873	0.510010	-0.233625	-0.715917	0.165535	-0.636773
23821		9.683815	1.162931	-0.811044	0.011632	0.003275	-0.003793	-0.675537	-0.374756	0.505127	-0.233512	-0.715991	0.165419	-0.636762
23822		9.677083	1.164378	-0.828919	0.004575	0.002670	-0.005980	-0.680664	-0.376221	0.500244	-0.233531	-0.716003	0.165362	-0.636757
23823		9.678601	1.158248	-0.839735	-0.000471	0.000900	-0.009139	-0.672363	-0.367920	0.494141	-0.233640	-0.715974	0.165340	-0.636754
23824		9.688410	1.143984	-0.843830	0.003620	-0.001173	-0.007597	-0.670898	-0.371094	0.506592	-0.233717	-0.715959	0.165367	-0.636737
23825		9.724931	1.180697	-0.845742	0.004888	0.003779	-0.007535	-0.673096	-0.366455	0.499023	-0.233732	-0.715987	0.165301	-0.636716
23826		9.699409	1.187277	-0.835917	0.001537	0.001077	-0.002480	-0.672852	-0.363525	0.507812	-0.233734	-0.715965	0.165348	-0.636727
23827		9.676225	1.172519	-0.827461	-0.009023	0.001986	-0.009084	-0.677979	-0.369385	0.509766	-0.233800	-0.715974	0.165365	-0.636690
23828		9.668127	1.118831	-0.856431	-0.009006	0.001161	-0.010424	-0.670654	-0.365723	0.501221	-0.233882	-0.715987	0.165350	-0.636648
23829		9.643550	1.132171	-0.867439	0.001512	0.003597	-0.006202	-0.676270	-0.368408	0.501465	-0.233908	-0.715974	0.165351	-0.636654
23830		9.685804	1.146245	-0.862067	0.001970	-0.006146	-0.001957	-0.677002	-0.367188	0.509521	-0.233865	-0.716016	0.165399	-0.636609
23831		9.733994	1.188028	-0.817510	-0.002957	-0.004375	0.004418	-0.678223	-0.367432	0.504150	-0.233752	-0.716061	0.165489	-0.636576
23832		9.725369	1.175834	-0.794209	-0.001001	0.000840	0.003630	-0.678223	-0.369385	0.492676	-0.233673	-0.716037	0.165570	-0.636612
23833		9.678235	1.154315	-0.828341	0.002579	0.008774	0.003728	-0.673096	-0.362305	0.497803	-0.233676	-0.715893	0.165670	-0.636747
23834		9.641290	1.168192	-0.833578	0.005924	0.007055	-0.003771	-0.672363	-0.366699	0.503174	-0.233638	-0.715835	0.165659	-0.636829
23835		9.663551	1.214182	-0.819263	0.013136	-0.000106	-0.000964	-0.679688	-0.377441	0.504395	-0.233502	-0.715882	0.165612	-0.636838
23836		9.697003	1.165442	-0.822749	0.007245	-0.002696	-0.002495	-0.676758	-0.373291	0.499023	-0.233469	-0.715920	0.165590	-0.636812
23837		9.694553	1.187577	-0.821418	0.003040	0.003804	-0.002275	-0.675049	-0.370361	0.508057	-0.233503	-0.715872	0.165619	-0.636847
23838		9.693476	1.197428	-0.767940	0.000419	0.004137	0.001690	-0.675049	-0.369385	0.507812	-0.233459	-0.715861	0.165660	-0.636865
23839		9.692802	1.159552	-0.809413	0.001390	0.001042	0.004586	-0.672119	-0.370361	0.496094	-0.233371	-0.715870	0.165728	-0.636869
23840		9.693353	1.109521	-0.800191	-0.000092	-0.000298	0.004263	-0.673584	-0.368896	0.500977	-0.233392	-0.715830	0.165879	-0.636868
23841		9.712204	1.118697	-0.796300	0.000249	0.000505	0.007653	-0.677979	-0.365234	0.509277	-0.233337	-0.715800	0.166025	-0.636883
23842		9.676062	1.101955	-0.824691	0.007217	0.003374	0.002634	-0.674072	-0.366699	0.504395	-0.233167	-0.715812	0.166006	-0.636936
23843		9.686479	1.120317	-0.827814	0.012309	0.000461	0.000550	-0.671875	-0.363770	0.506348	-0.233025	-0.715850	0.165975	-0.636954
23844		9.683876	1.106473	-0.826999	0.009545	0.003318	0.000108	-0.674561	-0.366455	0.500000	-0.232899	-0.715874	0.165951	-0.636980
23845		9.686238	1.168256	-0.836556	0.007692	0.001134	0.004144	-0.683594	-0.368652	0.497559	-0.232796	-0.715860	0.166006	-0.637019
23846		9.699717	1.150982	-0.831364	0.001702	-0.000060	0.001809	-0.671143	-0.361572	0.503906	-0.232741	-0.715809	0.166068	-0.637079
23847		9.670974	1.156436	-0.831433	0.005096	-0.000703	-0.000862	-0.679932	-0.364990	0.506104	-0.232661	-0.715843	0.166096	-0.637064
23848		9.777178	1.206404	-0.816668	-0.003944	0.001761	0.004083	-0.675049	-0.359375	0.509033	-0.232594	-0.715810	0.166194	-0.637100
23849		9.670240	1.148365	-0.809868	-0.018493	-0.000898	0.013270	-0.672607	-0.365479	0.499023	-0.232548	-0.715764	0.166496	-0.637089
23850		9.656683	1.076010	-0.848235	-0.022844	-0.006313	0.013106	-0.678955	-0.364502	0.500732	-0.232648	-0.715703	0.166910	-0.637012
23851		9.706915	1.055996	-0.845032	-0.013891	0.008917	0.017258	-0.670166	-0.358887	0.504395	-0.232613	-0.715533	0.167212	-0.637137
23852		9.634703	1.051751	-0.595555	0.023747	-0.049821	0.003368	-0.676270	-0.362061	0.509033	-0.232216	-0.716012	0.167269	-0.636729
23853		9.755181	1.075871	-0.500531	0.060783	-0.083613	-0.010338	-0.672607	-0.359863	0.503174	-0.231498	-0.716897	0.166970	-0.636073
23854		10.009609	1.203299	-0.874296	-0.048103	-0.022209	0.021932	-0.676514	-0.357178	0.511719	-0.231672	-0.716875	0.167691	-0.635844
23855		9.679865	0.937974	-0.987838	-0.046548	0.013910	0.051015	-0.671387	-0.364014	0.503662	-0.231585	-0.716545	0.168494	-0.636036
23856		9.471707	0.985760	-1.118808	0.033574	-0.020596	0.020943	-0.670654	-0.364502	0.502930	-0.231077	-0.716758	0.168563	-0.635963
23857		9.522239	1.203040	-1.037474	0.049694	-0.045906	-0.008741	-0.674561	-0.360107	0.503174	-0.230629	-0.717275	0.168325	-0.635605
23858		9.699060	1.162228	-0.943790	0.020194	0.000058	-0.028368	-0.679443	-0.363770	0.500732	-0.230648	-0.717368	0.167991	-0.635581
23859		9.698661	1.248790	-0.884370	-0.009737	0.047572	-0.024117	-0.676758	-0.365234	0.506592	-0.231015	-0.716964	0.167797	-0.635955
23860		9.697629	1.169577	-1.012591	-0.023594	0.017163	-0.014052	-0.673340	-0.358887	0.501221	-0.231352	-0.716781	0.167874	-0.636019
23861		9.771194	1.027634	-0.764458	-0.080344	0.033745	0.011833	-0.680908	-0.366455	0.505859	-0.232015	-0.716233	0.168603	-0.636201
23862		9.736921	0.962387	-0.731272	-0.061779	0.045018	0.022334	-0.683105	-0.370850	0.501465	-0.232438	-0.715639	0.169211	-0.636555
23863		9.650356	0.942848	-0.972517	0.007513	0.014904	0.016414	-0.677734	-0.366943	0.499512	-0.232265	-0.715478	0.169321	-0.636769
23864		9.639030	0.899700	-0.981771	0.032881	-0.027386	0.002603	-0.666260	-0.360352	0.501953	-0.231900	-0.715761	0.169253	-0.636602
23865		9.706178	1.000127	-0.803775	0.033099	-0.030130	-0.003534	-0.674316	-0.361816	0.505127	-0.231582	-0.716113	0.169163	-0.636346
23866		9.764480	1.141158	-0.711247	0.021896	0.004312	-0.000837	-0.670166	-0.365234	0.499756	-0.231370	-0.716146	0.169045	-0.636417
23867		9.730855	1.092899	-0.832813	-0.000194	0.018057	-0.004295	-0.677979	-0.363770	0.505859	-0.231496	-0.715994	0.169087	-0.636532
23868		9.670016	0.976109	-0.924395	-0.003542	0.009638	-0.017063	-0.679443	-0.359619	0.500000	-0.231648	-0.715941	0.169000	-0.636559
23869		9.663654	0.998391	-0.868405	0.006971	0.002390	-0.019072	-0.679199	-0.365967	0.507568	-0.231682	-0.715954	0.168827	-0.636577
23870		9.732417	1.067320	-0.859781	0.021594	0.009721	-0.022342	-0.678955	-0.360596	0.502441	-0.231651	-0.715990	0.168488	-0.636638
23871		9.706444	1.162238	-0.858013	0.013501	0.001936	-0.024436	-0.683105	-0.365479	0.500977	-0.231669	-0.716048	0.168216	-0.636638
23872		9.645031	1.110477	-0.826887	-0.005121	-0.001686	-0.019340	-0.673828	-0.376221	0.510498	-0.231827	-0.716052	0.168151	-0.636593
23873		9.690629	0.959386	-0.794202	-0.017038	0.005854	-0.014290	-0.678711	-0.356201	0.499756	-0.232170	-0.716008	0.168255	-0.636490
23874		9.703219	1.012926	-0.867733	-0.000631	0.014781	-0.012384	-0.678955	-0.367676	0.504883	-0.232208	-0.715889	0.168150	-0.636638
23875		9.721105	1.040565	-0.871120	-0.001230	0.006491	-0.014393	-0.674316	-0.365479	0.501953	-0.232326	-0.715857	0.168086	-0.636648
23876		9.701771	1.013746	-0.843664	0.008292	-0.002111	-0.013988	-0.678955	-0.354736	0.499756	-0.232357	-0.715917	0.167999	-0.636591
23877		9.695513	1.069413	-0.789047	0.017311	-0.000185	-0.008746	-0.675293	-0.366699	0.506592	-0.232156	-0.715964	0.167820	-0.636659
23878		9.691386	1.099272	-0.776194	0.013382	0.006520	0.004064	-0.676270	-0.364746	0.501709	-0.232002	-0.715950	0.167815	-0.636733
23879		9.728410	1.146969	-0.745189	0.012993	0.010065	0.018612	-0.681885	-0.362061	0.500000	-0.231746	-0.715852	0.167939	-0.636904
23880		9.659465	1.120666	-0.697778	0.012037	0.007230	0.037323	-0.668701	-0.360840	0.504150	-0.231298	-0.715719	0.168215	-0.637143
23881		9.575639	1.024195	-0.574810	0.002947	-0.002941	0.075737	-0.679443	-0.364014	0.504883	-0.230669	-0.715603	0.168991	-0.637296
23882		9.863148	0.927326	-0.572154	-0.016437	0.027817	0.141513	-0.677490	-0.358154	0.502930	-0.229728	-0.715027	0.170385	-0.637911
23883		9.777324	0.592992	-0.698272	-0.031051	0.001807	0.208569	-0.683105	-0.352539	0.510986	-0.228323	-0.714472	0.172576	-0.638448
23884		9.703266	0.296113	-0.965666	-0.001687	0.010162	0.282713	-0.680176	-0.351074	0.502930	-0.226004	-0.713798	0.175117	-0.639334
23885		9.474866	-0.034742	-0.734421	0.048385	-0.011309	0.385043	-0.677002	-0.337402	0.499268	-0.222465	-0.713172	0.178302	-0.640393
23886		9.788853	-0.177941	-1.051616	0.076063	-0.033522	0.540773	-0.683594	-0.332275	0.506348	-0.217374	-0.712422	0.182733	-0.641726
23887		9.250571	-0.689192	-1.053046	0.069830	-0.008179	0.747868	-0.695557	-0.321777	0.503418	-0.210732	-0.710947	0.188979	-0.643765
23888		8.729167	-1.195383	-0.942885	0.245625	-0.084156	0.994359	-0.692627	-0.289307	0.509521	-0.200349	-0.709842	0.196180	-0.646141
23889		7.949618	-1.374587	-0.992816	0.435594	-0.105671	1.210971	-0.696045	-0.260010	0.510498	-0.186367	-0.708735	0.203779	-0.649181
23890		7.213312	-1.465743	-1.242931	0.633198	-0.063806	1.403493	-0.707520	-0.240723	0.515137	-0.169124	-0.707022	0.211339	-0.653340
23891		6.354452	-1.425993	-0.966646	0.559701	0.101833	1.613128	-0.709961	-0.197754	0.518066	-0.151324	-0.702924	0.220992	-0.658909
23892		4.688266	0.571817	1.525543	0.856285	0.129803	1.745627	-0.729248	-0.156494	0.513672	-0.129786	-0.698440	0.229215	-0.665430
23893		6.219983	-0.789309	-0.371325	0.253589	0.589524	1.838439	-0.727783	-0.103760	0.510742	-0.113942	-0.688431	0.242286	-0.674075
23894		9.456125	-3.512767	-3.486365	-0.590935	0.396215	1.425353	-0.740234	-0.079102	0.496338	-0.108047	-0.679828	0.259081	-0.677523
23895		11.825966	-5.034652	-3.354616	0.237563	0.023011	1.148457	-0.730957	-0.049561	0.498779	-0.096116	-0.676169	0.266855	-0.679960
23896		8.392537	-1.019492	1.331156	0.962401	-0.191064	1.101211	-0.737061	-0.032715	0.509277	-0.077781	-0.675167	0.268348	-0.682707
23897		12.078793	-3.054938	-0.863542	-0.064264	0.018800	0.911090	-0.734863	-0.015381	0.510254	-0.070612	-0.671819	0.276770	-0.683427
23898		17.402748	-2.859937	-0.875669	-0.250217	-0.011298	0.144179	-0.733643	-0.019287	0.500732	-0.071438	-0.671159	0.280326	-0.682539
23899		16.373851	-3.473825	-0.425958	0.249065	-0.099782	-0.099345	-0.736084	-0.014160	0.511230	-0.069840	-0.672541	0.277593	-0.682461
23900		18.855860	-3.736895	-0.587039	-0.172269	0.037177	-0.513180	-0.731445	-0.021729	0.505615	-0.075772	-0.673811	0.274847	-0.681687
23901		24.373441	-4.543669	-0.881489	-0.427224	0.121706	-1.396832	-0.733398	-0.053711	0.508545	-0.091647	-0.677031	0.266673	-0.679791
23902		23.826438	-0.507133	-1.168047	-0.038907	-0.108295	-2.274491	-0.732178	-0.095947	0.500488	-0.110876	-0.685195	0.247881	-0.675848
23903		19.644115	-0.487808	-0.067873	-0.162249	-0.259794	-2.887739	-0.727539	-0.165283	0.510742	-0.135734	-0.695649	0.224751	-0.668682
23904		14.194902	-2.047367	0.282287	-0.220539	0.035058	-2.521244	-0.723389	-0.208496	0.497070	-0.158725	-0.701710	0.204520	-0.663763
23905		8.677820	0.947057	-0.191519	-0.589997	0.193265	-1.943812	-0.712646	-0.264893	0.494629	-0.180422	-0.703662	0.191898	-0.659912
23906		2.052385	0.822641	-0.931022	-1.056629	-0.034879	-1.397104	-0.706055	-0.288330	0.490967	-0.201088	-0.704739	0.188354	-0.653780
23907		-1.618029	-1.608608	-1.139281	-0.757561	-0.289503	-0.891791	-0.708008	-0.315674	0.490479	-0.214302	-0.707212	0.187407	-0.647151
23908		1.030492	-2.262849	-0.852972	0.070782	-0.408212	-0.331171	-0.692383	-0.323486	0.498779	-0.215353	-0.711450	0.185010	-0.642833
23909		0.761637	-1.296642	-0.098236	0.409269	0.234950	0.311773	-0.703613	-0.312500	0.496582	-0.209715	-0.709915	0.183906	-0.646699
23910		-0.001367	1.756473	-0.119855	0.026794	0.086975	0.414461	-0.698486	-0.299316	0.489502	-0.206291	-0.708306	0.187187	-0.648620
23911		0.285717	0.737946	-0.624074	-0.234052	-0.021880	0.347143	-0.705566	-0.298340	0.485596	-0.205459	-0.707048	0.192255	-0.648775
23912		-0.251624	-1.102836	-0.791732	0.010869	0.027509	0.339082	-0.701904	-0.291016	0.489746	-0.202642	-0.706019	0.195120	-0.649924
23913		-0.087846	-0.335492	-0.364464	0.299207	0.082517	0.401502	-0.708008	-0.279785	0.482422	-0.196904	-0.705105	0.196080	-0.652387
23914		0.167975	0.042621	0.305414	0.158764	0.012903	0.583061	-0.713379	-0.274170	0.501953	-0.190742	-0.703929	0.199929	-0.654316
23915		0.289872	-0.053669	0.239756	0.014965	0.089664	0.813235	-0.722412	-0.251221	0.488037	-0.184148	-0.701157	0.206820	-0.657034
23916		0.211993	-0.828675	3.375442	-0.004503	0.221433	1.060886	-0.721680	-0.234131	0.493652	-0.175991	-0.696510	0.215671	-0.661352
23917		9.288897	-1.417260	-0.942019	0.566031	0.001566	1.347261	-0.727051	-0.204102	0.491943	-0.159872	-0.693985	0.222768	-0.665733
23918		22.962086	-2.541176	-2.082000	0.107999	0.933280	1.741746	-0.732910	-0.170410	0.478760	-0.146966	-0.681362	0.235125	-0.677395
23919		33.893527	-1.094758	-3.074345	-0.141650	0.066525	1.298053	-0.747070	-0.140869	0.484863	-0.137348	-0.676622	0.247365	-0.679801
23920		37.553727	-3.097970	-1.338981	-1.033409	-0.205242	0.275874	-0.740967	-0.145508	0.484131	-0.143081	-0.675665	0.258964	-0.675234
23921		33.387652	1.062592	1.583219	-0.961708	0.029167	-1.075513	-0.745605	-0.183105	0.478027	-0.160337	-0.677062	0.258062	-0.670286
23922		23.354154	-0.197868	-1.617826	-1.299256	0.062017	-2.127366	-0.729248	-0.241455	0.473877	-0.189248	-0.680472	0.250753	-0.662017
23923		13.003648	-3.555514	-0.911491	-0.709318	0.048174	-2.185443	-0.727295	-0.281982	0.462646	-0.213428	-0.684972	0.237906	-0.654723
23924		2.926447	1.027504	-0.015436	-0.932779	-0.285320	-1.569731	-0.713867	-0.318604	0.454834	-0.233305	-0.689302	0.232827	-0.645153
23925		-2.760697	-0.679844	-1.259150	-1.280187	-0.399281	-1.008997	-0.702881	-0.352051	0.458740	-0.251193	-0.691567	0.235550	-0.634944
23926		1.941889	-5.787751	-0.279531	0.123732	-0.453367	-0.097124	-0.697998	-0.348633	0.461670	-0.249502	-0.695824	0.235183	-0.631084
23927		-0.043327	-2.617676	-2.395322	0.513199	0.027320	0.656196	-0.708008	-0.334229	0.473389	-0.239868	-0.695227	0.236781	-0.634868
23928		-0.021198	1.958646	-2.164260	0.380787	-0.208317	0.357359	-0.705811	-0.331055	0.474121	-0.233051	-0.696936	0.237574	-0.635237
23929		0.318117	-0.006989	0.292211	0.047512	-0.207213	0.234850	-0.708252	-0.323975	0.483643	-0.230121	-0.698007	0.239886	-0.634260
23930		0.239798	-0.990621	0.449553	-0.163216	-0.103622	0.415327	-0.698975	-0.316162	0.482910	-0.227899	-0.697093	0.245166	-0.634048
23931		-0.270516	0.093444	0.177702	-0.005891	0.168869	0.593294	-0.712402	-0.302979	0.473877	-0.223728	-0.693895	0.249992	-0.637150
23932		-0.222959	0.329511	-0.116483	0.110096	0.192725	0.697627	-0.702148	-0.293213	0.475586	-0.217764	-0.690444	0.254670	-0.641100
23933		-0.754939	0.922154	1.882036	-0.079129	0.252028	0.769204	-0.727783	-0.285889	0.473389	-0.213055	-0.685727	0.261350	-0.645045
23934		2.325304	1.690441	0.823571	-0.101579	0.057372	0.657223	-0.724854	-0.273682	0.469971	-0.208779	-0.682818	0.267692	-0.646925
23935		8.510872	-2.736638	-1.753146	-0.363086	0.826103	0.943411	-0.742432	-0.258301	0.454834	-0.206961	-0.671942	0.276540	-0.655123
23936		24.800487	-5.223100	-4.108264	0.016999	0.593354	1.428776	-0.754639	-0.233887	0.450439	-0.197107	-0.662058	0.286899	-0.663714
23937		31.179286	-5.781832	-4.253620	-0.072194	-0.318850	1.033737	-0.747559	-0.209473	0.453369	-0.187966	-0.660754	0.296971	-0.663235
23938		34.318973	-9.803760	-0.993573	0.633530	-0.718693	0.064108	-0.745117	-0.196045	0.473877	-0.179525	-0.667905	0.294132	-0.659667
23939		32.092263	0.963526	0.795649	0.030926	-0.471138	-1.315545	-0.733643	-0.226807	0.488281	-0.188353	-0.676573	0.284181	-0.652697
23940		26.102496	-4.419803	-0.749238	0.289596	-0.030949	-2.585900	-0.721436	-0.271240	0.482178	-0.206807	-0.686331	0.260130	-0.646926
23941		16.999455	-1.757037	-0.529664	1.614768	0.396310	-2.402271	-0.719727	-0.296143	0.475586	-0.213525	-0.694649	0.225436	-0.648883
23942		6.785633	4.312657	0.091420	0.525857	0.068528	-1.467660	-0.712646	-0.322266	0.488525	-0.220964	-0.699479	0.208216	-0.646954
23943		-2.978355	2.745169	0.557704	-0.724349	-0.299017	-0.422924	-0.699463	-0.335938	0.469482	-0.229904	-0.700946	0.211231	-0.641249
23944		-1.918346	-2.255881	-0.978675	-0.276643	-0.443479	0.135229	-0.699219	-0.330078	0.485107	-0.230014	-0.703312	0.215799	-0.637085
23945		1.359236	-3.712347	-1.014821	0.575081	0.141287	0.345358	-0.696777	-0.320801	0.482910	-0.222527	-0.702865	0.213871	-0.640876
23946		0.898455	1.144825	-1.201899	0.935575	0.088936	0.217522	-0.693115	-0.307861	0.482666	-0.212753	-0.704107	0.208051	-0.644736
23947		-0.001183	1.705819	0.663377	0.281815	-0.090424	-0.029425	-0.697510	-0.304688	0.485840	-0.210250	-0.705643	0.205753	-0.644615
23948		-0.166365	-0.254048	0.260402	-0.312080	-0.075409	-0.068017	-0.696045	-0.307617	0.487061	-0.213320	-0.705580	0.207829	-0.643008
23949		-0.179589	-1.226746	-0.606553	-0.181927	0.163246	0.035785	-0.701172	-0.309082	0.491455	-0.215024	-0.703669	0.209168	-0.644099
23950		0.240094	-1.783059	-0.710366	0.208616	0.394261	0.222146	-0.714355	-0.309814	0.474121	-0.212398	-0.700451	0.208441	-0.648697
23951		-0.026983	-1.793304	1.621251	0.396798	0.263849	0.529307	-0.713379	-0.281494	0.476562	-0.205279	-0.697927	0.209094	-0.653482
23952		3.654579	-2.069915	-2.241097	0.763724	0.342980	0.662325	-0.721191	-0.263428	0.475342	-0.194035	-0.695268	0.207796	-0.660131
23953		13.635369	-2.286903	-2.068396	1.498372	0.490410	0.838473	-0.727295	-0.238770	0.482422	-0.175285	-0.692482	0.201549	-0.670165
23954		20.720408	4.419304	0.722428	1.590614	-0.191627	0.684389	-0.730713	-0.205078	0.500244	-0.155262	-0.695680	0.194637	-0.673825
23955		30.087195	-9.830371	-7.981843	0.788452	-0.698515	1.841958	-0.716553	-0.163574	0.506104	-0.131137	-0.698368	0.205422	-0.672968
23956		21.847571	2.465238	2.362371	2.516149	0.273959	2.064297	-0.737305	-0.086426	0.501953	-0.092436	-0.694305	0.201822	-0.684591
23957		13.057829	18.447112	4.012738	-1.386705	0.149103	0.396187	-0.737793	-0.102539	0.495605	-0.101397	-0.690290	0.216951	-0.682752
23958		15.323922	-2.344859	-5.127973	-3.533490	-0.392846	-1.102613	-0.727783	-0.160889	0.503906	-0.140070	-0.691408	0.237723	-0.667700
23959		11.587597	-13.457498	-4.285313	-0.205951	-0.259796	-1.595474	-0.708740	-0.200684	0.510742	-0.154332	-0.697830	0.226109	-0.661884
23960		8.488913	-0.575794	-1.026020	2.347596	-0.089244	-1.687271	-0.708496	-0.201416	0.520508	-0.147504	-0.707445	0.192194	-0.663946
23961		4.656551	7.235617	2.267096	0.203576	-0.305562	-1.407038	-0.704834	-0.227783	0.524414	-0.156651	-0.713636	0.178692	-0.658979
23962		5.364755	2.027921	1.899176	-1.440469	-0.239632	-0.937975	-0.700684	-0.259277	0.521973	-0.176673	-0.714713	0.182562	-0.651646
23963		7.835207	-2.171465	-0.201655	-0.730938	-0.171474	-0.572652	-0.689453	-0.279297	0.516357	-0.187451	-0.715743	0.183705	-0.647168
23964		8.841552	-2.852397	-1.793560	0.037337	-0.070699	-0.252050	-0.691162	-0.283691	0.520508	-0.188991	-0.716968	0.181256	-0.646054
23965		12.193105	-0.783641	-1.196515	0.437519	-0.320377	-0.082285	-0.689941	-0.278076	0.532227	-0.185001	-0.720746	0.177711	-0.643987
23966		10.704491	0.112910	-0.122168	-0.137033	-0.184172	0.100390	-0.687988	-0.279785	0.538818	-0.185004	-0.721671	0.180145	-0.642271
23967		9.917163	-0.332351	-0.331392	-0.199486	-0.077790	0.069423	-0.689209	-0.279053	0.535645	-0.186073	-0.721672	0.182600	-0.641267
23968		10.297893	-0.608713	0.059422	-0.287020	0.103557	0.022709	-0.683594	-0.290039	0.529541	-0.188696	-0.720102	0.184874	-0.641614
23969		9.836083	-0.750327	-0.862443	-0.211917	0.084392	-0.056726	-0.688477	-0.284424	0.525635	-0.191281	-0.719049	0.185877	-0.641740
23970		9.138926	-0.521580	-1.527560	-0.062791	0.017186	-0.123305	-0.690430	-0.299561	0.526123	-0.192845	-0.719029	0.185239	-0.641478
23971		9.158424	-0.097137	-1.425715	-0.105361	-0.067218	-0.130133	-0.686523	-0.299072	0.527344	-0.194706	-0.719596	0.185063	-0.640330
23972		9.719605	0.004737	-1.576726	-0.205639	0.054012	-0.083196	-0.687012	-0.293213	0.519043	-0.197360	-0.718840	0.185858	-0.640136
23973		10.100268	-0.363391	-1.732086	-0.178647	0.198507	-0.037229	-0.689453	-0.303955	0.516113	-0.199676	-0.716868	0.186446	-0.641457
23974		9.525317	-0.489742	-1.911539	-0.108035	0.243241	-0.039707	-0.691406	-0.304443	0.513428	-0.201525	-0.714715	0.186352	-0.643306
23975		9.103867	-0.306720	-2.151683	0.074063	0.160893	-0.107977	-0.692627	-0.307617	0.509766	-0.202102	-0.713842	0.184438	-0.644645
23976		9.621272	-0.470669	-2.420316	0.193414	0.093906	-0.096723	-0.683105	-0.309326	0.519287	-0.201377	-0.713777	0.181821	-0.645687
23977		10.147245	0.467641	-1.566315	0.255846	0.065620	-0.039436	-0.680908	-0.306641	0.515869	-0.199620	-0.713997	0.179467	-0.646647
23978		10.186472	1.254563	-0.764318	0.015325	0.014294	-0.033346	-0.687012	-0.309326	0.513672	-0.199844	-0.714009	0.179211	-0.646635
23979		9.732315	1.343828	-1.014846	-0.345755	-0.035677	0.009852	-0.689697	-0.304199	0.510254	-0.202818	-0.713405	0.182311	-0.645509
23980		9.565574	0.341162	-1.945625	-0.493547	-0.017184	0.045921	-0.691162	-0.308105	0.508789	-0.206798	-0.712166	0.186839	-0.644318
23981		9.698298	-0.256971	-2.043583	-0.213990	-0.053777	0.001080	-0.684814	-0.321289	0.511475	-0.208559	-0.712033	0.188830	-0.643316
23982		9.619173	0.369996	-1.089864	-0.011018	-0.128340	-0.045956	-0.692383	-0.318359	0.509766	-0.208794	-0.713148	0.189054	-0.641937
23983		10.062200	1.136196	-0.110778	-0.278109	-0.077445	0.000740	-0.687744	-0.315674	0.507080	-0.211095	-0.713022	0.191589	-0.640571
23984		10.284349	1.182672	-0.473951	-0.309816	0.058322	0.119880	-0.691895	-0.312988	0.512207	-0.213016	-0.711434	0.195072	-0.640651
23985		9.694922	0.865777	-0.555329	-0.272430	0.001244	0.291228	-0.695312	-0.314209	0.497803	-0.213097	-0.709973	0.200021	-0.640719
23986		9.455090	-0.497716	-0.471310	-0.319782	-0.025409	0.472048	-0.689697	-0.308838	0.504639	-0.212029	-0.708108	0.206835	-0.640973
23987		9.918840	-0.893646	0.154807	-0.223820	-0.083048	0.528237	-0.699707	-0.310059	0.508301	-0.209561	-0.706794	0.213708	-0.640980
23988		10.548329	-0.608141	0.257665	0.079741	-0.114311	0.406965	-0.700928	-0.292480	0.510010	-0.205332	-0.706808	0.217166	-0.641170
23989		9.590581	0.537789	-0.398782	-0.042838	-0.164266	0.158249	-0.697266	-0.290039	0.506104	-0.203987	-0.707570	0.219511	-0.639960
23990		7.569322	0.595025	-0.884557	-0.224181	-0.325182	-0.133142	-0.694824	-0.299805	0.511475	-0.206103	-0.709945	0.221057	-0.636108
23991		7.645441	0.609523	-1.525769	0.020550	-0.516260	-0.388871	-0.685303	-0.302979	0.529541	-0.207568	-0.715139	0.218874	-0.630544
23992		10.933064	0.037168	-0.208179	0.220132	-0.232581	-0.414073	-0.675293	-0.310303	0.531250	-0.208237	-0.718651	0.214265	-0.627908
23993		12.816159	-0.115662	0.756749	0.053297	0.357444	-0.403901	-0.683594	-0.316162	0.517578	-0.211908	-0.717041	0.209488	-0.630128
23994		9.811198	0.136512	-1.080995	-0.172418	0.367561	-0.445310	-0.681885	-0.330078	0.516602	-0.217874	-0.714818	0.205900	-0.631800
23995		7.471194	0.321577	-3.017269	0.054031	-0.046623	-0.488435	-0.675537	-0.330811	0.516602	-0.221153	-0.716563	0.201389	-0.630136
23996		9.201945	0.683338	-1.323903	0.326054	-0.184071	-0.506850	-0.681885	-0.342773	0.520752	-0.221744	-0.720160	0.194931	-0.627854
23997		10.835238	0.563779	-0.110061	0.285297	0.182195	-0.315553	-0.675049	-0.344238	0.520508	-0.222071	-0.720251	0.189376	-0.629333
23998		10.441620	1.100483	-0.222318	0.046611	0.340043	-0.121878	-0.683105	-0.354736	0.517578	-0.223418	-0.717967	0.187058	-0.632152
23999		9.429220	1.545225	-2.060235	0.015797	0.254404	-0.093127	-0.676514	-0.343262	0.518799	-0.224661	-0.716187	0.185493	-0.634190
24000		8.853393	1.418232	-2.286960	-0.007440	0.107214	-0.126992	-0.688965	-0.349609	0.500977	-0.226028	-0.715602	0.184344	-0.634698
24001		9.691399	0.866788	-1.556320	-0.028639	-0.063372	-0.151043	-0.683350	-0.350586	0.507812	-0.227264	-0.716340	0.183308	-0.633725
24002		9.972096	0.230644	-0.933822	-0.013450	-0.052411	-0.173628	-0.674805	-0.350342	0.507324	-0.228610	-0.717090	0.182040	-0.632757
24003		9.965582	0.195913	-0.866012	0.114735	0.014943	-0.199361	-0.669922	-0.353271	0.517090	-0.229158	-0.717737	0.179362	-0.632589
24004		9.868876	0.990490	-0.935575	0.203726	0.042491	-0.213481	-0.673340	-0.354492	0.507080	-0.229147	-0.718456	0.175928	-0.632742
24005		9.739541	1.394720	-0.947518	0.105107	-0.011664	-0.171977	-0.682373	-0.356934	0.510742	-0.229495	-0.719207	0.173613	-0.632401
24006		9.606725	1.311064	-1.440040	0.086252	-0.104221	-0.124846	-0.665039	-0.361084	0.513916	-0.229423	-0.720518	0.172097	-0.631350
24007		9.828439	1.199833	-1.508101	0.101064	-0.069604	-0.044225	-0.669434	-0.353516	0.526367	-0.228730	-0.721440	0.171219	-0.630786
24008		9.794005	0.933802	-1.079038	-0.029215	0.000985	0.010149	-0.673828	-0.356445	0.516846	-0.228927	-0.721321	0.171732	-0.630711
24009		9.771157	1.020408	-1.003564	-0.057242	0.021311	-0.006279	-0.671875	-0.359375	0.518799	-0.229504	-0.720982	0.172118	-0.630784
24010		9.431170	1.115001	-1.131014	0.005202	0.019249	-0.042733	-0.668457	-0.360596	0.517822	-0.229837	-0.720920	0.171751	-0.630833
24011		9.587273	1.163814	-1.308433	0.059334	0.038517	-0.055749	-0.668213	-0.361328	0.513916	-0.229838	-0.720893	0.170801	-0.631122
24012		9.680870	1.136482	-1.189179	0.044451	0.043849	-0.045088	-0.666504	-0.359863	0.523193	-0.229885	-0.720755	0.170007	-0.631477
24013		9.639712	1.130177	-1.081757	0.017134	0.036430	-0.031029	-0.668945	-0.361572	0.511719	-0.230102	-0.720578	0.169706	-0.631681
24014		9.627112	1.060778	-0.986005	0.020226	0.033304	-0.031976	-0.672363	-0.359375	0.516602	-0.230230	-0.720424	0.169231	-0.631937
24015		9.706083	1.163658	-0.954815	0.064014	0.045589	-0.058440	-0.674805	-0.366455	0.512939	-0.230203	-0.720355	0.168174	-0.632307
24016		9.748682	1.350765	-0.961414	0.073898	0.051168	-0.062753	-0.675537	-0.358887	0.516357	-0.230152	-0.720268	0.166956	-0.632748
24017		9.686442	1.367765	-0.835324	0.054045	0.049091	-0.054085	-0.668701	-0.358154	0.517822	-0.230174	-0.720129	0.165986	-0.633153
24018		9.557538	1.253712	-0.947359	0.082653	0.026831	-0.063911	-0.666748	-0.372559	0.509521	-0.229998	-0.720280	0.164828	-0.633348
24019		9.636489	1.447991	-0.777341	0.080421	0.024342	-0.065305	-0.672363	-0.354248	0.500977	-0.229904	-0.720430	0.163658	-0.633514
24020		9.710818	1.497452	-0.663943	0.020070	0.042499	-0.044669	-0.674805	-0.351318	0.512939	-0.230018	-0.720222	0.162852	-0.633918
24021		9.653083	1.377972	-0.889137	-0.042947	0.054682	-0.013276	-0.670654	-0.360107	0.503418	-0.230527	-0.719678	0.162925	-0.634331
24022		9.747007	1.243226	-0.896984	-0.069337	0.044242	0.011184	-0.677734	-0.364014	0.506348	-0.231091	-0.719083	0.163441	-0.634668
24023		9.684987	1.079988	-0.726689	-0.125449	0.025047	0.023444	-0.673096	-0.364014	0.509766	-0.232049	-0.718444	0.164598	-0.634743
24024		9.721563	0.972454	-0.832404	-0.130854	0.031735	0.020372	-0.678955	-0.366211	0.511230	-0.233124	-0.717755	0.165827	-0.634809
24025		9.739354	0.990711	-0.910105	-0.083064	0.039430	0.010787	-0.681152	-0.371338	0.507812	-0.233868	-0.717157	0.166578	-0.635014
24026		9.722164	1.078761	-0.873275	-0.067748	0.023633	0.009608	-0.670898	-0.365723	0.511963	-0.234469	-0.716723	0.167241	-0.635108
24027		9.695395	1.112827	-0.837228	-0.071248	0.006219	0.005516	-0.671387	-0.374512	0.514404	-0.235107	-0.716452	0.168021	-0.634973
24028		9.709986	1.121017	-0.777223	-0.084598	-0.000216	0.004250	-0.677734	-0.364258	0.504883	-0.235937	-0.716189	0.168993	-0.634704
24029		9.742722	1.117711	-0.723871	-0.076639	0.004069	0.013012	-0.672607	-0.369141	0.511719	-0.236489	-0.715887	0.169777	-0.634629
24030		9.741021	1.062529	-0.803064	-0.073235	0.006766	0.016414	-0.675781	-0.368408	0.510742	-0.237079	-0.715577	0.170692	-0.634514
24031		9.668309	0.939439	-0.795877	-0.064362	0.004112	0.015120	-0.675293	-0.367432	0.499023	-0.237576	-0.715311	0.171509	-0.634407
24032		9.680268	1.063760	-0.743802	-0.053746	0.007528	0.013693	-0.677979	-0.368652	0.492920	-0.237923	-0.715048	0.172092	-0.634416
24033		9.735791	1.095325	-0.729581	-0.038598	0.001190	0.007385	-0.669189	-0.370117	0.497559	-0.238138	-0.714885	0.172453	-0.634421
24034		9.698791	0.898415	-0.749997	-0.026482	-0.005320	-0.011662	-0.669678	-0.364502	0.501953	-0.238451	-0.714865	0.172679	-0.634265
24035		9.672408	1.039846	-0.746972	-0.011900	0.018829	-0.016226	-0.670166	-0.369873	0.500977	-0.238695	-0.714715	0.172679	-0.634341
24036		9.638470	1.156130	-0.708138	0.012308	0.018143	-0.015535	-0.679932	-0.375977	0.504883	-0.238752	-0.714636	0.172521	-0.634452
24037		9.681875	1.162447	-0.791932	-0.004293	0.017030	-0.015317	-0.679443	-0.367920	0.495605	-0.238993	-0.714499	0.172533	-0.634512
24038		9.688209	1.205544	-0.832979	0.002082	0.000873	-0.018589	-0.666016	-0.377441	0.496338	-0.239054	-0.714518	0.172370	-0.634512
24039		9.709675	1.204594	-0.706599	0.001580	-0.004122	-0.014596	-0.679199	-0.375732	0.504883	-0.239200	-0.714577	0.172401	-0.634382
24040		9.664635	1.156479	-0.762830	-0.014213	0.012176	-0.009682	-0.670410	-0.381348	0.501953	-0.239473	-0.714438	0.172558	-0.634393
24041		9.734819	1.243045	-0.814587	-0.013796	0.009123	-0.010199	-0.677490	-0.371338	0.501465	-0.239800	-0.714330	0.172774	-0.634333
24042		9.679055	1.149449	-0.815230	-0.022063	0.001201	-0.006003	-0.671143	-0.368408	0.491943	-0.240039	-0.714251	0.173004	-0.634268
24043		9.674728	1.166499	-0.794376	-0.007408	-0.017322	-0.002864	-0.674561	-0.373047	0.500000	-0.240014	-0.714365	0.173108	-0.634121
24044		9.751350	1.135502	-0.754133	-0.017175	-0.022713	-0.002798	-0.676270	-0.365723	0.495361	-0.240144	-0.714485	0.173408	-0.633854
24045		9.681787	1.215049	-0.823830	-0.013873	0.000776	-0.001809	-0.674805	-0.377197	0.498047	-0.240184	-0.714431	0.173503	-0.633875
24046		9.681879	1.197999	-0.751853	-0.015575	-0.006117	-0.003039	-0.673828	-0.375732	0.494385	-0.240357	-0.714418	0.173746	-0.633756
24047		9.662361	1.221522	-0.796938	-0.012729	-0.001444	-0.004617	-0.667969	-0.379395	0.501465	-0.240495	-0.714382	0.173896	-0.633704
24048		9.656660	1.189088	-0.775576	-0.017683	-0.008879	0.001050	-0.671631	-0.372070	0.502441	-0.240707	-0.714386	0.174280	-0.633513
24049		9.707046	1.095558	-0.796450	-0.030621	-0.008150	0.004675	-0.672852	-0.381104	0.498535	-0.240936	-0.714341	0.174731	-0.633353
24050		9.711665	1.024735	-0.790874	-0.012999	-0.011999	0.001177	-0.673584	-0.367432	0.508057	-0.241079	-0.714372	0.175052	-0.633175
24051		9.718630	1.087102	-0.783107	-0.003459	0.000334	-0.000810	-0.674805	-0.375000	0.490723	-0.241112	-0.714359	0.175221	-0.633130
24052		9.638675	1.143125	-0.784555	0.013666	0.002878	-0.006141	-0.678955	-0.374268	0.494385	-0.240992	-0.714371	0.175079	-0.633202
24053		9.657464	1.140503	-0.813273	0.015255	-0.008756	-0.010363	-0.670410	-0.380371	0.509277	-0.240872	-0.714484	0.174939	-0.633159
24054		9.718086	1.133093	-0.806158	0.011261	-0.005367	-0.011325	-0.668701	-0.373779	0.502441	-0.240978	-0.714572	0.175042	-0.632990
24055		9.786134	1.152065	-0.832036	0.030068	-0.003940	-0.019647	-0.675293	-0.369385	0.495605	-0.240888	-0.714730	0.174805	-0.632911
24056		9.694508	1.263812	-0.789551	0.020589	-0.006320	-0.014980	-0.675293	-0.369873	0.500000	-0.240725	-0.714863	0.174545	-0.632896
24057		9.661364	1.209060	-0.791158	-0.012594	-0.008913	-0.009600	-0.678955	-0.367432	0.500244	-0.240845	-0.714904	0.174652	-0.632774
24058		9.630970	1.150523	-0.865958	-0.006796	-0.006494	-0.011520	-0.668213	-0.369385	0.499023	-0.240897	-0.714946	0.174651	-0.632707
24059		9.678969	1.187328	-0.873201	0.004880	-0.000833	-0.013351	-0.674561	-0.379395	0.506592	-0.240916	-0.714994	0.174574	-0.632666
24060		9.684625	1.127589	-0.847132	-0.000460	-0.014060	-0.012713	-0.672119	-0.373047	0.498291	-0.241066	-0.715112	0.174711	-0.632438
24061		9.726432	1.107724	-0.887168	0.009385	-0.016150	-0.010096	-0.674561	-0.380371	0.502197	-0.240996	-0.715277	0.174676	-0.632288
24062		9.697709	1.178811	-0.857919	0.010117	-0.003147	-0.008507	-0.669678	-0.376465	0.497559	-0.241021	-0.715325	0.174699	-0.632218
24063		9.656289	1.172226	-0.886902	0.008543	-0.011436	-0.008936	-0.668213	-0.373779	0.499512	-0.240993	-0.715445	0.174696	-0.632093
24064		9.676851	1.101005	-0.878432	0.013201	-0.016495	-0.007247	-0.675049	-0.371582	0.499512	-0.240888	-0.715622	0.174683	-0.631937
24065		9.665696	1.137688	-0.908290	0.025304	-0.004477	-0.005507	-0.674072	-0.376953	0.510254	-0.240640	-0.715729	0.174502	-0.631961
24066		9.693849	1.170753	-0.868170	0.034025	-0.004871	-0.006315	-0.671143	-0.380371	0.498779	-0.240444	-0.715865	0.174398	-0.631909
24067		9.702049	1.163982	-0.863659	0.030250	-0.009519	-0.010131	-0.668701	-0.376953	0.500977	-0.240276	-0.716028	0.174245	-0.631831
24068		9.695812	1.172430	-0.905941	0.034379	-0.006513	-0.015292	-0.670410	-0.373535	0.500488	-0.240105	-0.716199	0.173999	-0.631770
24069		9.694648	1.171796	-0.846363	0.030569	-0.008952	-0.017889	-0.676758	-0.367920	0.505127	-0.239937	-0.716385	0.173719	-0.631700
24070		9.652743	1.186148	-0.906773	0.028113	-0.006155	-0.016292	-0.669678	-0.375977	0.513672	-0.239734	-0.716539	0.173424	-0.631684
24071		9.674374	1.121791	-0.917470	0.037775	-0.003798	-0.011915	-0.671875	-0.366699	0.504883	-0.239579	-0.716694	0.173271	-0.631608
24072		9.668061	1.146372	-0.886048	0.037699	-0.004368	-0.002778	-0.681641	-0.370117	0.502930	-0.239187	-0.716841	0.173015	-0.631661
24073		9.707455	1.165655	-0.913089	0.031362	-0.008730	0.005698	-0.666016	-0.373047	0.506104	-0.238766	-0.716962	0.172877	-0.631719
24074		9.699965	1.157996	-0.912870	0.043299	-0.002516	0.003761	-0.669189	-0.369873	0.503662	-0.238378	-0.717094	0.172734	-0.631756
24075		9.659019	1.249790	-0.868060	0.038973	0.000032	-0.000573	-0.666504	-0.377197	0.506104	-0.238010	-0.717199	0.172513	-0.631835
24076		9.639198	1.208600	-0.903406	0.019830	0.000841	-0.000765	-0.666260	-0.368408	0.505371	-0.237926	-0.717234	0.172552	-0.631817
24077		9.655924	1.231093	-0.951553	0.017835	-0.001627	-0.000891	-0.667236	-0.368408	0.505859	-0.237758	-0.717296	0.172515	-0.631820
24078		9.763148	1.241732	-0.949490	0.010307	-0.001801	0.000446	-0.662842	-0.375244	0.506592	-0.237648	-0.717332	0.172551	-0.631810
24079		9.649263	1.148769	-0.930823	-0.004017	-0.008258	0.001439	-0.668213	-0.370605	0.507324	-0.237742	-0.717370	0.172829	-0.631655
24080		9.656864	1.094650	-0.883371	-0.009926	-0.005689	-0.004030	-0.675049	-0.367432	0.501953	-0.237873	-0.717382	0.173031	-0.631538
24081		9.660914	1.101391	-0.895410	0.001015	0.003308	-0.003960	-0.672119	-0.370605	0.510254	-0.237820	-0.717349	0.173000	-0.631604
24082		9.681732	1.107921	-0.964637	0.013395	0.002596	0.005091	-0.676758	-0.365234	0.513916	-0.237694	-0.717340	0.173088	-0.631637
24083		9.734896	1.106825	-0.921891	0.004353	-0.004206	0.009376	-0.672363	-0.369873	0.503662	-0.237556	-0.717351	0.173268	-0.631628
24084		9.719172	1.127981	-0.917369	0.010861	-0.004569	0.011756	-0.674072	-0.366943	0.509521	-0.237332	-0.717374	0.173389	-0.631652
24085		9.639923	1.203648	-0.868677	0.016499	0.000062	0.010356	-0.675537	-0.369873	0.509521	-0.237087	-0.717384	0.173461	-0.631713
24086		9.685032	1.172379	-0.875040	-0.003716	-0.002705	0.010662	-0.669922	-0.370361	0.513428	-0.237048	-0.717348	0.173735	-0.631694
24087		9.671926	1.106988	-0.901514	0.004483	0.002450	0.014345	-0.675781	-0.357910	0.502930	-0.236976	-0.717295	0.174030	-0.631699
24088		9.714077	1.137758	-0.926058	0.016911	0.006698	0.008996	-0.669434	-0.368896	0.507812	-0.236598	-0.717269	0.173895	-0.631908
24089		9.655321	1.159816	-0.935235	0.012398	0.002309	-0.003775	-0.670898	-0.363525	0.501953	-0.236550	-0.717281	0.173905	-0.631909
24090		9.673184	1.190846	-0.859284	0.006567	-0.005102	-0.011159	-0.665283	-0.366211	0.510010	-0.236487	-0.717356	0.173796	-0.631878
24091		9.678804	1.169011	-0.893555	-0.004407	-0.002442	-0.005986	-0.668945	-0.361572	0.504883	-0.236594	-0.717373	0.173934	-0.631780
24092		9.696065	1.095232	-0.931489	-0.009430	-0.002366	-0.003020	-0.669189	-0.366211	0.504883	-0.236619	-0.717368	0.174024	-0.631751
24093		9.709743	1.058301	-0.935966	-0.025484	0.002856	0.001422	-0.679199	-0.366943	0.502930	-0.236818	-0.717257	0.174319	-0.631722
24094		9.703363	1.039579	-0.922552	-0.008238	-0.000165	-0.002726	-0.669434	-0.367676	0.501465	-0.236849	-0.717211	0.174408	-0.631738
24095		9.672263	1.094073	-0.932746	0.010860	-0.005425	-0.005607	-0.667969	-0.362793	0.511230	-0.236754	-0.717283	0.174370	-0.631703
24096		9.679085	1.137718	-0.895518	-0.006137	-0.009336	0.000517	-0.668701	-0.368408	0.512207	-0.236764	-0.717339	0.174556	-0.631583
24097		9.700673	1.148539	-0.883595	-0.022075	-0.002733	0.005518	-0.677490	-0.366699	0.511475	-0.236959	-0.717275	0.174962	-0.631471
24098		9.692180	1.114642	-0.870414	-0.026254	-0.004614	0.007122	-0.666504	-0.367676	0.512451	-0.237121	-0.717197	0.175366	-0.631387
24099		9.690441	1.062899	-0.911820	-0.028728	-0.004306	0.004047	-0.667725	-0.370850	0.511719	-0.237385	-0.717133	0.175817	-0.631234
24100		9.673816	1.022621	-0.937175	-0.015583	-0.000614	-0.003478	-0.673340	-0.372803	0.505127	-0.237626	-0.717088	0.176114	-0.631112
24101		9.759312	1.064696	-0.967487	-0.000770	0.002504	-0.007760	-0.668213	-0.360107	0.505371	-0.237733	-0.717055	0.176196	-0.631086
24102		9.699289	1.084440	-0.955489	0.002281	0.003292	-0.012553	-0.674316	-0.365234	0.500977	-0.237717	-0.717069	0.176069	-0.631112
24103		9.655158	1.103318	-0.939397	-0.004359	-0.001607	-0.020017	-0.670654	-0.368164	0.509521	-0.237820	-0.717096	0.175950	-0.631076
24104		9.659933	1.059567	-0.920952	-0.009285	-0.001265	-0.021269	-0.667969	-0.370117	0.505859	-0.238080	-0.717113	0.175972	-0.630952
24105		9.680276	1.030121	-0.969462	0.001799	0.006071	-0.015498	-0.675537	-0.364990	0.514893	-0.238214	-0.717093	0.175936	-0.630935
24106		9.746785	1.099835	-0.961398	0.009329	0.001263	-0.010122	-0.671143	-0.377686	0.502197	-0.238199	-0.717123	0.175886	-0.630920
24107		9.695591	1.154863	-0.922099	0.004471	-0.000062	-0.014030	-0.674316	-0.366211	0.507080	-0.238337	-0.717134	0.175914	-0.630848
24108		9.653138	1.223892	-0.864852	0.003506	0.003276	-0.013457	-0.671143	-0.368408	0.508301	-0.238368	-0.717133	0.175827	-0.630861
24109		9.654167	1.133044	-0.916813	-0.006408	0.002845	-0.013068	-0.664551	-0.371094	0.502441	-0.238528	-0.717108	0.175869	-0.630818
24110		9.683233	1.072885	-0.967913	-0.000387	0.006650	-0.013765	-0.669678	-0.371826	0.511475	-0.238662	-0.717075	0.175852	-0.630809
24111		9.707095	1.143562	-0.933595	0.005407	0.004087	-0.008979	-0.676514	-0.374023	0.510254	-0.238752	-0.717064	0.175905	-0.630772
24112		9.677089	1.144521	-0.912096	0.006914	0.000465	-0.009619	-0.673584	-0.372070	0.503418	-0.238822	-0.717071	0.175949	-0.630726
24113		9.673976	1.148625	-0.880063	0.007002	-0.000089	-0.007494	-0.671387	-0.368896	0.503662	-0.238808	-0.717084	0.175936	-0.630720
24114		9.684860	1.136837	-0.842480	-0.000736	0.001665	-0.009078	-0.668701	-0.364014	0.510986	-0.238849	-0.717073	0.175933	-0.630718
24115		9.705768	1.125985	-0.880472	0.005424	0.005198	-0.004200	-0.674805	-0.371582	0.505859	-0.238806	-0.717060	0.175920	-0.630753
24116		9.703382	1.154535	-0.899269	0.000266	0.004148	-0.006686	-0.672852	-0.373779	0.506348	-0.238864	-0.717017	0.175968	-0.630766
24117		9.650907	1.138937	-0.869384	-0.006098	0.001167	-0.014364	-0.675537	-0.371338	0.500977	-0.239071	-0.716995	0.176045	-0.630692
24118		9.681454	1.129990	-0.880687	-0.001930	-0.003037	-0.014024	-0.676025	-0.371094	0.509033	-0.239146	-0.717015	0.176015	-0.630648
24119		9.699028	1.079961	-0.908146	-0.000521	0.001935	-0.012621	-0.677002	-0.377441	0.504395	-0.239259	-0.717002	0.176032	-0.630616
24120		9.695186	1.123780	-0.937582	-0.001623	0.000563	-0.010912	-0.668457	-0.369385	0.503906	-0.239409	-0.716975	0.176120	-0.630565
24121		9.720915	1.124310	-0.905460	-0.007076	-0.001595	-0.011853	-0.676758	-0.371582	0.503906	-0.239531	-0.716983	0.176161	-0.630499
24122		9.671118	1.107961	-0.908532	0.007207	0.001290	-0.022272	-0.675781	-0.375244	0.503174	-0.239609	-0.717014	0.175988	-0.630481
24123		9.692944	1.130061	-0.916507	0.018968	0.002273	-0.021629	-0.674316	-0.374268	0.504395	-0.239623	-0.717066	0.175771	-0.630478
24124		9.724357	1.148933	-0.938578	0.016278	0.000091	-0.014693	-0.679199	-0.370361	0.505859	-0.239600	-0.717116	0.175643	-0.630465
24125		9.686515	1.207001	-0.925105	0.010101	0.002378	-0.008941	-0.672363	-0.374512	0.505371	-0.239533	-0.717118	0.175548	-0.630515
24126		9.650248	1.232462	-0.869969	-0.015331	0.002348	-0.014936	-0.675049	-0.375488	0.494141	-0.239818	-0.717059	0.175679	-0.630437
24127		9.628048	1.161501	-0.913342	-0.023268	-0.000636	-0.023721	-0.667480	-0.376221	0.514893	-0.240156	-0.717007	0.175714	-0.630358
24128		9.680724	1.107900	-0.962771	-0.005201	0.005284	-0.025313	-0.677002	-0.373779	0.509521	-0.240532	-0.716992	0.175762	-0.630218
24129		9.734703	1.127225	-0.960526	0.004672	0.004079	-0.029014	-0.676514	-0.371582	0.506348	-0.240740	-0.717009	0.175594	-0.630167
24130		9.711612	1.159701	-0.931320	0.011198	0.000975	-0.026393	-0.667480	-0.374023	0.510498	-0.240804	-0.717069	0.175345	-0.630143
24131		9.676159	1.216832	-0.845823	0.006979	0.003791	-0.018947	-0.665283	-0.374512	0.505859	-0.240946	-0.717090	0.175282	-0.630082
24132		9.683680	1.187215	-0.930632	-0.007164	0.005021	-0.015893	-0.665527	-0.373291	0.507568	-0.241171	-0.717054	0.175327	-0.630025
24133		9.630761	1.213501	-0.920370	0.000845	0.008557	-0.016210	-0.674805	-0.379150	0.508545	-0.241327	-0.717018	0.175289	-0.630017
24134		9.673415	1.196731	-0.915061	-0.007277	-0.009104	-0.011135	-0.675537	-0.374512	0.514160	-0.241530	-0.717056	0.175477	-0.629843
24135		9.705954	1.067519	-0.929105	-0.003635	-0.010510	-0.006079	-0.667969	-0.368408	0.507080	-0.241633	-0.717116	0.175661	-0.629684
24136		9.696035	1.092887	-0.906474	0.021112	-0.000453	-0.009203	-0.675781	-0.365723	0.510254	-0.241441	-0.717204	0.175455	-0.629714
24137		9.707655	1.151428	-0.858877	0.038078	0.007448	-0.010773	-0.673096	-0.370117	0.506104	-0.241087	-0.717277	0.175042	-0.629881
24138		9.696110	1.189479	-0.885184	0.026096	0.007239	-0.019092	-0.662354	-0.375000	0.507324	-0.240949	-0.717326	0.174694	-0.629976
24139		9.641147	1.271082	-0.906017	0.030120	0.010790	-0.026359	-0.668457	-0.374268	0.505127	-0.240954	-0.717384	0.174354	-0.630002
24140		9.645070	1.263184	-0.886026	0.028718	0.003870	-0.026175	-0.672607	-0.377441	0.503174	-0.240906	-0.717480	0.173998	-0.630009
24141		9.666808	1.263640	-0.904619	0.012211	-0.000145	-0.017388	-0.670410	-0.374756	0.509277	-0.240940	-0.717522	0.173880	-0.629980
24142		9.712215	1.218834	-0.879576	-0.008222	-0.001617	-0.002601	-0.670410	-0.364502	0.503174	-0.241053	-0.717496	0.174075	-0.629913
24143		9.734689	1.078787	-0.937784	0.003866	0.009145	0.007535	-0.674316	-0.379639	0.506836	-0.240808	-0.717421	0.174022	-0.630107
24144		9.695024	1.140052	-0.911310	0.018079	0.010153	0.006380	-0.680908	-0.374268	0.508789	-0.240680	-0.717342	0.174102	-0.630224
24145		9.629975	1.230942	-0.928090	0.029176	0.010335	0.001673	-0.670410	-0.374756	0.504395	-0.240414	-0.717306	0.173975	-0.630402
24146		9.614274	1.324987	-0.911596	0.026080	0.005610	-0.006392	-0.674072	-0.372070	0.504639	-0.240246	-0.717330	0.173824	-0.630479
24147		9.742317	1.348186	-0.936422	-0.003421	0.001647	-0.008598	-0.672607	-0.379150	0.503418	-0.240306	-0.717301	0.173851	-0.630482
24148		9.662521	1.279657	-0.917068	-0.010322	0.002787	-0.011684	-0.671631	-0.370117	0.502441	-0.240551	-0.717234	0.174004	-0.630423
24149		9.621521	1.208353	-0.869429	-0.010989	0.006638	-0.018868	-0.672852	-0.375977	0.508789	-0.240730	-0.717174	0.173937	-0.630441
24150		9.620301	1.250843	-0.929162	-0.012123	0.010549	-0.012775	-0.671631	-0.375732	0.507080	-0.241002	-0.717056	0.174053	-0.630440
24151		9.698629	1.226905	-0.944319	-0.013328	0.005601	-0.005167	-0.673096	-0.374268	0.506836	-0.241201	-0.716959	0.174247	-0.630421
24152		9.745664	1.167185	-0.907987	-0.013906	-0.001302	-0.000270	-0.666504	-0.366699	0.505371	-0.241322	-0.716905	0.174480	-0.630371
24153		9.718564	1.206775	-0.897446	-0.004261	0.007785	0.000721	-0.667480	-0.377197	0.497803	-0.241271	-0.716837	0.174504	-0.630462
24154		9.653409	1.234244	-0.840421	-0.006139	0.013584	-0.007123	-0.667480	-0.376221	0.499512	-0.241409	-0.716702	0.174568	-0.630544
24155		9.634561	1.241752	-0.913711	-0.004416	0.009685	-0.009842	-0.679443	-0.380859	0.505371	-0.241544	-0.716613	0.174602	-0.630584
24156		9.668583	1.161400	-0.923752	0.002025	0.003838	-0.007640	-0.666992	-0.382812	0.507080	-0.241657	-0.716556	0.174706	-0.630577
24157		9.683409	1.198098	-0.876590	0.006337	0.004106	-0.003541	-0.673096	-0.377441	0.505615	-0.241782	-0.716521	0.174888	-0.630518
24158		9.676615	1.244606	-0.832617	0.006862	0.000766	-0.006801	-0.669434	-0.366943	0.506836	-0.241814	-0.716521	0.174937	-0.630492
24159		9.685402	1.216749	-0.834843	0.005186	0.007145	-0.007091	-0.668945	-0.368408	0.509033	-0.241742	-0.716501	0.174823	-0.630574
24160		9.700850	1.164859	-0.869071	-0.006980	0.009441	-0.003827	-0.661133	-0.372803	0.505615	-0.241801	-0.716417	0.174871	-0.630634
24161		9.664727	1.210887	-0.906016	0.000024	0.008567	-0.004945	-0.660889	-0.371826	0.508057	-0.241869	-0.716367	0.174922	-0.630650
24162		9.670981	1.234364	-0.875732	0.003551	0.004927	-0.010079	-0.670898	-0.379150	0.500977	-0.241944	-0.716372	0.174914	-0.630618
24163		9.687382	1.215012	-0.839177	-0.009249	0.001412	-0.005490	-0.672119	-0.376221	0.509277	-0.242109	-0.716314	0.175096	-0.630570
24164		9.701262	1.198206	-0.874271	-0.015100	0.002561	-0.002510	-0.669434	-0.373535	0.506104	-0.242322	-0.716232	0.175361	-0.630507
24165		9.712214	1.251526	-0.907556	-0.010490	0.010567	-0.003324	-0.674561	-0.376465	0.499023	-0.242461	-0.716114	0.175495	-0.630551
24166		9.777559	1.451402	-0.897398	-0.019633	0.011778	0.012711	-0.669922	-0.380615	0.499268	-0.242528	-0.715903	0.175817	-0.630675
24167		9.965259	1.640847	-0.914983	-0.065491	0.038420	0.043179	-0.672607	-0.383057	0.507080	-0.242909	-0.715275	0.176779	-0.630972
24168		9.808778	1.594989	-0.771458	-0.140734	0.044431	0.080614	-0.675781	-0.368896	0.507324	-0.243784	-0.714280	0.178758	-0.631204
24169		9.837819	1.665500	-0.770482	-0.223120	0.054008	0.134501	-0.665039	-0.378662	0.498779	-0.244783	-0.712868	0.181613	-0.631600
24170		9.657492	1.663349	-1.000421	-0.271025	0.063462	0.182852	-0.671875	-0.374512	0.494629	-0.245982	-0.711111	0.185378	-0.632020
24171		9.487163	1.817488	-1.030818	-0.310024	0.060889	0.209413	-0.677246	-0.378418	0.489502	-0.247219	-0.709182	0.189600	-0.632451
24172		9.451096	1.971753	-1.001441	-0.364014	0.043863	0.220486	-0.680420	-0.372559	0.489258	-0.248840	-0.707160	0.194438	-0.632611
24173		9.485174	1.902444	-1.046150	-0.435873	0.012917	0.230466	-0.683594	-0.373047	0.478271	-0.250863	-0.705130	0.199942	-0.632363
24174		9.540118	1.677478	-1.037520	-0.518936	0.000083	0.227161	-0.687744	-0.374268	0.475098	-0.253527	-0.702920	0.206028	-0.631807
24175		9.592302	1.419237	-0.996778	-0.576620	-0.023945	0.223265	-0.692627	-0.378906	0.473145	-0.256648	-0.700687	0.212597	-0.630850
24176		9.666515	1.101574	-0.988503	-0.553519	-0.016445	0.212561	-0.683838	-0.372314	0.469238	-0.259700	-0.698447	0.218903	-0.629928
24177		9.674622	0.883554	-0.945422	-0.526703	-0.016582	0.231335	-0.681396	-0.375000	0.465332	-0.262240	-0.696264	0.225015	-0.629138
24178		9.808976	0.790500	-0.750681	-0.467671	-0.027058	0.284528	-0.686279	-0.377441	0.468506	-0.263831	-0.694183	0.231168	-0.628542
24179		9.870010	0.696972	-0.490895	-0.454064	-0.040830	0.381224	-0.688721	-0.385498	0.459229	-0.264551	-0.691935	0.238146	-0.628112
24180		10.013875	0.481193	-0.114639	-0.419198	-0.079468	0.480228	-0.700928	-0.375000	0.457764	-0.264173	-0.689737	0.245930	-0.627690
24181		9.898485	-0.114726	0.055989	-0.378512	-0.074956	0.584854	-0.700195	-0.365479	0.469727	-0.262514	-0.687267	0.254180	-0.627808
24182		10.138481	-0.233322	0.080838	-0.292319	-0.021927	0.714988	-0.701416	-0.360840	0.459473	-0.259244	-0.684238	0.262663	-0.628983
24183		10.412729	-0.228147	-0.049067	-0.280503	-0.029184	0.830558	-0.705322	-0.343994	0.459717	-0.254951	-0.680841	0.272064	-0.630425
24184		9.942793	-0.844965	-0.090393	-0.264893	-0.051164	0.870831	-0.715332	-0.339355	0.454590	-0.250034	-0.677476	0.281658	-0.631806
24185		9.892769	-1.407828	-0.343945	-0.128210	-0.056452	0.841446	-0.720215	-0.316895	0.459717	-0.244234	-0.674562	0.289992	-0.633419
24186		9.623590	-1.564863	-0.405664	0.085187	-0.056387	0.777503	-0.722656	-0.294922	0.459961	-0.237018	-0.672496	0.295992	-0.635579
24187		9.352757	-1.523314	-0.484908	0.273528	-0.075355	0.633841	-0.726807	-0.281738	0.459473	-0.229182	-0.671634	0.299256	-0.637832
24188		9.168469	-1.067978	-0.525362	0.293004	-0.064925	0.434174	-0.729736	-0.273926	0.456055	-0.222825	-0.671429	0.300669	-0.639632
24189		9.253239	-0.573826	0.035620	0.241810	-0.064760	0.213049	-0.728027	-0.265625	0.463379	-0.218705	-0.671859	0.300668	-0.640603
24190		8.934849	-0.725375	0.168735	0.042154	-0.018920	-0.001529	-0.724609	-0.261963	0.466797	-0.218147	-0.672190	0.300330	-0.640605
24191		8.854235	-0.912571	0.225969	0.030997	0.029966	-0.207663	-0.736328	-0.275391	0.470459	-0.219503	-0.672878	0.298204	-0.640412
24192		8.762400	-0.580419	-0.091122	-0.008380	0.088964	-0.388016	-0.726074	-0.274414	0.465576	-0.222952	-0.673601	0.294795	-0.640039
24193		8.974330	-0.086935	0.003677	-0.079846	0.079945	-0.553001	-0.724854	-0.292236	0.456787	-0.228229	-0.674792	0.290544	-0.638867
24194		9.938928	0.104833	0.176984	-0.212313	-0.038492	-0.737936	-0.716309	-0.297363	0.463379	-0.235710	-0.677146	0.286140	-0.635640
24195		10.051589	-0.520012	0.264132	-0.450150	-0.098094	-0.851930	-0.718750	-0.320801	0.457275	-0.245813	-0.679621	0.282770	-0.630660
24196		11.951061	-0.214074	-0.719592	-0.579478	-0.211776	-0.765277	-0.710449	-0.340820	0.460449	-0.255932	-0.682151	0.281500	-0.624441
24197		10.516858	-0.232740	-1.484845	-0.591517	-0.213837	-0.555751	-0.705566	-0.362793	0.461670	-0.264477	-0.683840	0.282078	-0.618746
24198		9.199577	-0.911934	-2.165846	-0.063954	-0.139905	-0.551514	-0.701416	-0.383057	0.463135	-0.268739	-0.686631	0.278354	-0.615497
24199		9.474300	-0.218037	-1.174769	0.268788	0.042032	-0.487724	-0.693115	-0.385254	0.473633	-0.270306	-0.688879	0.272011	-0.615134
24200		9.447313	0.634176	-0.955998	0.268121	0.054379	-0.330586	-0.694824	-0.392090	0.464111	-0.270677	-0.690492	0.266953	-0.615379
24201		9.958658	1.766039	-1.600354	-0.000341	-0.025156	-0.305731	-0.687744	-0.392578	0.463867	-0.272932	-0.691681	0.264465	-0.614121
24202		9.598022	1.608118	-2.806031	-0.098848	-0.160674	-0.325064	-0.688721	-0.400391	0.480225	-0.275720	-0.693631	0.263012	-0.611293
24203		10.090204	0.272561	-2.795383	0.053538	-0.166188	-0.165218	-0.685303	-0.403076	0.473389	-0.275928	-0.695628	0.261789	-0.609452
24204		10.248993	-0.142620	-1.958019	-0.274533	-0.098611	0.083776	-0.680420	-0.402832	0.472412	-0.277327	-0.695138	0.265016	-0.607980
24205		10.017319	-0.001361	-2.094623	-0.404705	-0.086059	0.182071	-0.684570	-0.398926	0.477539	-0.279139	-0.693766	0.270032	-0.606509
24206		9.837949	-0.681562	-1.708752	-0.203975	0.011938	0.199361	-0.683350	-0.406738	0.464600	-0.279385	-0.692282	0.273330	-0.606614
24207		9.505815	-0.899462	-1.600590	-0.095180	0.069897	0.228774	-0.684570	-0.397461	0.462646	-0.278692	-0.690618	0.275866	-0.607680
24208		9.448039	-0.313834	-1.455754	-0.014503	0.064012	0.254678	-0.689941	-0.401611	0.469727	-0.277070	-0.689184	0.278035	-0.609059
24209		9.857997	0.288490	-0.967909	0.135398	-0.007997	0.240012	-0.700684	-0.382568	0.462158	-0.274019	-0.688872	0.279175	-0.610271
24210		9.540524	-0.070340	-0.796348	0.250675	-0.058277	0.180945	-0.686523	-0.383545	0.467529	-0.270243	-0.689505	0.279129	-0.611260
24211		9.907325	-0.234679	-0.695393	0.340783	-0.017107	0.164231	-0.696289	-0.368652	0.463379	-0.265957	-0.690198	0.278073	-0.612837
24212		10.031527	-0.284585	-0.699163	0.302373	0.090095	0.230151	-0.697998	-0.360596	0.470215	-0.261867	-0.689673	0.277547	-0.615423
24213		9.652084	-0.183414	-1.608891	0.323140	0.124405	0.242117	-0.695068	-0.362549	0.469482	-0.257608	-0.688902	0.276832	-0.618398
24214		9.239281	-0.078258	-1.866887	0.405627	0.010330	0.195249	-0.709229	-0.351074	0.478027	-0.252615	-0.689428	0.275428	-0.620495
24215		10.058349	-0.143068	-1.733896	0.561313	-0.078696	0.231491	-0.708496	-0.341309	0.479980	-0.245675	-0.690972	0.273413	-0.622453
24216		10.120998	-0.259471	-1.642689	0.623299	-0.099821	0.435821	-0.706055	-0.326660	0.496826	-0.236527	-0.692116	0.272729	-0.625020
24217		9.816079	-0.109569	-1.572752	0.543143	-0.123884	0.750216	-0.715332	-0.299316	0.500732	-0.225493	-0.692079	0.275413	-0.627955
24218		9.738699	-0.800364	-0.979890	0.372567	0.020168	1.115168	-0.715820	-0.273193	0.491455	-0.213520	-0.689040	0.282150	-0.632475
24219		10.592936	-1.997922	-0.392820	0.291120	0.152935	1.484485	-0.723389	-0.248535	0.485107	-0.199744	-0.683221	0.292281	-0.638657
24220		11.326851	-2.155431	-0.138399	0.111738	0.220116	1.754639	-0.735596	-0.205078	0.483154	-0.185521	-0.675134	0.305858	-0.645157
24221		12.203695	-1.412214	0.922559	-0.271421	0.426073	1.881453	-0.740479	-0.177002	0.480469	-0.174170	-0.663643	0.322947	-0.651881
24222		11.932217	-1.597157	0.128511	-0.994890	0.631081	1.975718	-0.756592	-0.146729	0.463379	-0.168748	-0.648080	0.346013	-0.657108
24223		10.073652	-3.318375	-1.431324	-0.581098	0.755310	1.973445	-0.764160	-0.114014	0.443848	-0.160386	-0.631861	0.365127	-0.664613
24224		10.325160	-5.317241	-1.541323	0.366598	0.647227	1.844078	-0.767090	-0.066162	0.435791	-0.145014	-0.618592	0.375319	-0.674870
24225		10.199535	-4.273991	0.037521	0.582310	0.607198	1.735622	-0.783936	-0.032959	0.423096	-0.128629	-0.606179	0.382712	-0.685225
24226		9.261579	-3.091201	0.929714	0.475677	0.791834	1.630965	-0.775146	0.015869	0.406006	-0.114778	-0.592162	0.389707	-0.695916
24227		8.532400	-1.230547	1.237941	0.109616	0.906048	1.449318	-0.782227	0.048340	0.383789	-0.105711	-0.577212	0.398175	-0.705059
24228		8.933358	-2.939538	0.544002	-0.055773	0.742885	1.395351	-0.786865	0.075684	0.367432	-0.097454	-0.563507	0.407744	-0.711834
24229		9.115715	-4.642820	0.254467	0.006458	0.764873	1.355638	-0.788086	0.101562	0.346924	-0.089185	-0.549669	0.416289	-0.718758
24230		9.024361	-4.439844	0.731557	0.085028	0.797012	1.238621	-0.786621	0.125977	0.326660	-0.081563	-0.536040	0.423137	-0.725923
24231		8.731234	-3.982345	0.714387	0.131732	0.746727	1.111365	-0.791260	0.154053	0.315430	-0.074489	-0.523422	0.428624	-0.732641
24232		8.277914	-4.768757	0.764290	0.133221	0.676457	1.009432	-0.789795	0.178467	0.292725	-0.067943	-0.511860	0.433380	-0.738624
24233		7.559569	-4.744969	0.425714	0.067962	0.602605	0.946384	-0.781738	0.192871	0.287354	-0.061981	-0.501157	0.438302	-0.743567
24234		7.465784	-5.189879	0.881408	0.060806	0.535610	0.852848	-0.776611	0.222168	0.273193	-0.056555	-0.491493	0.442678	-0.747845
24235		7.076698	-5.718662	0.673541	0.139287	0.500882	0.737294	-0.778320	0.233887	0.261719	-0.051526	-0.482778	0.445571	-0.752154
24236		6.623079	-5.644839	0.746328	0.321133	0.468567	0.587667	-0.778076	0.254150	0.246826	-0.046622	-0.475261	0.445822	-0.757097
24237		6.485972	-5.722948	1.025681	0.367944	0.431661	0.415897	-0.779785	0.258789	0.239258	-0.042856	-0.469034	0.444592	-0.761911
24238		6.215999	-5.382057	1.513657	0.243053	0.285430	0.274859	-0.769775	0.262451	0.224609	-0.040352	-0.464889	0.443780	-0.765055
24239		5.800223	-5.588531	1.217157	0.089926	0.145990	0.089127	-0.768799	0.267090	0.226807	-0.039739	-0.463021	0.443414	-0.766431
24240		5.902918	-5.780165	1.558196	0.126726	0.089627	-0.050504	-0.776855	0.267822	0.218506	-0.039939	-0.462482	0.441916	-0.767610
24241		6.101436	-5.845406	2.016913	0.023060	-0.019893	-0.138818	-0.777344	0.269775	0.218506	-0.040981	-0.463428	0.440955	-0.767537
24242		5.970401	-6.285655	1.244402	-0.048821	-0.165777	-0.178862	-0.774902	0.270020	0.221924	-0.042019	-0.465955	0.440525	-0.766198
24243		6.518745	-6.634570	1.728788	0.092704	-0.244941	-0.240134	-0.776611	0.253906	0.222168	-0.042385	-0.469642	0.438421	-0.765132
24244		6.561345	-6.570496	1.917165	0.109818	-0.285437	-0.238191	-0.779785	0.249023	0.232666	-0.042409	-0.473705	0.436178	-0.763907
24245		6.780584	-6.290739	1.985049	0.130423	-0.273480	-0.281269	-0.786865	0.247803	0.235352	-0.042787	-0.477886	0.433469	-0.762823
24246		7.156873	-5.911459	1.892689	0.129915	-0.253509	-0.307125	-0.772217	0.239502	0.243164	-0.043521	-0.482003	0.430588	-0.761822
24247		7.709016	-5.339362	1.971149	0.122131	-0.318101	-0.253608	-0.779053	0.232666	0.265137	-0.043443	-0.486431	0.428127	-0.760398
24248		7.325743	-6.240693	1.753887	0.128550	-0.379954	-0.231365	-0.773926	0.231689	0.264160	-0.042782	-0.491317	0.425757	-0.758623
24249		6.815595	-6.413318	1.824781	0.099114	-0.370282	-0.254539	-0.780029	0.228516	0.263428	-0.042570	-0.496202	0.423506	-0.756713
24250		6.757104	-5.975590	1.814882	0.029051	-0.312335	-0.338988	-0.781250	0.223145	0.277832	-0.043898	-0.500932	0.421351	-0.754721
24251		6.495097	-5.339602	1.609136	0.065120	-0.235288	-0.483795	-0.784180	0.212158	0.275391	-0.046770	-0.505697	0.417890	-0.753293
24252		6.633920	-4.860981	1.490093	0.025897	-0.212936	-0.642150	-0.786377	0.204590	0.280273	-0.051494	-0.511026	0.413761	-0.751666
24253		8.287479	-5.454418	1.901700	0.000124	-0.248765	-0.728646	-0.792480	0.186035	0.285645	-0.057006	-0.517082	0.409311	-0.749561
24254		9.719450	-6.727477	1.933492	-0.002485	-0.409169	-0.436592	-0.795654	0.166504	0.300293	-0.058973	-0.523108	0.406855	-0.746559
24255		9.858019	-8.230426	1.440408	0.079911	-0.422092	-0.073779	-0.790039	0.179199	0.306641	-0.056946	-0.527447	0.405993	-0.744128
24256		7.359716	-6.818486	1.225156	0.212861	-0.389797	0.050685	-0.788574	0.181641	0.312256	-0.053049	-0.530931	0.404686	-0.742649
24257		7.187710	-4.848567	1.944881	0.321744	-0.214357	-0.332932	-0.790771	0.169434	0.310547	-0.052876	-0.534777	0.399695	-0.742604
24258		8.613436	-5.745585	0.995454	0.244148	-0.427571	-0.510973	-0.794434	0.166260	0.321045	-0.053806	-0.541411	0.394350	-0.740586
24259		10.746487	-6.303164	0.725570	0.617512	-0.464185	-0.432417	-0.788574	0.169434	0.321777	-0.051296	-0.548192	0.386067	-0.740140
24260		9.343323	-4.588488	0.682198	0.503044	-0.510872	-0.360412	-0.787354	0.162354	0.335938	-0.048673	-0.554924	0.379323	-0.738785
24261		8.085645	-3.704137	-0.124046	0.325542	-0.643517	-0.442630	-0.785400	0.159180	0.350830	-0.047407	-0.563107	0.373688	-0.735541
24262		9.221534	-4.641394	-0.124221	0.368915	-0.642404	-0.336812	-0.791748	0.155029	0.354980	-0.044862	-0.570751	0.368358	-0.732491
24263		8.731837	-3.997341	-0.398366	0.330259	-0.576083	-0.233928	-0.781494	0.145508	0.367432	-0.041952	-0.577242	0.364042	-0.729729
24264		8.411221	-4.280362	-0.935916	0.160113	-0.442641	-0.231490	-0.783203	0.139893	0.377197	-0.040853	-0.582383	0.361206	-0.727112
24265		8.298621	-4.550564	-0.583326	0.204011	-0.284827	-0.176491	-0.778320	0.138672	0.384033	-0.039648	-0.585845	0.358280	-0.725844
24266		7.966111	-4.317796	-0.280752	0.268317	-0.213287	-0.075236	-0.781494	0.152832	0.386963	-0.037373	-0.588223	0.355474	-0.725420
24267		8.026649	-4.121963	-0.206740	0.207221	-0.210245	-0.023997	-0.776123	0.149414	0.385498	-0.035093	-0.590305	0.353596	-0.724761
24268		8.308711	-4.084691	0.226635	0.118123	-0.159978	-0.000771	-0.771240	0.136475	0.390137	-0.033482	-0.591786	0.352666	-0.724082
24269		8.391849	-4.231013	0.099350	0.082055	-0.021177	0.038430	-0.777100	0.143066	0.398682	-0.032401	-0.591825	0.352291	-0.724283
24270		8.342127	-3.826340	0.078554	0.125695	0.202843	0.079534	-0.776611	0.151367	0.389160	-0.031612	-0.589666	0.351742	-0.726341
24271		8.600375	-3.836130	-0.219160	0.079312	0.306624	0.123550	-0.779297	0.154297	0.388428	-0.031216	-0.586345	0.351887	-0.728972
24272		8.855004	-4.566197	0.104162	0.008960	0.256433	0.165070	-0.782715	0.161133	0.367188	-0.030740	-0.583262	0.353001	-0.730924
24273		10.007996	-5.220580	0.249478	0.011194	0.203231	0.188667	-0.777344	0.160400	0.364746	-0.029784	-0.580556	0.354247	-0.732514
24274		10.074039	-5.364448	0.186800	-0.010169	0.112194	0.105387	-0.785156	0.168457	0.364014	-0.029348	-0.579040	0.355126	-0.733305
24275		10.226832	-5.304469	-1.112147	-0.091394	0.059954	-0.006741	-0.779785	0.159912	0.376953	-0.030293	-0.578468	0.355956	-0.733316
24276		9.325140	-5.231061	-0.569094	0.087480	0.124131	-0.019588	-0.781738	0.165527	0.361816	-0.030365	-0.577432	0.355067	-0.734559
24277		8.066600	-5.048535	0.835772	0.224247	0.104502	0.028228	-0.776855	0.170654	0.364502	-0.028912	-0.576412	0.353246	-0.736295
24278		7.473902	-4.985988	1.015634	0.359060	0.087855	0.049114	-0.782471	0.162598	0.352295	-0.026227	-0.575488	0.350362	-0.738493
24279		7.887506	-4.703753	0.837329	0.475865	0.134452	0.105991	-0.773926	0.169922	0.348877	-0.022376	-0.573916	0.346739	-0.741547
24280		8.060783	-4.060199	1.110725	0.387611	0.223181	0.187718	-0.785889	0.178955	0.346680	-0.018789	-0.571116	0.344504	-0.744843
24281		9.079051	-4.537958	1.705124	0.138312	0.179918	0.285005	-0.787842	0.191162	0.345459	-0.015888	-0.568225	0.345280	-0.746759
24282		9.767016	-5.240019	1.934936	0.080401	0.123150	0.421489	-0.783203	0.201172	0.336426	-0.011877	-0.565247	0.347576	-0.748028
24283		9.166397	-5.501379	2.071971	0.086667	0.085849	0.537791	-0.774414	0.211914	0.333984	-0.006566	-0.562090	0.350612	-0.749054
24284		7.397011	-5.451698	1.525412	0.123345	0.102310	0.510685	-0.762695	0.223145	0.327881	-0.001324	-0.558874	0.353105	-0.750317
24285		6.320067	-5.209804	1.405035	0.206449	0.081486	0.314387	-0.766357	0.228516	0.329102	0.002747	-0.556698	0.353440	-0.751771
24286		7.036755	-5.352976	1.661434	0.282648	-0.028495	0.115969	-0.763184	0.236084	0.323242	0.005967	-0.556422	0.351668	-0.752787
24287		7.269700	-4.872013	1.851045	0.320772	-0.107544	0.019327	-0.768799	0.237549	0.319580	0.008893	-0.557300	0.348850	-0.753420
24288		7.334946	-4.621484	1.827730	0.285302	-0.138173	-0.060287	-0.772705	0.240234	0.326416	0.010956	-0.558811	0.345795	-0.753682
24289		7.503155	-4.232299	1.867390	0.091622	-0.127368	-0.133217	-0.771240	0.239014	0.332520	0.010930	-0.560554	0.344058	-0.753182
24290		7.509238	-4.339276	1.358145	-0.015284	-0.298457	-0.255221	-0.768311	0.229980	0.338379	0.009743	-0.564440	0.342446	-0.751028
24291		7.903625	-4.497263	1.386852	0.113400	-0.385392	-0.395878	-0.767822	0.221924	0.345215	0.008515	-0.569709	0.338607	-0.748802
24292		8.577826	-3.986254	1.970082	0.147503	-0.369543	-0.465425	-0.769287	0.216309	0.354004	0.006812	-0.575091	0.333934	-0.746801
24293		10.132253	-4.649250	2.066440	0.124092	-0.286724	-0.320653	-0.772217	0.210205	0.350098	0.005947	-0.579073	0.330509	-0.745253
24294		9.299787	-5.051111	1.780117	-0.078713	-0.268203	-0.076792	-0.761963	0.209961	0.355957	0.005817	-0.581881	0.330709	-0.742975
24295		8.256991	-5.513550	1.529954	-0.131647	-0.170544	0.052253	-0.767578	0.205811	0.356689	0.006095	-0.583244	0.332352	-0.741169
24296		7.676361	-5.260515	1.495363	0.019402	-0.092133	0.023109	-0.768311	0.210449	0.359131	0.006881	-0.583990	0.332372	-0.740565
24297		7.640306	-4.763858	1.537755	0.088423	-0.113797	-0.089829	-0.766846	0.208496	0.376709	0.007215	-0.585395	0.330932	-0.740097
24298		8.219027	-4.575151	1.360257	0.137860	-0.191246	-0.151070	-0.772461	0.210938	0.368896	0.007655	-0.587759	0.328610	-0.739254
24299		8.597042	-4.431642	1.636042	0.062239	-0.308087	-0.127449	-0.768555	0.198730	0.378906	0.008247	-0.591105	0.327113	-0.737241
24300		8.554614	-4.882604	1.629668	-0.154209	-0.417538	-0.058227	-0.766846	0.200195	0.381104	0.008320	-0.595188	0.328104	-0.733505
24301		8.695034	-5.764785	1.153604	-0.168409	-0.530748	-0.022213	-0.753174	0.196289	0.402832	0.009088	-0.600138	0.329453	-0.728843
24302		8.609091	-5.770195	0.716682	-0.015796	-0.448000	-0.079933	-0.751465	0.200928	0.410889	0.010123	-0.604527	0.329016	-0.725392
24303		8.604526	-5.020704	1.239507	0.238925	-0.294468	-0.223623	-0.758057	0.199219	0.414062	0.011151	-0.608060	0.325193	-0.724146
24304		9.179959	-4.981703	0.645570	-0.002408	-0.496365	-0.296455	-0.747070	0.199219	0.420410	0.010511	-0.613727	0.322941	-0.720373
24305		9.901046	-5.467933	0.301514	0.024913	-0.514080	-0.301295	-0.745605	0.183594	0.428467	0.010110	-0.619533	0.320395	-0.716536
24306		9.685065	-4.926079	0.300489	0.092234	-0.523035	-0.337733	-0.740723	0.177490	0.445801	0.009935	-0.625527	0.316926	-0.712864
24307		9.649447	-4.606501	-0.201095	0.048109	-0.525967	-0.355928	-0.741699	0.173584	0.450195	0.009258	-0.631585	0.313712	-0.708943
24308		9.984285	-4.113191	0.056935	-0.197436	-0.509648	-0.342947	-0.737305	0.163086	0.457275	0.006699	-0.637436	0.312731	-0.704151
24309		10.188888	-5.120315	-0.551883	-0.418234	-0.493920	-0.386918	-0.741943	0.155029	0.482910	0.001934	-0.643293	0.313307	-0.698576
24310		9.912831	-5.236503	-1.073832	-0.260113	-0.348171	-0.493261	-0.737061	0.137939	0.483154	-0.003065	-0.648237	0.311659	-0.694728
24311		9.340062	-4.116124	-0.973806	-0.225934	-0.303763	-0.527750	-0.737793	0.126465	0.488770	-0.008259	-0.652891	0.309396	-0.691332
24312		9.359971	-4.313422	-1.136564	-0.311601	-0.366288	-0.576614	-0.733398	0.105713	0.499023	-0.014329	-0.658214	0.307456	-0.687038
24313		9.548926	-4.779683	-1.379167	-0.256570	-0.441133	-0.655961	-0.733887	0.097412	0.511230	-0.020343	-0.664430	0.304385	-0.682252
24314		9.290975	-4.246734	-1.215113	-0.082575	-0.403493	-0.736277	-0.731934	0.092041	0.514648	-0.025734	-0.670601	0.299127	-0.678347
24315		9.108264	-3.302110	-1.027262	-0.004071	-0.379241	-0.754318	-0.725830	0.066650	0.527588	-0.030705	-0.676584	0.293011	-0.674859
24316		8.779110	-2.897771	-0.953055	-0.018978	-0.399198	-0.781494	-0.726562	0.052734	0.534424	-0.035958	-0.682754	0.286768	-0.671058
24317		8.862167	-3.266969	-1.333892	-0.031227	-0.461134	-0.780688	-0.720215	0.043457	0.541260	-0.041082	-0.689350	0.280624	-0.666602
24318		9.048412	-3.355768	-1.263224	-0.045326	-0.481252	-0.780733	-0.718262	0.021729	0.551025	-0.046251	-0.696018	0.274573	-0.661838
24319		8.952369	-2.936005	-0.956999	-0.011829	-0.454446	-0.786328	-0.712158	0.010742	0.554443	-0.051262	-0.702413	0.268146	-0.657332
24320		9.102474	-2.311114	-1.202942	-0.092657	-0.439785	-0.788909	-0.709229	-0.006592	0.560791	-0.057045	-0.708555	0.262318	-0.652599
24321		9.388075	-1.903484	-1.279403	-0.095635	-0.359090	-0.793939	-0.711182	-0.026611	0.571533	-0.063154	-0.713965	0.256378	-0.648487
24322		9.663909	-1.529031	-1.376741	-0.175711	-0.313627	-0.811642	-0.702148	-0.045898	0.572266	-0.070258	-0.718916	0.250861	-0.644432
24323		9.662692	-1.650362	-1.757536	-0.283489	-0.290754	-0.810735	-0.705811	-0.059326	0.584961	-0.078387	-0.723495	0.246165	-0.640166
24324		9.394857	-1.559956	-1.932707	-0.313111	-0.249116	-0.836956	-0.694824	-0.079102	0.587646	-0.087111	-0.727700	0.241395	-0.636077
24325		9.189223	-1.389349	-2.338159	-0.342903	-0.249608	-0.893068	-0.688477	-0.103760	0.591064	-0.096538	-0.731941	0.236317	-0.631741
24326		8.900798	-1.127200	-2.399285	-0.273983	-0.299044	-0.923543	-0.688232	-0.124512	0.591309	-0.105414	-0.736634	0.230439	-0.627021
24327		8.723307	-0.620173	-2.345849	-0.336041	-0.300882	-0.940496	-0.679688	-0.140869	0.604004	-0.114973	-0.741189	0.224857	-0.621981
24328		8.902596	-0.341844	-2.080835	-0.492411	-0.263702	-0.943178	-0.677734	-0.167480	0.604004	-0.126084	-0.745106	0.220371	-0.616731
24329		8.835132	-0.365308	-2.093721	-0.635434	-0.126866	-0.923097	-0.676514	-0.198730	0.592773	-0.138726	-0.747544	0.216916	-0.612274
24330		8.432576	-0.185960	-2.261629	-0.639312	-0.036359	-0.891110	-0.666260	-0.229980	0.601807	-0.151379	-0.749054	0.213590	-0.608591
24331		8.237870	-0.144121	-1.968255	-0.456187	-0.028379	-0.940533	-0.671387	-0.237793	0.599609	-0.162705	-0.750841	0.208377	-0.605263
24332		7.965336	0.183164	-1.530252	-0.260139	0.053854	-1.016593	-0.668457	-0.258057	0.597168	-0.172919	-0.752487	0.200723	-0.602970
24333		8.553605	0.760252	-1.407379	-0.159177	0.037438	-0.979243	-0.663086	-0.284180	0.593994	-0.181831	-0.754260	0.192659	-0.600759
24334		8.923394	0.619512	-2.131790	-0.107794	-0.050915	-0.750756	-0.652832	-0.296875	0.598877	-0.188331	-0.756164	0.186566	-0.598281
24335		9.450904	1.014043	-1.911730	-0.127825	-0.134984	-0.342436	-0.650635	-0.311035	0.591309	-0.191749	-0.757659	0.184656	-0.595892
24336		9.775663	-0.113179	-2.292809	-0.317560	-0.049924	0.150026	-0.647949	-0.312988	0.591309	-0.193519	-0.756902	0.188652	-0.595029
24337		9.733350	-1.189776	-2.059702	-0.376323	-0.108945	0.541093	-0.655273	-0.304688	0.600342	-0.192784	-0.755486	0.196918	-0.594389
24338		9.268091	-1.560097	-2.789712	-0.182598	-0.074907	0.640558	-0.651123	-0.302979	0.594482	-0.189524	-0.753994	0.204560	-0.594752
24339		9.335518	-1.394658	-3.369033	0.037700	0.005951	0.518664	-0.654297	-0.287598	0.597412	-0.185312	-0.752682	0.209248	-0.596108
24340		9.371727	-1.058017	-2.708898	0.434045	-0.082386	0.351957	-0.658447	-0.274414	0.604248	-0.178353	-0.753355	0.209593	-0.597259
24341		10.044893	0.080725	-2.403468	0.600079	-0.072363	0.146269	-0.654785	-0.270508	0.602539	-0.171377	-0.754821	0.206726	-0.598448
24342		9.788198	0.569938	-2.427635	0.442240	0.019682	0.048872	-0.658447	-0.262695	0.602783	-0.166878	-0.755468	0.203951	-0.599854
24343		9.506533	0.821062	-1.901968	0.398555	-0.031259	0.029922	-0.648682	-0.257812	0.605957	-0.162804	-0.756432	0.201428	-0.600611
24344		9.502617	0.713873	-1.925940	0.346810	-0.069367	0.056066	-0.654297	-0.251465	0.613525	-0.158899	-0.757502	0.199581	-0.600924
24345		9.608027	-0.156871	-2.532390	0.243576	-0.046098	0.110456	-0.661621	-0.238525	0.618164	-0.155639	-0.758038	0.198997	-0.601295
24346		9.269491	-0.148423	-2.477022	0.384244	0.007795	0.133117	-0.655029	-0.234619	0.615479	-0.150986	-0.758379	0.197438	-0.602564
24347		9.089440	0.102750	-1.839767	0.505949	-0.024510	0.191605	-0.658936	-0.222412	0.620850	-0.144670	-0.759016	0.195590	-0.603912
24348		9.135883	-0.536884	-2.291736	0.258624	0.056090	0.305445	-0.663086	-0.210693	0.616943	-0.140028	-0.758294	0.196529	-0.605606
24349		9.061097	-1.148914	-2.681343	0.415826	0.146402	0.401775	-0.666748	-0.198486	0.617920	-0.133383	-0.756895	0.197026	-0.608687
24350		8.665206	-1.461485	-2.423314	0.648043	0.060820	0.485556	-0.666016	-0.183350	0.617920	-0.123682	-0.756267	0.196680	-0.611620
24351		8.347906	-0.660691	-2.641575	0.606035	-0.041814	0.593696	-0.657959	-0.152588	0.616211	-0.113296	-0.756008	0.197830	-0.613579
24352		8.679793	-0.341240	-2.311031	0.697072	0.257775	0.686342	-0.675049	-0.145508	0.615723	-0.102043	-0.753254	0.198681	-0.618645
24353		9.085730	-0.610501	-1.919649	0.444685	0.386447	0.829971	-0.680420	-0.118896	0.609863	-0.092361	-0.748704	0.202642	-0.624378
24354		8.878874	-0.633927	-1.367123	0.178387	0.334463	0.891965	-0.687012	-0.104004	0.602295	-0.084541	-0.743978	0.209287	-0.628926
24355		8.431166	0.457126	-0.910169	-0.057424	0.392057	0.994209	-0.689941	-0.073486	0.597656	-0.078248	-0.738161	0.218639	-0.633398
24356		8.159045	-1.134670	-2.434660	-0.273554	0.390873	0.988043	-0.692139	-0.065918	0.595703	-0.073979	-0.732022	0.229598	-0.637146
24357		9.312944	-2.237825	-1.430793	-0.115851	0.256825	0.854829	-0.694580	-0.043213	0.588867	-0.068933	-0.727363	0.238171	-0.639895
24358		9.854001	-2.869862	-2.196411	0.184075	0.373884	0.761091	-0.708008	-0.033447	0.586182	-0.062249	-0.722215	0.243362	-0.644442
24359		8.959019	-2.498425	-1.542741	0.450642	0.425564	0.816420	-0.709229	-0.009277	0.572998	-0.052863	-0.716586	0.246833	-0.650217
24360		7.983996	-1.169046	-0.627912	0.215424	0.178142	0.850606	-0.706543	0.007812	0.568604	-0.044534	-0.712603	0.252651	-0.652979
24361		9.513082	-2.907631	-1.929467	-0.145147	0.108308	0.720485	-0.710205	0.025879	0.566650	-0.040254	-0.709323	0.260261	-0.653838
24362		10.682056	-3.676641	-2.599048	0.138671	0.183275	0.595373	-0.710449	0.036133	0.566406	-0.034718	-0.705927	0.264383	-0.656173
24363		8.456262	-1.830176	-0.976149	0.514886	0.184045	0.666467	-0.710938	0.051270	0.561279	-0.025282	-0.702388	0.266029	-0.659727
24364		7.890567	-2.281307	-0.321365	0.026480	0.013695	0.753693	-0.715088	0.062256	0.565918	-0.018846	-0.699738	0.272492	-0.660121
24365		12.630966	-5.756431	-2.369290	-0.352923	0.048699	0.397725	-0.704590	0.070312	0.566406	-0.018786	-0.697875	0.278944	-0.659399
24366		11.976219	-4.940615	-2.795970	0.571846	0.179941	0.309907	-0.717773	0.082031	0.563477	-0.011837	-0.695413	0.276972	-0.662984
24367		7.516901	-1.452295	-0.277238	0.616765	0.107028	0.363727	-0.709717	0.098633	0.554932	-0.003800	-0.693321	0.275081	-0.666050
24368		8.241384	-2.027552	-0.203529	-0.033304	0.003275	0.456401	-0.709473	0.105469	0.548096	-0.000266	-0.691703	0.279391	-0.665949
24369		10.764810	-5.863158	-1.635264	-0.034857	0.047415	0.347832	-0.702393	0.113525	0.552979	0.002198	-0.690079	0.282751	-0.666212
24370		11.502110	-5.344464	-1.767114	0.316310	0.132458	0.138998	-0.703857	0.126465	0.546387	0.005651	-0.688460	0.281402	-0.668433
24371		8.586583	-3.181737	-0.551070	0.470325	0.091389	0.154431	-0.705811	0.129150	0.542236	0.010708	-0.687097	0.278883	-0.670826
24372		7.481479	-2.594259	-0.323279	0.290209	0.052332	0.211900	-0.714111	0.141357	0.543213	0.014830	-0.685865	0.278350	-0.672228
24373		8.746273	-4.072701	-1.401765	0.077888	-0.008812	0.242269	-0.703613	0.137939	0.542969	0.017605	-0.685070	0.279835	-0.672355
24374		9.949057	-5.096737	-1.667350	0.094421	0.020650	0.168278	-0.700195	0.149658	0.537109	0.019785	-0.684278	0.280571	-0.672794
24375		9.233679	-4.146171	-1.353411	0.265101	0.128051	0.144501	-0.699707	0.150879	0.541992	0.022857	-0.682614	0.279685	-0.674753
24376		7.792363	-3.020116	-0.037760	0.262718	0.168960	0.172683	-0.706543	0.160889	0.537598	0.025994	-0.680496	0.279087	-0.677023
24377		8.487476	-3.981122	-0.874979	0.082684	0.177675	0.224060	-0.708984	0.162354	0.526611	0.028008	-0.678172	0.280432	-0.678716
24378		9.657260	-4.907727	-1.178338	0.130381	0.217051	0.172470	-0.709961	0.172852	0.520508	0.029851	-0.675668	0.280928	-0.680927
24379		8.797035	-3.999903	-0.555773	0.277638	0.249334	0.188811	-0.718262	0.180420	0.520996	0.032968	-0.672761	0.280314	-0.683907
24380		7.894830	-3.317872	0.067313	0.257686	0.199371	0.187598	-0.710449	0.177979	0.508057	0.036079	-0.670278	0.279836	-0.686380
24381		8.888933	-4.019642	-0.731221	0.177381	0.196580	0.178430	-0.717041	0.189209	0.515137	0.038441	-0.667876	0.279962	-0.688539
24382		8.774955	-3.882168	-0.642108	0.245866	0.249367	0.270637	-0.711670	0.197998	0.507568	0.041984	-0.664648	0.280303	-0.691311
24383		8.867615	-3.771569	-0.212224	0.077975	0.271450	0.344471	-0.717041	0.209961	0.502441	0.044691	-0.661038	0.282715	-0.693616
24384		10.219950	-4.171734	-0.916437	-0.090221	0.249169	0.304622	-0.720459	0.205078	0.488770	0.045746	-0.657837	0.286224	-0.695150
24385		10.906698	-4.643248	-1.140386	-0.236786	0.143735	0.296296	-0.712402	0.208252	0.490723	0.045896	-0.655650	0.290845	-0.695288
24386		10.256462	-4.918873	-0.435830	-0.301252	0.049750	0.218540	-0.716309	0.220947	0.497559	0.045180	-0.654586	0.295347	-0.694439
24387		9.825502	-5.126450	-0.205651	-0.293680	0.046047	0.055865	-0.708008	0.212158	0.493408	0.043136	-0.654136	0.298446	-0.693668
24388		9.693145	-5.311097	-0.342426	-0.183523	0.046959	-0.059019	-0.714844	0.203125	0.491455	0.040987	-0.654042	0.299647	-0.693369
24389		8.370702	-4.499704	0.127105	-0.053082	0.091479	-0.044048	-0.714355	0.208984	0.488525	0.039864	-0.653438	0.299850	-0.693916
24390		7.385412	-3.851329	0.472292	-0.088551	0.219504	0.014243	-0.725342	0.202637	0.488525	0.038482	-0.651517	0.300900	-0.695344
24391		7.383947	-4.575306	-0.001184	-0.202203	0.238306	0.063264	-0.722656	0.202393	0.488037	0.036526	-0.649296	0.303339	-0.696466
24392		7.590859	-4.791999	-0.255016	-0.117120	0.252791	0.123082	-0.720215	0.208740	0.483643	0.035725	-0.646673	0.305534	-0.697988
24393		7.470083	-4.732187	0.392248	-0.112085	0.201669	0.174255	-0.721680	0.204834	0.480225	0.035607	-0.644287	0.308076	-0.699082
24394		8.119485	-5.227610	0.068363	-0.219672	0.033352	0.144910	-0.723145	0.215576	0.480225	0.035013	-0.643525	0.311242	-0.698411
24395		8.757933	-5.436183	0.051049	-0.215261	-0.080056	0.112023	-0.728271	0.204346	0.487305	0.034611	-0.643870	0.314052	-0.696854
24396		8.752515	-5.607716	0.589002	-0.172170	-0.125004	0.138555	-0.719238	0.212891	0.495605	0.034959	-0.644478	0.316678	-0.695084
24397		8.365038	-4.865855	0.813044	-0.099875	-0.049726	0.112561	-0.717041	0.210205	0.491455	0.035366	-0.644495	0.318507	-0.694211
24398		8.297088	-5.082978	0.484771	-0.142411	-0.023647	0.024372	-0.709229	0.214844	0.493652	0.034562	-0.644654	0.319997	-0.693418
24399		8.528603	-5.168173	0.251535	-0.084281	-0.062500	-0.059704	-0.714600	0.206299	0.494141	0.033655	-0.645457	0.320292	-0.692579
24400		8.566378	-4.735905	0.851332	0.038150	-0.033554	-0.082900	-0.709717	0.206055	0.499023	0.033417	-0.646051	0.319344	-0.692474
24401		8.430836	-5.043560	0.604780	-0.062622	-0.075490	-0.101431	-0.713379	0.199463	0.497803	0.032373	-0.647121	0.319104	-0.691634
24402		8.474402	-5.133545	0.224225	0.004054	-0.110143	-0.189002	-0.714844	0.192627	0.500244	0.031250	-0.648810	0.317557	-0.690815
24403		8.951590	-5.413982	0.100962	0.078878	-0.098827	-0.290318	-0.716309	0.203369	0.506836	0.029813	-0.650767	0.314544	-0.690417
24404		9.811580	-5.169841	-0.107494	0.142889	-0.143833	-0.353151	-0.728027	0.192627	0.512207	0.028535	-0.653320	0.310446	-0.689915
24405		9.471468	-4.582706	-0.262696	0.139436	-0.222788	-0.363860	-0.729980	0.187012	0.502441	0.027439	-0.656579	0.306250	-0.688739
24406		9.025510	-4.124192	-0.523923	0.033371	-0.359839	-0.371691	-0.724854	0.177734	0.515381	0.025933	-0.661061	0.302833	-0.686016
24407		9.269613	-4.277859	-0.931071	0.064765	-0.288653	-0.381936	-0.717529	0.169189	0.513184	0.024324	-0.664936	0.299080	-0.683973
24408		9.064590	-4.179714	-0.950401	0.000618	-0.226670	-0.357260	-0.716553	0.165039	0.521973	0.022161	-0.668188	0.296087	-0.682177
24409		9.677212	-3.948430	-1.073035	-0.192727	-0.207340	-0.308968	-0.719971	0.150635	0.528564	0.018722	-0.671132	0.295148	-0.679793
24410		10.103792	-3.982756	-1.508000	-0.244981	-0.147994	-0.314858	-0.717529	0.149414	0.528809	0.014573	-0.673588	0.294607	-0.677697
24411		10.481830	-3.794099	-1.595993	-0.323779	-0.125345	-0.359003	-0.716309	0.136230	0.534668	0.009306	-0.676008	0.294352	-0.675488
24412		10.733933	-4.091840	-1.456490	-0.403574	-0.154458	-0.381658	-0.722412	0.126953	0.539062	0.003279	-0.678736	0.294564	-0.672710
24413		10.760887	-3.845095	-1.497629	-0.394354	-0.095886	-0.479352	-0.714111	0.117432	0.544922	-0.003706	-0.681294	0.293849	-0.670431
24414		10.698609	-3.387428	-1.288714	-0.415922	0.024503	-0.544896	-0.722900	0.091797	0.536865	-0.011865	-0.683037	0.292739	-0.669046
24415		10.449637	-3.003374	-1.382626	-0.483529	0.112398	-0.595828	-0.722412	0.078369	0.543457	-0.021350	-0.684166	0.291704	-0.668109
24416		10.310174	-2.942698	-1.597709	-0.545569	0.118094	-0.638803	-0.720459	0.064453	0.535889	-0.031744	-0.685319	0.290800	-0.666908
24417		9.982672	-2.572360	-1.621036	-0.627935	0.101875	-0.717665	-0.729980	0.033691	0.540771	-0.043433	-0.686773	0.289867	-0.665157
24418		9.443354	-2.456840	-1.729398	-0.693495	0.050553	-0.785124	-0.733154	0.015869	0.541504	-0.056061	-0.688757	0.288885	-0.662583
24419		8.917407	-2.505621	-1.845227	-0.718434	-0.043420	-0.811855	-0.732910	-0.011963	0.543945	-0.068772	-0.691476	0.287892	-0.658977
24420		8.258138	-2.539821	-1.984145	-0.670445	-0.138371	-0.842403	-0.738770	-0.035889	0.539551	-0.080969	-0.695002	0.286272	-0.654572
24421		8.397870	-2.709259	-2.008082	-0.573791	-0.255616	-0.878941	-0.728027	-0.062500	0.552246	-0.092191	-0.699585	0.283593	-0.649351
24422		8.856075	-2.674554	-1.586076	-0.419289	-0.280691	-0.858696	-0.726074	-0.086182	0.547607	-0.101797	-0.704365	0.279844	-0.644356
24423		9.223712	-1.798864	-1.269443	-0.386625	-0.222142	-0.886986	-0.717041	-0.107666	0.558838	-0.111535	-0.708701	0.275452	-0.639867
24424		9.202622	-1.342051	-1.035466	-0.477919	-0.158023	-0.934811	-0.718750	-0.128662	0.561768	-0.122666	-0.712450	0.271248	-0.635447
24425		8.745697	-0.996781	-1.350818	-0.526264	-0.117749	-0.895543	-0.712891	-0.161377	0.567139	-0.134028	-0.715546	0.267662	-0.631179
24426		8.446355	-0.997921	-1.331687	-0.586089	-0.160314	-0.826551	-0.716309	-0.180664	0.560059	-0.145221	-0.718532	0.265196	-0.626333
24427		8.301178	-1.093446	-1.953665	-0.641360	-0.244970	-0.813710	-0.718018	-0.203369	0.562744	-0.156497	-0.721911	0.263380	-0.620471
24428		8.421724	-1.039493	-1.715209	-0.644830	-0.244806	-0.829691	-0.702881	-0.226074	0.568359	-0.167892	-0.725210	0.261394	-0.614456
24429		8.170899	-0.879228	-1.728823	-0.519169	-0.242303	-0.763127	-0.692383	-0.243408	0.572510	-0.177606	-0.728425	0.258985	-0.608917
24430		8.599729	-0.923066	-1.921675	-0.472286	-0.214117	-0.706526	-0.684082	-0.265137	0.565186	-0.186518	-0.731256	0.256624	-0.603838
24431		9.116489	-0.235904	-1.596415	-0.398984	-0.203615	-0.706092	-0.680176	-0.284180	0.577148	-0.194789	-0.734085	0.253685	-0.599016
24432		8.678462	-0.667183	-1.878018	-0.385080	-0.163078	-0.712746	-0.677979	-0.302246	0.576660	-0.203076	-0.736593	0.250438	-0.594535
24433		8.468766	-0.488722	-1.717879	-0.236615	-0.179585	-0.673980	-0.661865	-0.324463	0.568604	-0.209642	-0.739406	0.246469	-0.590408
24434		8.521976	-0.836490	-2.116024	-0.100565	-0.204043	-0.599345	-0.655518	-0.335449	0.582275	-0.214338	-0.742460	0.242268	-0.586617
24435		9.688235	-0.866874	-1.997083	0.101687	-0.194555	-0.484054	-0.650391	-0.326904	0.581055	-0.216310	-0.745604	0.237597	-0.583809
24436		9.955486	-1.075497	-2.189837	0.254260	-0.093122	-0.304151	-0.652100	-0.332031	0.591064	-0.215819	-0.747868	0.233181	-0.582874
24437		9.909736	0.117950	-1.753261	0.397817	0.027153	-0.097924	-0.651123	-0.326660	0.591309	-0.212828	-0.749022	0.229321	-0.584022
24438		9.466889	0.210128	-2.327655	0.003483	0.038325	0.075261	-0.657227	-0.334717	0.582275	-0.212296	-0.748537	0.229931	-0.584597
24439		9.786819	-0.214453	-2.535147	-0.061360	0.059830	0.145963	-0.658447	-0.335205	0.590088	-0.211949	-0.747505	0.231662	-0.585361
24440		9.677384	-0.150988	-2.241198	0.167157	0.058712	0.120301	-0.650635	-0.325928	0.593262	-0.209640	-0.747159	0.231472	-0.586707
24441		9.455892	0.288509	-2.788656	0.351286	0.118748	-0.020639	-0.651855	-0.327881	0.585693	-0.206799	-0.747259	0.228436	-0.588774
24442		9.610121	1.401716	-2.242939	0.267365	0.095102	-0.103649	-0.659180	-0.323486	0.578369	-0.205309	-0.747530	0.225335	-0.590145
24443		9.755533	1.359521	-1.886775	0.131555	0.003568	-0.121397	-0.652588	-0.322754	0.581787	-0.204967	-0.748168	0.223310	-0.590226
24444		9.081340	0.692057	-2.037034	0.054931	-0.000345	-0.049266	-0.652832	-0.327881	0.586426	-0.204792	-0.748437	0.222523	-0.590242
24445		9.236910	0.889737	-2.361984	0.045480	0.007170	-0.010212	-0.657959	-0.327637	0.590332	-0.204444	-0.748516	0.222158	-0.590400
24446		9.638686	0.375826	-2.402167	-0.034209	0.009347	0.020509	-0.653809	-0.324219	0.587891	-0.204617	-0.748292	0.222657	-0.590436
24447		9.490224	0.545376	-2.149045	0.043763	-0.068797	0.006999	-0.656006	-0.322998	0.584717	-0.203937	-0.748883	0.222648	-0.589925
24448		9.380427	0.515796	-2.097224	0.080723	-0.025531	0.005199	-0.658936	-0.320312	0.583496	-0.203052	-0.749251	0.222247	-0.589915
24449		9.693274	0.712944	-2.023773	0.089071	0.012973	0.061239	-0.664062	-0.310303	0.589355	-0.201782	-0.749198	0.222211	-0.590430
24450		9.523512	0.527802	-1.819489	0.010027	0.002416	0.099829	-0.661377	-0.309570	0.591553	-0.200916	-0.748925	0.223118	-0.590731
24451		9.354858	0.040318	-2.327898	0.004386	0.009045	0.123949	-0.664551	-0.317871	0.598145	-0.199941	-0.748520	0.224273	-0.591137
24452		9.469917	0.162936	-2.279249	0.106396	0.033523	0.152524	-0.656494	-0.308105	0.593506	-0.197882	-0.748100	0.224896	-0.592123
24453		9.729733	0.259312	-1.979718	0.139802	0.060380	0.189470	-0.664062	-0.305908	0.589844	-0.195304	-0.747458	0.225542	-0.593544
24454		9.397950	0.030624	-2.349124	0.035938	0.122844	0.248929	-0.665527	-0.296631	0.581787	-0.193441	-0.745918	0.227374	-0.595389
24455		9.626555	-0.224363	-2.315820	-0.083582	0.172169	0.333287	-0.671387	-0.294434	0.585205	-0.192201	-0.743468	0.230757	-0.597549
24456		9.295255	-0.811804	-2.752596	-0.094849	0.169154	0.459475	-0.679199	-0.291016	0.586914	-0.190103	-0.740629	0.235393	-0.599933
24457		8.370719	-0.971847	-1.604577	0.394223	0.041116	0.583748	-0.678955	-0.266113	0.582031	-0.182158	-0.739503	0.237806	-0.602828
24458		8.705360	0.653417	-0.811377	1.037704	-0.073759	0.515787	-0.678467	-0.247070	0.591553	-0.168397	-0.740806	0.234957	-0.606337
24459		8.725544	-0.838978	-2.456945	0.466256	0.132051	0.509646	-0.685303	-0.228516	0.589111	-0.160562	-0.739254	0.235920	-0.609971
24460		9.561861	-0.196890	-1.537602	0.383797	0.175853	0.522131	-0.688477	-0.213867	0.583984	-0.153510	-0.737111	0.237523	-0.613747
24461		9.351120	-0.479778	-2.288390	0.563531	0.074077	0.587713	-0.691406	-0.198242	0.580078	-0.143987	-0.735832	0.238529	-0.617190
24462		8.887233	-0.244453	-1.653106	0.343213	0.198907	0.661055	-0.694580	-0.180176	0.584229	-0.136298	-0.732896	0.241676	-0.621192
24463		8.621469	0.366720	-0.996822	-0.062315	0.296378	0.762959	-0.705078	-0.163574	0.577637	-0.131799	-0.728138	0.248698	-0.624975
24464		8.381625	-1.266613	-0.797887	-0.139728	0.143596	0.749710	-0.702393	-0.158936	0.572266	-0.127612	-0.724415	0.256419	-0.627046
24465		9.418606	-2.208827	-2.722634	0.026438	0.014384	0.715018	-0.703369	-0.141357	0.572021	-0.121783	-0.722014	0.262723	-0.628365
24466		8.821356	-2.570982	-2.762495	0.431066	-0.022645	0.594635	-0.710205	-0.118896	0.569580	-0.113104	-0.720858	0.264787	-0.630443
24467		8.330857	-1.622166	-1.333519	0.579271	-0.094548	0.672751	-0.708984	-0.095215	0.576660	-0.102218	-0.720143	0.266460	-0.632412
24468		9.267331	-2.316038	-1.567203	0.368990	-0.065722	0.815486	-0.708252	-0.075439	0.582520	-0.092165	-0.718371	0.270994	-0.634043
24469		10.191422	-2.177073	-1.412322	0.128076	0.115863	0.689489	-0.707764	-0.057617	0.583496	-0.085873	-0.715240	0.276065	-0.636275
24470		10.324408	-2.712287	-2.364502	0.087089	0.179839	0.503041	-0.708984	-0.049561	0.575195	-0.081629	-0.712160	0.279694	-0.638698
24471		10.015903	-2.946549	-1.642519	0.367331	0.107409	0.404119	-0.709473	-0.047363	0.575928	-0.075438	-0.710251	0.280280	-0.641323
24472		9.028949	-2.736774	-1.833405	0.591247	0.083359	0.474927	-0.705078	-0.020020	0.570068	-0.066624	-0.708443	0.279726	-0.644533
24473		8.459490	-2.177733	-1.067097	0.405761	0.283584	0.525333	-0.715820	-0.014893	0.573975	-0.059731	-0.704629	0.280916	-0.648858
24474		9.887383	-2.413638	-1.708465	0.117896	0.313583	0.451515	-0.717041	0.000244	0.555908	-0.056093	-0.700567	0.283767	-0.652332
24475		9.897909	-2.672362	-1.479840	0.238663	0.241354	0.382409	-0.720459	0.023193	0.558838	-0.051706	-0.697384	0.285065	-0.655531
24476		8.642936	-2.378557	-1.281475	-0.027881	-0.066773	0.389793	-0.727295	0.016602	0.565674	-0.048451	-0.696515	0.288776	-0.655078
24477		9.868125	-3.505468	-2.137624	-0.083880	-0.071438	0.321767	-0.722656	0.021240	0.565186	-0.046252	-0.695875	0.292371	-0.654322
24478		9.838208	-3.334903	-2.244798	0.319303	0.055963	0.348250	-0.723145	0.034424	0.561279	-0.040794	-0.694310	0.292821	-0.656144
24479		8.910947	-2.430984	-1.052246	0.485667	0.094654	0.357633	-0.719971	0.046387	0.553467	-0.033955	-0.692444	0.291953	-0.658887
24480		9.219056	-3.131636	-1.366531	0.110790	-0.011466	0.343703	-0.715332	0.062988	0.551270	-0.030091	-0.691315	0.294085	-0.659312
24481		10.017604	-4.237353	-2.073730	0.008991	0.016528	0.249020	-0.719238	0.064453	0.554199	-0.027978	-0.690255	0.296216	-0.659561
24482		9.074836	-3.307996	-1.446120	0.305533	0.057613	0.281819	-0.718262	0.075439	0.563232	-0.023194	-0.688826	0.296170	-0.661260
24483		9.066644	-3.510043	-1.021519	0.254020	-0.016111	0.288998	-0.718506	0.078125	0.553711	-0.018515	-0.687952	0.296627	-0.662111
24484		10.262981	-4.417222	-1.777106	0.189225	-0.081427	0.175945	-0.723633	0.093506	0.550781	-0.015097	-0.688005	0.296660	-0.662128
24485		9.952997	-3.806963	-1.470864	0.442970	-0.029287	0.162991	-0.714111	0.089600	0.554199	-0.009790	-0.687704	0.294455	-0.663523
24486		8.763461	-2.318187	-0.304073	0.341479	-0.056402	0.194889	-0.710449	0.098633	0.560547	-0.005002	-0.687481	0.293374	-0.664286
24487		9.615839	-3.767146	-1.226595	0.048084	0.006675	0.173651	-0.713135	0.106689	0.554688	-0.003140	-0.686787	0.294537	-0.664501
24488		10.224799	-4.671889	-1.636240	0.293954	0.105474	0.118131	-0.711182	0.108154	0.554199	0.000012	-0.685475	0.293166	-0.666466
24489		8.918401	-3.345733	-1.037999	0.400426	0.117149	0.136140	-0.709717	0.123291	0.544922	0.004179	-0.683986	0.291061	-0.668902
24490		7.855269	-3.074206	-0.776980	0.198120	-0.042049	0.138273	-0.710938	0.129883	0.544189	0.007220	-0.683815	0.290645	-0.669231
24491		8.738095	-4.248794	-1.328360	0.087929	-0.139489	0.090411	-0.713867	0.127686	0.545898	0.009274	-0.684637	0.290727	-0.668329
24492		9.202334	-4.327557	-0.986215	0.247762	0.051739	0.124765	-0.702393	0.137451	0.548340	0.012282	-0.683712	0.289787	-0.669634
24493		8.456449	-3.707175	-0.200634	0.229154	0.114538	0.164507	-0.718750	0.141113	0.548584	0.015240	-0.682114	0.289358	-0.671387
24494		9.218315	-3.997168	-1.018162	0.102064	0.158073	0.120590	-0.710938	0.144043	0.540771	0.016585	-0.680323	0.289619	-0.673058
24495		9.364766	-3.771969	-1.144856	0.161048	0.142705	0.149535	-0.712402	0.157227	0.538574	0.018731	-0.678539	0.289625	-0.674797
24496		8.808285	-3.546574	-0.687537	0.126473	0.119454	0.162450	-0.713623	0.153320	0.534424	0.020782	-0.676905	0.290022	-0.676206
24497		9.359841	-4.378763	-1.146040	0.039362	0.089171	0.125548	-0.720459	0.162842	0.534424	0.021888	-0.675680	0.290832	-0.677047
24498		9.420467	-4.601204	-1.159890	0.153069	0.107206	0.123882	-0.704102	0.166748	0.527832	0.023879	-0.674273	0.290667	-0.678453
24499		9.141627	-4.082053	-0.567495	0.111200	0.106671	0.111856	-0.712402	0.161865	0.524902	0.025416	-0.672923	0.290760	-0.679697
24500		9.769848	-4.134690	-0.875981	0.006756	0.125766	0.075932	-0.708740	0.164795	0.525146	0.025695	-0.671571	0.291439	-0.680731
24501		9.590315	-4.156334	-0.980056	0.075833	0.236514	0.082528	-0.718262	0.167969	0.525391	0.026208	-0.669227	0.291620	-0.682939
24502		8.638160	-3.894995	-0.306912	-0.013716	0.239844	0.071902	-0.717041	0.168213	0.519287	0.025868	-0.666916	0.292474	-0.684845
