// Start Time: Unknown
// Update Rate: 40.0Hz
// Filter Profile: human (46.1)
// Firmware Version: 4.6.0
PacketCounter	SampleTimeFine	Acc_X	Acc_Y	Acc_Z	Gyr_X	Gyr_Y	Gyr_Z	Mag_X	Mag_Y	Mag_Z	Quat_q0	Quat_q1	Quat_q2	Quat_q3
23592		9.712261	-0.532833	-1.131802	0.006502	0.003186	-0.004474	-0.670166	0.280518	-0.337646	0.644652	-0.222644	-0.712910	-0.163133
23593		9.717580	-0.521758	-1.163781	0.003998	0.007891	-0.006133	-0.670166	0.282715	-0.334961	0.644721	-0.222542	-0.712872	-0.163169
23594		9.717504	-0.505213	-1.143434	0.008587	0.005240	-0.008496	-0.675537	0.283203	-0.336914	0.644772	-0.222390	-0.712872	-0.163175
23595		9.695232	-0.469679	-1.124254	0.005958	0.002444	-0.004330	-0.662109	0.288330	-0.349854	0.644801	-0.222298	-0.712877	-0.163164
23596		9.717423	-0.488116	-1.123267	0.005121	0.000912	-0.003485	-0.668213	0.279053	-0.332764	0.644814	-0.222220	-0.712891	-0.163153
23597		9.701764	-0.471731	-1.146059	0.000219	0.003431	-0.000329	-0.667480	0.282715	-0.331543	0.644843	-0.222202	-0.712867	-0.163171
23598		9.713565	-0.547746	-1.159623	0.001861	0.009974	-0.002905	-0.667725	0.281250	-0.332031	0.644926	-0.222130	-0.712804	-0.163218
23599		9.700450	-0.536558	-1.124935	0.008681	0.008309	-0.006121	-0.665527	0.283936	-0.336670	0.645003	-0.221981	-0.712779	-0.163221
23600		9.713883	-0.498950	-1.070313	0.005365	0.005841	-0.004979	-0.658447	0.279541	-0.336914	0.645052	-0.221876	-0.712764	-0.163236
23601		9.706199	-0.518705	-1.139412	0.003817	0.003135	-0.005992	-0.670410	0.281738	-0.338135	0.645077	-0.221775	-0.712765	-0.163271
23602		9.707058	-0.521164	-1.125442	0.002711	0.002312	-0.005612	-0.667969	0.282471	-0.338623	0.645089	-0.221687	-0.712772	-0.163311
23603		9.700569	-0.527655	-1.133515	0.002429	0.005840	-0.007056	-0.667236	0.283203	-0.340088	0.645128	-0.221583	-0.712755	-0.163373
23604		9.741748	-0.508133	-1.114718	0.010504	0.006090	-0.008555	-0.666992	0.283447	-0.340576	0.645188	-0.221404	-0.712757	-0.163373
23605		9.714567	-0.502726	-1.096760	0.008620	0.001756	-0.007607	-0.674316	0.280273	-0.333496	0.645207	-0.221255	-0.712787	-0.163371
23606		9.707275	-0.505222	-1.119090	0.007361	-0.002319	-0.008248	-0.664062	0.282471	-0.341309	0.645179	-0.221114	-0.712853	-0.163381
23607		9.699784	-0.481748	-1.091444	0.005300	-0.002872	-0.005391	-0.667236	0.273193	-0.338135	0.645159	-0.221021	-0.712900	-0.163379
23608		9.686402	-0.496892	-1.110196	0.006529	-0.002454	-0.002511	-0.668213	0.281738	-0.339600	0.645150	-0.220921	-0.712944	-0.163355
23609		9.707632	-0.517370	-1.139485	0.003551	-0.003294	-0.003329	-0.661621	0.281982	-0.347412	0.645125	-0.220854	-0.712987	-0.163359
23610		9.735902	-0.518191	-1.127428	0.004703	0.000524	-0.006044	-0.664795	0.286133	-0.341064	0.645149	-0.220747	-0.712996	-0.163372
23611		9.717952	-0.557678	-1.130603	0.010530	0.000450	-0.006595	-0.662598	0.283691	-0.341309	0.645171	-0.220608	-0.713027	-0.163338
23612		9.689510	-0.533465	-1.108537	0.010521	-0.003108	-0.010412	-0.668945	0.283203	-0.331299	0.645158	-0.220449	-0.713093	-0.163315
23613		9.707533	-0.490667	-1.106167	0.009101	-0.006219	-0.008161	-0.668457	0.288330	-0.341064	0.645085	-0.220341	-0.713200	-0.163283
23614		9.709769	-0.526446	-1.117961	0.003758	-0.003425	-0.007477	-0.660156	0.287109	-0.342773	0.645054	-0.220280	-0.713244	-0.163294
23615		9.702965	-0.538326	-1.143661	0.004862	-0.002603	-0.007859	-0.669434	0.277832	-0.335449	0.645054	-0.220212	-0.713265	-0.163293
23616		9.715646	-0.516406	-1.139327	0.003363	-0.002317	-0.011205	-0.663574	0.290771	-0.340332	0.645001	-0.220090	-0.713339	-0.163341
23617		9.685830	-0.478743	-1.128505	0.004047	-0.004795	-0.007104	-0.666504	0.271729	-0.336182	0.644965	-0.220077	-0.713379	-0.163326
23618		9.707212	-0.492377	-1.142455	-0.000304	-0.005753	-0.008004	-0.668701	0.276611	-0.340088	0.644882	-0.219978	-0.713474	-0.163376
23619		9.709040	-0.513242	-1.135665	0.002572	-0.003766	-0.005651	-0.667969	0.281006	-0.336670	0.644839	-0.219893	-0.713537	-0.163383
23620		9.704262	-0.542229	-1.137419	0.002324	-0.001562	-0.007285	-0.671875	0.283447	-0.343994	0.644797	-0.219836	-0.713587	-0.163408
23621		9.687730	-0.520923	-1.174877	0.005190	-0.005293	-0.007671	-0.664551	0.279541	-0.338623	0.644757	-0.219756	-0.713652	-0.163391
23622		9.700567	-0.488102	-1.139497	0.004980	-0.006567	-0.008413	-0.660156	0.283447	-0.347656	0.644693	-0.219675	-0.713738	-0.163375
23623		9.718080	-0.530157	-1.125398	0.000218	-0.004355	-0.008056	-0.661133	0.278320	-0.333984	0.644705	-0.219640	-0.713734	-0.163392
23624		9.702280	-0.512280	-1.149537	-0.000925	-0.001701	-0.008566	-0.670654	0.280273	-0.339844	0.644651	-0.219608	-0.713781	-0.163444
23625		9.678857	-0.477896	-1.160891	0.003216	0.000143	-0.009486	-0.666260	0.278809	-0.344971	0.644629	-0.219515	-0.713823	-0.163473
23626		9.772099	-0.501349	-1.123685	-0.000094	-0.006642	-0.006185	-0.667236	0.275146	-0.342285	0.644593	-0.219462	-0.713870	-0.163481
23627		9.702663	-0.489708	-1.104870	0.001192	-0.011763	-0.007397	-0.660156	0.284424	-0.338867	0.644494	-0.219365	-0.713989	-0.163481
23628		9.685600	-0.553135	-1.131797	-0.003322	-0.007443	-0.007558	-0.674072	0.276123	-0.345459	0.644431	-0.219432	-0.714016	-0.163518
23629		9.696179	-0.509027	-1.136385	0.002422	-0.004867	-0.007747	-0.667969	0.290283	-0.343262	0.644402	-0.219293	-0.714082	-0.163533
23630		9.728380	-0.474698	-1.137534	-0.000054	-0.005808	-0.007446	-0.669678	0.287354	-0.340088	0.644372	-0.219379	-0.714083	-0.163534
23631		9.702097	-0.520081	-1.193564	0.004025	-0.004137	-0.007015	-0.672363	0.278564	-0.338623	0.644335	-0.219408	-0.714112	-0.163513
23632		9.732430	-0.536822	-1.158696	0.006123	-0.007066	-0.008984	-0.666748	0.283203	-0.331299	0.644242	-0.219299	-0.714232	-0.163500
23633		9.705002	-0.531009	-1.143300	0.009240	-0.006529	-0.010968	-0.664795	0.280762	-0.352051	0.644122	-0.219259	-0.714362	-0.163458
23634		9.710704	-0.522423	-1.164912	0.009551	-0.006402	-0.011764	-0.671631	0.285889	-0.346436	0.644210	-0.219088	-0.714345	-0.163417
23635		9.696106	-0.490635	-1.128075	0.003389	-0.001494	-0.012471	-0.669189	0.273926	-0.331055	0.644235	-0.219045	-0.714328	-0.163450
23636		9.715147	-0.582101	-1.184509	0.004840	0.000293	-0.014911	-0.667725	0.285645	-0.343994	0.644134	-0.218855	-0.714463	-0.163511
23637		9.697350	-0.513745	-1.165317	0.011638	-0.000706	-0.018041	-0.668945	0.286133	-0.333496	0.644180	-0.218726	-0.714463	-0.163506
23638		9.697075	-0.494496	-1.147063	0.006769	-0.003081	-0.018881	-0.670410	0.266602	-0.344482	0.644072	-0.218693	-0.714563	-0.163540
23639		9.717753	-0.475502	-1.123489	0.004256	-0.004861	-0.017318	-0.670654	0.278809	-0.339355	0.644050	-0.218321	-0.714676	-0.163626
23640		9.709936	-0.460911	-1.128215	-0.000298	-0.003538	-0.015139	-0.668945	0.280518	-0.343018	0.643980	-0.218242	-0.714743	-0.163715
23641		9.709406	-0.480206	-1.192546	-0.005205	-0.001022	-0.011982	-0.670166	0.282227	-0.329834	0.643980	-0.218243	-0.714717	-0.163824
23642		9.712483	-0.497660	-1.155726	0.000641	-0.001740	-0.012635	-0.665771	0.272461	-0.333008	0.643828	-0.218289	-0.714828	-0.163878
23643		9.711376	-0.475862	-1.150436	-0.000280	0.001526	-0.012496	-0.670410	0.278076	-0.340576	0.643770	-0.218146	-0.714906	-0.163955
23644		9.712605	-0.502967	-1.186646	0.002062	0.006435	-0.012249	-0.663818	0.288330	-0.333984	0.643823	-0.218044	-0.714872	-0.164030
23645		9.698273	-0.465639	-1.131994	0.004031	0.001664	-0.010342	-0.668945	0.280273	-0.337402	0.643805	-0.218222	-0.714834	-0.164030
23646		9.699819	-0.476314	-1.121293	-0.002827	-0.001091	-0.009671	-0.674561	0.278320	-0.330566	0.643752	-0.218267	-0.714852	-0.164102
23647		9.685994	-0.480892	-1.136972	0.001233	-0.000905	-0.008074	-0.665039	0.276611	-0.340820	0.643590	-0.218271	-0.714989	-0.164134
23648		9.782746	-0.491961	-1.175197	0.000147	-0.000237	-0.008859	-0.663086	0.285400	-0.328125	0.643635	-0.218212	-0.714958	-0.164172
23649		9.706560	-0.467873	-1.128534	0.006953	0.000191	-0.007099	-0.667236	0.275635	-0.341797	0.643550	-0.218394	-0.714990	-0.164123
23650		9.688057	-0.508832	-1.161078	-0.000310	-0.001470	-0.010158	-0.663330	0.280029	-0.339844	0.643580	-0.218296	-0.714980	-0.164181
23651		9.694248	-0.483604	-1.133750	0.009264	-0.001460	-0.008326	-0.665771	0.282959	-0.340820	0.643642	-0.218269	-0.714945	-0.164127
23652		9.718590	-0.432656	-1.121629	0.002332	-0.000082	-0.008459	-0.670898	0.283936	-0.342285	0.643689	-0.218358	-0.714870	-0.164150
23653		9.705873	-0.467867	-1.173601	0.002344	0.004987	-0.005816	-0.668945	0.284668	-0.338867	0.643765	-0.218462	-0.714762	-0.164182
23654		9.722576	-0.497544	-1.167564	0.007238	0.004554	-0.003990	-0.665771	0.286621	-0.338135	0.643821	-0.218579	-0.714686	-0.164142
23655		9.703298	-0.503663	-1.145861	0.012687	0.002783	-0.007294	-0.669434	0.276367	-0.348633	0.643880	-0.218685	-0.714617	-0.164064
23656		9.704264	-0.505930	-1.131685	0.011291	0.003322	-0.007285	-0.664551	0.276123	-0.335938	0.644053	-0.218518	-0.714515	-0.164055
23657		9.709368	-0.494629	-1.164194	0.007150	0.003619	-0.007438	-0.669189	0.283447	-0.336670	0.644084	-0.218413	-0.714530	-0.164010
23658		9.697198	-0.507135	-1.152593	0.005352	-0.000550	-0.007829	-0.668701	0.279541	-0.344482	0.644039	-0.218503	-0.714547	-0.163988
23659		9.709133	-0.476042	-1.144570	0.005789	0.004990	-0.008691	-0.670898	0.279297	-0.333496	0.644156	-0.218460	-0.714448	-0.164019
23660		9.709254	-0.479836	-1.159243	0.004667	0.004823	-0.008215	-0.663574	0.282227	-0.338867	0.644099	-0.218435	-0.714510	-0.164007
23661		9.716789	-0.479370	-1.151351	0.006783	0.006965	-0.007541	-0.677002	0.283936	-0.336670	0.644200	-0.218490	-0.714407	-0.163988
23662		9.694651	-0.458875	-1.150721	0.009940	0.002538	-0.007457	-0.672852	0.285156	-0.336426	0.644127	-0.218529	-0.714469	-0.163947
23663		9.717218	-0.470683	-1.133996	0.003074	-0.001716	-0.005614	-0.672363	0.283447	-0.342773	0.644033	-0.218694	-0.714507	-0.163931
23664		9.707639	-0.521097	-1.133656	0.003612	-0.000973	-0.005761	-0.668701	0.281494	-0.338379	0.644038	-0.218804	-0.714464	-0.163953
23665		9.713669	-0.502081	-1.121772	0.002492	0.002506	-0.007538	-0.667725	0.281738	-0.332520	0.644041	-0.218859	-0.714442	-0.163969
23666		9.720346	-0.497747	-1.127869	0.001132	0.003876	-0.008791	-0.665771	0.283691	-0.338867	0.643981	-0.218915	-0.714479	-0.163968
23667		9.704701	-0.474242	-1.134203	0.004450	0.005694	-0.010038	-0.662598	0.275146	-0.343994	0.644043	-0.218995	-0.714391	-0.163998
23668		9.725280	-0.462824	-1.124549	0.001967	0.003253	-0.008563	-0.673096	0.277588	-0.345947	0.644176	-0.218899	-0.714289	-0.164050
23669		9.703732	-0.451508	-1.127193	0.002205	0.001717	-0.006833	-0.667725	0.279053	-0.341553	0.644234	-0.218855	-0.714233	-0.164122
23670		9.732146	-0.451535	-1.114387	-0.001517	0.002414	-0.004428	-0.658691	0.286377	-0.336670	0.644277	-0.218912	-0.714167	-0.164166
23671		9.728533	-0.490564	-1.117243	0.001683	0.003893	-0.002967	-0.669434	0.277588	-0.338867	0.644350	-0.219170	-0.714032	-0.164122
23672		9.701784	-0.507091	-1.133719	-0.001612	0.005056	-0.004066	-0.667969	0.282959	-0.338623	0.644366	-0.219167	-0.714011	-0.164153
23673		9.699175	-0.468788	-1.122338	0.003377	0.001990	-0.002599	-0.668457	0.281494	-0.345703	0.644377	-0.219290	-0.713971	-0.164119
23674		9.692781	-0.465150	-1.099666	0.008460	-0.003719	-0.001495	-0.666016	0.287109	-0.335938	0.644441	-0.219360	-0.713903	-0.164070
23675		9.707646	-0.494175	-1.137945	0.006170	-0.002730	-0.000363	-0.671143	0.288086	-0.343750	0.644400	-0.219589	-0.713896	-0.163954
23676		9.729879	-0.518556	-1.153901	0.007147	-0.003673	-0.002931	-0.670410	0.283691	-0.335449	0.644406	-0.219808	-0.713830	-0.163926
23677		9.730622	-0.521513	-1.141279	0.008304	-0.002677	-0.004670	-0.666260	0.286377	-0.342285	0.644327	-0.219855	-0.713911	-0.163822
23678		9.695278	-0.506578	-1.128315	0.006812	0.000504	-0.004300	-0.671143	0.283936	-0.338623	0.644389	-0.220021	-0.713809	-0.163798
23679		9.681636	-0.506780	-1.127283	0.006215	0.003233	-0.005054	-0.665039	0.278076	-0.339355	0.644389	-0.220079	-0.713799	-0.163764
23680		9.678769	-0.479660	-1.148341	0.006633	-0.001436	-0.005129	-0.666016	0.281738	-0.341553	0.644409	-0.220014	-0.713815	-0.163704
23681		9.726591	-0.467083	-1.141346	0.001944	-0.003378	-0.003963	-0.670898	0.278320	-0.344971	0.644417	-0.220104	-0.713782	-0.163699
23682		9.731790	-0.514438	-1.111882	0.005712	0.003318	-0.006170	-0.665771	0.281738	-0.343750	0.644493	-0.220040	-0.713723	-0.163741
23683		9.739978	-0.517725	-1.091783	0.000653	-0.000352	-0.007745	-0.670410	0.277100	-0.345215	0.644542	-0.220108	-0.713643	-0.163804
23684		9.676907	-0.526611	-1.140864	-0.000127	0.004079	-0.011585	-0.666260	0.286133	-0.341064	0.644602	-0.220017	-0.713585	-0.163943
23685		9.693864	-0.473499	-1.134446	0.000698	0.001967	-0.010182	-0.667236	0.283691	-0.339355	0.644627	-0.220151	-0.713508	-0.164000
23686		9.701342	-0.466811	-1.111988	-0.002652	-0.000683	-0.007671	-0.676025	0.271484	-0.344727	0.644598	-0.220265	-0.713489	-0.164044
23687		9.739798	-0.510736	-1.119102	-0.001750	0.005430	-0.007335	-0.664062	0.273926	-0.338379	0.644623	-0.220073	-0.713494	-0.164182
23688		9.689948	-0.503814	-1.149316	0.006340	0.005061	-0.008935	-0.676025	0.282959	-0.343994	0.644684	-0.219865	-0.713510	-0.164153
23689		9.681518	-0.476037	-1.133935	0.009866	-0.000556	-0.009821	-0.670166	0.275879	-0.343506	0.644669	-0.219841	-0.713526	-0.164170
23690		9.725169	-0.487013	-1.111408	0.007096	-0.000144	-0.009895	-0.666016	0.282715	-0.343018	0.644692	-0.219693	-0.713545	-0.164196
23691		9.704366	-0.479349	-1.100967	0.004086	0.003237	-0.006811	-0.659668	0.285400	-0.342773	0.644768	-0.219756	-0.713455	-0.164209
23692		9.718892	-0.497489	-1.134782	0.005133	0.005385	-0.007017	-0.661377	0.283447	-0.345459	0.644908	-0.219878	-0.713293	-0.164195
23693		9.724333	-0.457623	-1.087752	0.007131	0.002120	-0.006269	-0.668701	0.279297	-0.336670	0.645040	-0.219956	-0.713153	-0.164180
23694		9.690281	-0.472625	-1.111636	0.000586	-0.002015	-0.005218	-0.668457	0.278564	-0.341553	0.644963	-0.219947	-0.713235	-0.164141
23695		9.711228	-0.476875	-1.122317	0.004920	-0.003951	-0.008039	-0.673096	0.283936	-0.344971	0.644933	-0.219892	-0.713281	-0.164132
23696		9.707653	-0.509534	-1.111058	0.003479	-0.005732	-0.005593	-0.672852	0.279785	-0.342773	0.644890	-0.219999	-0.713282	-0.164155
23697		9.683519	-0.487829	-1.154996	0.005045	-0.000689	-0.007032	-0.671387	0.281982	-0.340820	0.644872	-0.219972	-0.713302	-0.164173
23698		9.716905	-0.466820	-1.144288	0.005355	0.000875	-0.002938	-0.668945	0.283691	-0.346191	0.644868	-0.220016	-0.713301	-0.164132
23699		9.730964	-0.534350	-1.113496	0.006358	-0.000733	-0.005596	-0.658447	0.283203	-0.340820	0.644922	-0.220098	-0.713225	-0.164142
23700		9.712803	-0.483504	-1.113850	0.010767	-0.004652	-0.008687	-0.673584	0.285400	-0.345459	0.644968	-0.220104	-0.713206	-0.164035
23701		9.698353	-0.473775	-1.111187	0.008014	0.000177	-0.006221	-0.677734	0.283447	-0.343994	0.644988	-0.220187	-0.713161	-0.164044
23702		9.720152	-0.487606	-1.123349	0.005730	0.002653	-0.006265	-0.667725	0.280273	-0.342773	0.644976	-0.220227	-0.713149	-0.164084
23703		9.737056	-0.516253	-1.117761	-0.001239	0.001742	-0.010030	-0.669922	0.277344	-0.338623	0.644992	-0.220236	-0.713113	-0.164169
23704		9.696729	-0.526563	-1.118526	0.002484	0.001044	-0.012434	-0.663330	0.282715	-0.345459	0.644948	-0.220106	-0.713185	-0.164203
23705		9.685862	-0.481423	-1.127812	0.003874	-0.000981	-0.011266	-0.663330	0.279785	-0.338379	0.645011	-0.220141	-0.713106	-0.164251
23706		9.706177	-0.469345	-1.120161	-0.000933	-0.006193	-0.011104	-0.666016	0.285889	-0.341553	0.644942	-0.220126	-0.713173	-0.164253
23707		9.735145	-0.482929	-1.127584	-0.003780	-0.003801	-0.010910	-0.662354	0.278076	-0.339600	0.644901	-0.220267	-0.713150	-0.164323
23708		9.688931	-0.516420	-1.156343	0.002739	0.002488	-0.013052	-0.667969	0.276611	-0.337646	0.644938	-0.220162	-0.713144	-0.164348
23709		9.700636	-0.489963	-1.164045	0.009798	0.004398	-0.011906	-0.668457	0.277344	-0.337158	0.644952	-0.219963	-0.713201	-0.164309
23710		9.713953	-0.465314	-1.129404	0.009308	0.000843	-0.010761	-0.666748	0.281738	-0.339600	0.644925	-0.219804	-0.713287	-0.164254
23711		9.726474	-0.431339	-1.092359	0.001199	0.003348	-0.010247	-0.679443	0.283936	-0.339844	0.644937	-0.219816	-0.713265	-0.164288
23712		9.718124	-0.501790	-1.125437	-0.000436	0.000287	-0.008536	-0.666748	0.283691	-0.344727	0.644833	-0.219887	-0.713321	-0.164359
23713		9.686072	-0.457281	-1.140968	-0.001395	-0.002359	-0.009771	-0.667236	0.280518	-0.348633	0.644841	-0.219993	-0.713262	-0.164441
23714		9.707847	-0.470365	-1.154002	-0.000752	-0.001325	-0.006564	-0.669678	0.278076	-0.336670	0.644899	-0.220076	-0.713162	-0.164535
23715		9.753127	-0.488922	-1.105045	0.002777	-0.000367	-0.005991	-0.667480	0.283936	-0.343750	0.644843	-0.220025	-0.713237	-0.164496
23716		9.717768	-0.479185	-1.107116	0.000446	0.006402	-0.008208	-0.661133	0.274902	-0.338135	0.644921	-0.220108	-0.713125	-0.164565
23717		9.662878	-0.499580	-1.151796	0.002814	0.001945	-0.008432	-0.667969	0.281982	-0.343018	0.644954	-0.219987	-0.713139	-0.164536
23718		9.694739	-0.453311	-1.119770	0.001604	0.000787	-0.005336	-0.663330	0.280518	-0.341553	0.644978	-0.220055	-0.713093	-0.164553
23719		9.710977	-0.461876	-1.080138	0.007059	0.000470	-0.003744	-0.662842	0.282471	-0.343506	0.645035	-0.220065	-0.713056	-0.164479
23720		9.719777	-0.492539	-1.110490	-0.001784	0.000943	-0.003818	-0.672119	0.283203	-0.339600	0.645092	-0.220187	-0.712961	-0.164499
23721		9.742341	-0.521675	-1.141331	0.005494	0.000548	-0.005738	-0.669922	0.275635	-0.343994	0.645060	-0.220218	-0.712987	-0.164469
23722		9.699640	-0.505199	-1.134742	0.011229	-0.001918	-0.008566	-0.669434	0.280518	-0.331055	0.645073	-0.220064	-0.713031	-0.164439
23723		9.708549	-0.517783	-1.117886	0.014474	-0.001744	-0.007286	-0.666748	0.275879	-0.339355	0.644980	-0.219940	-0.713194	-0.164260
23724		9.701379	-0.514701	-1.124251	0.012945	0.000641	-0.011723	-0.669189	0.282227	-0.341064	0.644993	-0.219736	-0.713259	-0.164198
23725		9.704953	-0.466460	-1.104444	0.010932	0.002411	-0.011300	-0.661621	0.276611	-0.338379	0.645017	-0.219673	-0.713263	-0.164173
23726		9.726855	-0.484817	-1.132501	0.005778	-0.000125	-0.011336	-0.667480	0.280762	-0.342285	0.645028	-0.219556	-0.713296	-0.164144
23727		9.710839	-0.466971	-1.155986	0.007709	0.000086	-0.011493	-0.669922	0.279053	-0.343506	0.645044	-0.219503	-0.713297	-0.164145
23728		9.718321	-0.454074	-1.117530	0.000377	0.001802	-0.009395	-0.664307	0.284424	-0.342529	0.645055	-0.219494	-0.713274	-0.164215
23729		9.720850	-0.468483	-1.093378	-0.004022	-0.000853	-0.007755	-0.668457	0.281982	-0.343750	0.645060	-0.219644	-0.713209	-0.164278
23730		9.714360	-0.492068	-1.150254	-0.003713	-0.000730	-0.008551	-0.667969	0.287354	-0.337402	0.645049	-0.219734	-0.713170	-0.164369
23731		9.712123	-0.461960	-1.142180	0.006309	0.003560	-0.007774	-0.663086	0.275635	-0.340820	0.645051	-0.219821	-0.713150	-0.164331
23732		9.690493	-0.451370	-1.144515	0.008098	0.004108	-0.005132	-0.667480	0.281494	-0.345459	0.645130	-0.219717	-0.713126	-0.164264
23733		9.714071	-0.455117	-1.082380	0.001627	-0.001366	-0.004249	-0.668701	0.278564	-0.341553	0.645157	-0.219798	-0.713074	-0.164278
23734		9.725348	-0.513724	-1.120555	-0.006766	0.001826	-0.004207	-0.658691	0.279785	-0.333984	0.645146	-0.219875	-0.713042	-0.164354
23735		9.711731	-0.525032	-1.151209	-0.000015	0.003659	-0.008333	-0.667725	0.283203	-0.336426	0.645155	-0.219874	-0.713040	-0.164331
23736		9.689361	-0.498635	-1.135030	0.009641	0.004725	-0.009115	-0.663330	0.277100	-0.338867	0.645163	-0.219845	-0.713054	-0.164280
23737		9.736501	-0.463729	-1.091994	0.015684	0.003841	-0.007848	-0.670654	0.281250	-0.346436	0.645233	-0.219678	-0.713070	-0.164157
23738		9.698611	-0.420450	-1.071228	0.004567	-0.004252	-0.005882	-0.664062	0.289551	-0.345947	0.645225	-0.219714	-0.713064	-0.164162
23739		9.696943	-0.555294	-1.094115	-0.000693	-0.002664	-0.006741	-0.664795	0.282227	-0.333496	0.645250	-0.219938	-0.712962	-0.164210
23740		9.679913	-0.457261	-1.118549	-0.000526	-0.006631	-0.007271	-0.661865	0.282959	-0.349121	0.645125	-0.220005	-0.713063	-0.164174
23741		9.720217	-0.448240	-1.134751	0.003474	-0.005082	-0.005494	-0.660645	0.276855	-0.331787	0.645185	-0.220101	-0.712977	-0.164181
23742		9.738720	-0.418827	-1.122336	0.000898	-0.004881	-0.003656	-0.671387	0.273682	-0.340820	0.645100	-0.220087	-0.713081	-0.164081
23743		9.738785	-0.566962	-1.134023	0.001881	0.001561	-0.006047	-0.662109	0.280273	-0.338135	0.645088	-0.219976	-0.713124	-0.164092
23744		9.675091	-0.538696	-1.101379	0.007735	-0.000579	-0.011583	-0.667236	0.284912	-0.338379	0.645090	-0.219909	-0.713150	-0.164061
23745		9.692960	-0.515686	-1.132934	0.009191	-0.000950	-0.012946	-0.668457	0.279053	-0.341553	0.645061	-0.219897	-0.713182	-0.164052
23746		9.705206	-0.498095	-1.144369	0.007710	-0.001382	-0.016384	-0.675537	0.276855	-0.333984	0.645040	-0.219762	-0.713234	-0.164088
23747		9.727979	-0.489534	-1.081087	0.009615	-0.007904	-0.016627	-0.671387	0.285645	-0.344238	0.644860	-0.219570	-0.713460	-0.164072
23748		9.709250	-0.448370	-1.114661	0.003457	-0.007351	-0.015182	-0.667480	0.285645	-0.338379	0.644785	-0.219616	-0.713495	-0.164152
23749		9.722138	-0.446007	-1.145685	0.009889	-0.004176	-0.013628	-0.663818	0.283447	-0.341553	0.644732	-0.219623	-0.713544	-0.164137
23750		9.718242	-0.468062	-1.131178	0.004960	-0.001669	-0.010482	-0.668701	0.281982	-0.338623	0.644743	-0.219664	-0.713518	-0.164151
23751		9.715861	-0.443162	-1.139376	0.002131	0.001534	-0.011559	-0.675293	0.278320	-0.340576	0.644722	-0.219671	-0.713524	-0.164202
23752		9.690176	-0.461947	-1.143562	0.001996	-0.002557	-0.011290	-0.671631	0.273438	-0.334717	0.644646	-0.219616	-0.713597	-0.164257
23753		9.710398	-0.455890	-1.151520	0.003476	-0.002122	-0.007852	-0.659912	0.284668	-0.339600	0.644560	-0.219492	-0.713720	-0.164224
23754		9.741298	-0.471335	-1.115357	-0.001312	0.000043	-0.007504	-0.675781	0.279053	-0.345703	0.644581	-0.219640	-0.713646	-0.164266
23755		9.724682	-0.516330	-1.133240	0.001926	0.006161	-0.010944	-0.662354	0.274414	-0.340332	0.644626	-0.219589	-0.713597	-0.164369
23756		9.693274	-0.469331	-1.118321	-0.000391	0.003373	-0.012255	-0.665527	0.282715	-0.342285	0.644667	-0.219488	-0.713577	-0.164429
23757		9.690891	-0.432681	-1.094485	0.005743	-0.000962	-0.010074	-0.665771	0.279053	-0.345947	0.644685	-0.219512	-0.713551	-0.164441
23758		9.714979	-0.390471	-1.085856	-0.002900	-0.003680	-0.005873	-0.669189	0.283203	-0.342773	0.644694	-0.219586	-0.713507	-0.164496
23759		9.805850	-0.474418	-1.115244	-0.009253	-0.002936	-0.006340	-0.666992	0.278320	-0.346436	0.644644	-0.219768	-0.713468	-0.164619
23760		9.672449	-0.449958	-1.094035	-0.003802	-0.000262	-0.007108	-0.676025	0.276367	-0.341553	0.644676	-0.219815	-0.713404	-0.164708
23761		9.694757	-0.546234	-1.136489	-0.011350	-0.003621	-0.008185	-0.660156	0.277832	-0.339600	0.644567	-0.219868	-0.713451	-0.164858
23762		9.700388	-0.531944	-1.141612	0.004738	-0.002292	-0.011130	-0.665771	0.284424	-0.339600	0.644579	-0.219808	-0.713461	-0.164848
23763		9.719777	-0.358757	-1.090698	0.005519	-0.001583	-0.010723	-0.670898	0.279785	-0.343750	0.644568	-0.219847	-0.713457	-0.164858
23764		9.707409	-0.462835	-1.154072	0.010245	-0.000952	-0.006006	-0.658936	0.276611	-0.343994	0.644593	-0.219808	-0.713458	-0.164810
23765		9.723756	-0.476770	-1.130577	0.015506	-0.001043	-0.006330	-0.666504	0.270508	-0.341309	0.644696	-0.219689	-0.713431	-0.164683
23766		9.718200	-0.475612	-1.094758	0.015651	-0.002870	-0.007949	-0.670898	0.280518	-0.339600	0.644720	-0.219444	-0.713515	-0.164553
23767		9.741043	-0.503673	-1.125928	0.004955	-0.000194	-0.011664	-0.670898	0.280273	-0.340576	0.644690	-0.219410	-0.713545	-0.164584
23768		9.690157	-0.481677	-1.138663	0.009899	0.002555	-0.013552	-0.672852	0.280029	-0.343018	0.644702	-0.219310	-0.713562	-0.164595
23769		9.689498	-0.480902	-1.167554	0.011757	-0.001160	-0.014794	-0.667236	0.275879	-0.340820	0.644693	-0.219190	-0.713605	-0.164603
23770		9.711765	-0.413129	-1.138040	0.011962	-0.004317	-0.010519	-0.666016	0.273438	-0.335938	0.644678	-0.219056	-0.713676	-0.164535
23771		9.726343	-0.401419	-1.094147	0.006525	-0.001741	-0.008490	-0.672852	0.278320	-0.337402	0.644644	-0.218942	-0.713753	-0.164483
23772		9.729017	-0.439934	-1.133853	0.003028	-0.001905	-0.004256	-0.666992	0.273926	-0.350586	0.644583	-0.218968	-0.713805	-0.164462
23773		9.703388	-0.460676	-1.137655	0.003345	0.003471	-0.003797	-0.669189	0.284424	-0.343262	0.644709	-0.218916	-0.713708	-0.164459
23774		9.720129	-0.424592	-1.150291	0.004726	0.000645	-0.001354	-0.672119	0.286865	-0.340576	0.644743	-0.219046	-0.713645	-0.164425
23775		9.736242	-0.495635	-1.105231	0.001919	0.003180	-0.002521	-0.664795	0.280762	-0.342773	0.644754	-0.219213	-0.713582	-0.164436
23776		9.717083	-0.513641	-1.115816	0.001457	-0.000368	-0.007432	-0.666992	0.281982	-0.343994	0.644775	-0.219262	-0.713542	-0.164461
23777		9.706361	-0.485069	-1.144005	-0.003521	-0.000978	-0.006637	-0.669922	0.280762	-0.341064	0.644777	-0.219375	-0.713489	-0.164533
23778		9.719304	-0.466591	-1.125854	0.003541	0.003280	-0.007952	-0.664062	0.276855	-0.342041	0.644797	-0.219384	-0.713462	-0.164558
23779		9.698489	-0.471248	-1.146683	0.004825	0.003919	-0.006428	-0.671631	0.282471	-0.342773	0.644866	-0.219344	-0.713415	-0.164543
23780		9.703268	-0.442870	-1.131939	0.005673	0.001827	-0.005015	-0.669922	0.272949	-0.347168	0.644888	-0.219390	-0.713384	-0.164534
23781		9.786548	-0.430817	-1.105508	0.004615	0.000334	-0.004711	-0.663818	0.284180	-0.342285	0.644935	-0.219315	-0.713366	-0.164523
23782		9.688775	-0.421462	-1.096332	-0.001499	0.003990	-0.000914	-0.666992	0.277832	-0.341797	0.644998	-0.219484	-0.713256	-0.164534
23783		9.689576	-0.510547	-1.140990	-0.004332	-0.001031	-0.000887	-0.673096	0.274414	-0.344482	0.644989	-0.219585	-0.713229	-0.164549
23784		9.702312	-0.481749	-1.091693	0.004818	-0.001338	-0.001615	-0.667480	0.283203	-0.338623	0.644991	-0.219552	-0.713247	-0.164506
23785		9.697887	-0.452168	-1.127187	0.002981	-0.003542	-0.001718	-0.668457	0.274170	-0.348633	0.644953	-0.219663	-0.713259	-0.164456
23786		9.717978	-0.459737	-1.167435	0.009734	-0.006139	-0.002310	-0.666016	0.275879	-0.343750	0.644977	-0.219598	-0.713278	-0.164364
23787		9.749749	-0.480069	-1.118072	0.009365	0.001798	-0.001265	-0.663818	0.282227	-0.336182	0.645049	-0.219551	-0.713249	-0.164268
23788		9.715998	-0.485220	-1.109077	0.008424	0.005873	-0.002419	-0.674072	0.281982	-0.344238	0.645108	-0.219580	-0.713207	-0.164183
23789		9.695093	-0.485297	-1.114102	0.008363	0.000460	-0.002317	-0.666016	0.283447	-0.335938	0.645125	-0.219611	-0.713194	-0.164132
23790		9.701540	-0.482452	-1.121041	0.009015	-0.001440	-0.002817	-0.675049	0.284424	-0.339111	0.645106	-0.219658	-0.713220	-0.164031
23791		9.723413	-0.484759	-1.102276	0.004210	-0.003063	-0.004907	-0.665283	0.281250	-0.343262	0.645035	-0.219733	-0.713264	-0.164018
23792		9.722580	-0.486001	-1.131907	0.003613	-0.001008	-0.005763	-0.673096	0.281006	-0.338135	0.645055	-0.219771	-0.713236	-0.164010
23793		9.691611	-0.455940	-1.136885	0.007503	-0.001230	-0.006168	-0.674805	0.280762	-0.340576	0.645011	-0.219756	-0.713290	-0.163967
23794		9.720877	-0.459314	-1.110849	0.008459	0.003732	-0.001326	-0.666260	0.286133	-0.345947	0.645034	-0.219764	-0.713282	-0.163903
23795		9.708993	-0.461570	-1.066719	0.004035	0.004685	-0.001953	-0.672607	0.279785	-0.332031	0.645124	-0.219890	-0.713162	-0.163901
23796		9.703681	-0.496994	-1.124910	-0.003141	0.001594	0.000897	-0.660645	0.272705	-0.338379	0.645054	-0.219985	-0.713202	-0.163873
23797		9.699135	-0.529805	-1.154635	0.000173	-0.001013	-0.002886	-0.665283	0.280762	-0.343994	0.645060	-0.219949	-0.713220	-0.163823
23798		9.716545	-0.485039	-1.123069	0.005488	-0.000944	-0.004566	-0.667725	0.283936	-0.333252	0.645091	-0.219969	-0.713193	-0.163789
23799		9.722140	-0.472268	-1.127291	0.003403	0.002143	-0.003974	-0.664062	0.281494	-0.334961	0.645061	-0.220040	-0.713204	-0.163761
23800		9.717619	-0.486642	-1.108739	0.006136	0.003891	-0.004997	-0.663818	0.284180	-0.336914	0.645081	-0.220048	-0.713195	-0.163716
23801		9.711353	-0.494135	-1.116947	0.003686	0.001446	-0.003502	-0.667969	0.275635	-0.340820	0.645087	-0.220136	-0.713168	-0.163689
23802		9.694980	-0.466731	-1.108667	0.001481	0.000444	-0.002632	-0.666016	0.282715	-0.343262	0.645093	-0.220118	-0.713176	-0.163657
23803		9.746203	-0.497043	-1.127290	0.004850	-0.002001	-0.001700	-0.666260	0.284912	-0.342285	0.645109	-0.220193	-0.713149	-0.163610
23804		9.719592	-0.496810	-1.097332	0.003276	-0.000470	-0.004879	-0.668945	0.281738	-0.341309	0.645119	-0.220279	-0.713113	-0.163613
23805		9.676693	-0.481276	-1.090546	0.006788	0.001990	-0.005496	-0.666992	0.277832	-0.343994	0.645143	-0.220274	-0.713099	-0.163586
23806		9.705104	-0.492897	-1.110096	0.008022	-0.004257	-0.002682	-0.664551	0.276123	-0.344482	0.645147	-0.220245	-0.713124	-0.163497
23807		9.710543	-0.474602	-1.099279	0.012652	-0.001627	-0.003779	-0.670166	0.273926	-0.332520	0.645200	-0.220141	-0.713136	-0.163373
23808		9.734292	-0.507832	-1.117197	0.008802	-0.003546	-0.002276	-0.674072	0.281494	-0.345459	0.645126	-0.220049	-0.713261	-0.163243
23809		9.747108	-0.502400	-1.131589	0.010471	-0.001815	-0.004179	-0.662842	0.284424	-0.334717	0.645136	-0.220023	-0.713277	-0.163176
23810		9.698588	-0.498759	-1.121243	0.008778	-0.004376	-0.007076	-0.666992	0.278564	-0.350830	0.645085	-0.220055	-0.713325	-0.163121
23811		9.701429	-0.463658	-1.134280	0.007235	0.001764	-0.003026	-0.671387	0.277100	-0.342529	0.645186	-0.220024	-0.713255	-0.163068
23812		9.727949	-0.506852	-1.111113	0.010116	0.001679	-0.005665	-0.669434	0.284912	-0.334717	0.645215	-0.219925	-0.713275	-0.163002
23813		9.718002	-0.476811	-1.109657	0.005896	0.000966	-0.003192	-0.659912	0.279785	-0.343994	0.645184	-0.220001	-0.713287	-0.162968
23814		9.704397	-0.489577	-1.140737	-0.002346	-0.000662	-0.002400	-0.661865	0.283691	-0.338135	0.645220	-0.220088	-0.713227	-0.162972
23815		9.710699	-0.536686	-1.110837	0.003558	-0.001171	-0.004406	-0.665039	0.284424	-0.340820	0.645215	-0.220166	-0.713212	-0.162951
23816		9.708889	-0.522793	-1.122365	-0.001543	-0.004395	-0.004510	-0.667236	0.282959	-0.343750	0.645171	-0.220293	-0.713206	-0.162979
23817		9.727163	-0.498450	-1.125902	-0.001937	-0.004022	-0.008340	-0.663818	0.275391	-0.342041	0.645133	-0.220360	-0.713205	-0.163043
23818		9.693420	-0.513629	-1.150179	0.005178	-0.001087	-0.009839	-0.660889	0.277832	-0.342041	0.645146	-0.220248	-0.713233	-0.163022
23819		9.695333	-0.462542	-1.144609	0.007068	0.001290	-0.005028	-0.668457	0.277832	-0.343018	0.645204	-0.220199	-0.713210	-0.162958
23820		9.726467	-0.478223	-1.107415	0.008649	0.003529	-0.005490	-0.662354	0.279297	-0.333252	0.645262	-0.220118	-0.713196	-0.162902
23821		9.728421	-0.489987	-1.095685	0.003674	0.002917	-0.004692	-0.665771	0.278320	-0.337646	0.645260	-0.220128	-0.713200	-0.162876
23822		9.725877	-0.534843	-1.113854	0.000714	0.002016	-0.005495	-0.671631	0.272949	-0.342773	0.645257	-0.220132	-0.713200	-0.162884
23823		9.701242	-0.496350	-1.109716	0.001992	-0.001123	-0.006402	-0.666260	0.281006	-0.351074	0.645241	-0.220029	-0.713252	-0.162860
23824		9.692168	-0.481037	-1.127369	0.000095	-0.002006	-0.006327	-0.663330	0.279541	-0.335693	0.645284	-0.220048	-0.713203	-0.162875
23825		9.751608	-0.508635	-1.110745	0.004827	-0.002836	-0.006499	-0.665771	0.284668	-0.343018	0.645242	-0.220049	-0.713248	-0.162848
23826		9.731491	-0.505240	-1.087487	0.002641	0.002237	-0.005655	-0.664795	0.285400	-0.341797	0.645277	-0.220115	-0.713190	-0.162868
23827		9.693202	-0.474283	-1.098256	-0.000098	0.001963	-0.005815	-0.667236	0.280029	-0.332520	0.645298	-0.220215	-0.713130	-0.162916
23828		9.695108	-0.491878	-1.103380	0.001168	-0.003464	-0.004264	-0.664307	0.282959	-0.345459	0.645209	-0.220270	-0.713195	-0.162909
23829		9.707771	-0.474193	-1.086600	0.001989	-0.004888	-0.002759	-0.670410	0.283447	-0.340820	0.645208	-0.220352	-0.713177	-0.162882
23830		9.737107	-0.507367	-1.141314	0.002273	-0.005583	-0.002286	-0.664795	0.281982	-0.335205	0.645149	-0.220443	-0.713208	-0.162860
23831		9.726968	-0.539754	-1.136150	0.006523	-0.005532	-0.004846	-0.671387	0.284180	-0.341309	0.645084	-0.220474	-0.713268	-0.162808
23832		9.697527	-0.510831	-1.099434	0.005637	-0.002785	-0.006181	-0.672119	0.282227	-0.351318	0.645052	-0.220502	-0.713290	-0.162798
23833		9.701355	-0.552861	-1.125556	0.005374	-0.001278	-0.007926	-0.664307	0.289307	-0.343994	0.645091	-0.220470	-0.713265	-0.162799
23834		9.699611	-0.531701	-1.120609	0.006337	0.000701	-0.012864	-0.665283	0.284424	-0.342529	0.645119	-0.220503	-0.713215	-0.162861
23835		9.726329	-0.522254	-1.134902	0.007519	-0.000454	-0.013514	-0.668945	0.273193	-0.340820	0.645128	-0.220458	-0.713214	-0.162894
23836		9.711794	-0.505027	-1.116092	0.010398	-0.000541	-0.016155	-0.667480	0.277100	-0.341309	0.645121	-0.220210	-0.713302	-0.162870
23837		9.699057	-0.456149	-1.139523	0.007079	-0.001716	-0.014802	-0.668945	0.274414	-0.334717	0.645103	-0.220064	-0.713361	-0.162881
23838		9.730291	-0.475485	-1.119249	0.002610	-0.002399	-0.012884	-0.667480	0.277100	-0.336670	0.645026	-0.219947	-0.713460	-0.162906
23839		9.706697	-0.501168	-1.096599	-0.000041	0.000602	-0.012059	-0.663574	0.276611	-0.344238	0.644987	-0.219893	-0.713498	-0.162971
23840		9.696797	-0.487080	-1.143393	-0.002921	-0.003103	-0.011844	-0.667480	0.279541	-0.345947	0.644970	-0.219853	-0.713511	-0.163032
23841		9.706158	-0.509801	-1.158391	-0.001279	-0.002186	-0.012478	-0.667969	0.280762	-0.333252	0.644960	-0.219823	-0.713513	-0.163105
23842		9.725411	-0.525585	-1.079283	0.001765	-0.001792	-0.013119	-0.667969	0.280029	-0.338867	0.644878	-0.219814	-0.713572	-0.163184
23843		9.735604	-0.501188	-1.117468	0.006943	0.000931	-0.014464	-0.663818	0.283691	-0.340088	0.644868	-0.219721	-0.713601	-0.163222
23844		9.713887	-0.488976	-1.120016	0.009282	0.005361	-0.015713	-0.666504	0.277588	-0.343750	0.644922	-0.219643	-0.713564	-0.163275
23845		9.685803	-0.479079	-1.115340	0.004124	0.003445	-0.015640	-0.676025	0.277100	-0.345947	0.644961	-0.219517	-0.713554	-0.163333
23846		9.691427	-0.463828	-1.119527	0.001175	-0.001222	-0.012795	-0.663086	0.282715	-0.342041	0.644935	-0.219427	-0.713592	-0.163390
23847		9.731511	-0.434868	-1.087563	-0.001045	-0.003039	-0.010648	-0.670166	0.278564	-0.336426	0.644911	-0.219482	-0.713581	-0.163463
23848		9.755576	-0.465880	-1.105682	0.000611	-0.003593	-0.010095	-0.668457	0.285645	-0.339600	0.644830	-0.219480	-0.713643	-0.163513
23849		9.679726	-0.470799	-1.110178	-0.004569	-0.002529	-0.006324	-0.665039	0.280273	-0.345215	0.644774	-0.219640	-0.713621	-0.163612
23850		9.693499	-0.473744	-1.127224	-0.009070	-0.002555	-0.004320	-0.668945	0.280029	-0.345459	0.644761	-0.219771	-0.713575	-0.163693
23851		9.701886	-0.488654	-1.139539	0.000028	-0.000697	-0.006158	-0.663574	0.287109	-0.339844	0.644773	-0.219798	-0.713550	-0.163716
23852		9.695934	-0.424796	-1.109148	0.003359	-0.000992	-0.006325	-0.668213	0.283203	-0.334961	0.644772	-0.219909	-0.713510	-0.163747
23853		9.707211	-0.462318	-1.112903	0.003792	-0.002014	-0.002578	-0.666016	0.283203	-0.343506	0.644728	-0.220001	-0.713524	-0.163730
23854		9.781547	-0.497845	-1.099167	-0.006060	-0.001496	-0.004876	-0.667969	0.286621	-0.333252	0.644716	-0.220139	-0.713474	-0.163813
23855		9.735308	-0.612868	-1.210929	-0.013573	0.008021	-0.013342	-0.664307	0.278809	-0.343262	0.644682	-0.220298	-0.713393	-0.164083
23856		9.689334	-0.542515	-1.132192	0.000876	0.005510	-0.019377	-0.661865	0.277344	-0.342773	0.644729	-0.220178	-0.713359	-0.164212
23857		9.676472	-0.486409	-1.138708	0.011653	0.001555	-0.021901	-0.667725	0.279297	-0.343018	0.644770	-0.219944	-0.713386	-0.164244
23858		9.713297	-0.479808	-1.090001	0.014897	0.004056	-0.023086	-0.671875	0.278564	-0.346680	0.644820	-0.219690	-0.713411	-0.164282
23859		9.730352	-0.494940	-1.080863	0.008845	0.004869	-0.024351	-0.667725	0.278809	-0.341797	0.644864	-0.219455	-0.713419	-0.164386
23860		9.704745	-0.519766	-1.128026	0.009873	0.007833	-0.025850	-0.663818	0.282715	-0.347168	0.644920	-0.219214	-0.713416	-0.164503
23861		9.701341	-0.417333	-1.109195	0.004879	0.001784	-0.024929	-0.674316	0.275635	-0.338867	0.644949	-0.219087	-0.713393	-0.164657
23862		9.728186	-0.340544	-1.099654	-0.000339	0.001221	-0.018613	-0.673096	0.272461	-0.345947	0.644894	-0.218969	-0.713450	-0.164782
23863		9.746567	-0.390786	-1.156805	-0.001035	0.003825	-0.011960	-0.669189	0.275635	-0.345215	0.644920	-0.218866	-0.713443	-0.164848
23864		9.711417	-0.425864	-1.105773	0.006748	0.003469	-0.006697	-0.658936	0.279297	-0.343262	0.644982	-0.218796	-0.713417	-0.164814
23865		9.669106	-0.473040	-1.093230	0.005200	-0.000249	-0.005043	-0.664795	0.279541	-0.341064	0.645030	-0.218823	-0.713373	-0.164780
23866		9.727315	-0.505581	-1.134333	0.011052	-0.000880	-0.005694	-0.661865	0.274902	-0.344971	0.645055	-0.218798	-0.713375	-0.164707
23867		9.744678	-0.444765	-1.042232	0.000478	-0.000962	-0.009758	-0.668945	0.277588	-0.339111	0.645075	-0.218761	-0.713363	-0.164730
23868		9.729427	-0.507786	-1.107347	0.001501	0.004283	-0.013721	-0.670166	0.281494	-0.343262	0.645079	-0.218706	-0.713356	-0.164819
23869		9.677570	-0.430400	-1.141154	0.004815	0.003188	-0.012613	-0.672852	0.275146	-0.341553	0.645101	-0.218674	-0.713330	-0.164882
23870		9.765226	-0.406355	-1.148579	0.011989	-0.001999	-0.006901	-0.671143	0.281250	-0.344727	0.645093	-0.218571	-0.713389	-0.164795
23871		9.681340	-0.376075	-1.064278	0.009525	-0.001461	-0.001700	-0.674072	0.274658	-0.346436	0.645115	-0.218604	-0.713378	-0.164715
23872		9.731691	-0.449647	-1.072731	-0.004246	-0.004668	0.001414	-0.662842	0.267090	-0.334717	0.645078	-0.218698	-0.713387	-0.164694
23873		9.707420	-0.487254	-1.096121	-0.004121	-0.005846	-0.000113	-0.671875	0.283936	-0.344238	0.645005	-0.218723	-0.713458	-0.164642
23874		9.680314	-0.449560	-1.136221	0.003963	-0.006128	-0.001724	-0.672363	0.277832	-0.342529	0.644965	-0.218835	-0.713467	-0.164610
23875		9.707031	-0.402377	-1.191860	0.012648	-0.006934	0.002415	-0.665771	0.277100	-0.343262	0.644942	-0.218847	-0.713524	-0.164439
23876		9.740765	-0.424085	-1.100442	0.016125	-0.002936	0.006671	-0.668457	0.287598	-0.343506	0.644998	-0.218858	-0.713524	-0.164200
23877		9.689708	-0.328870	-1.030363	0.004409	-0.004760	0.011713	-0.664795	0.279053	-0.337158	0.645005	-0.219126	-0.713465	-0.164074
23878		9.709949	-0.488639	-1.165645	-0.010579	-0.010703	0.020493	-0.667480	0.277588	-0.343506	0.644916	-0.219521	-0.713450	-0.163958
23879		9.646701	-0.463146	-1.077323	0.018555	-0.008088	0.019898	-0.673584	0.280029	-0.344482	0.644957	-0.219631	-0.713467	-0.163577
23880		9.695751	-0.881921	-1.073346	0.027403	-0.022188	0.028666	-0.660156	0.283203	-0.339600	0.644899	-0.219792	-0.713596	-0.163025
23881		9.631007	-0.305763	-1.257173	0.172769	-0.042232	0.030445	-0.668457	0.279297	-0.341064	0.645080	-0.218894	-0.714144	-0.161110
23882		9.514329	-0.168876	-1.411051	0.199709	-0.033645	0.079253	-0.668701	0.280029	-0.342773	0.645485	-0.218148	-0.714573	-0.158575
23883		9.674985	0.569621	-1.252120	0.231261	-0.029154	0.159928	-0.668213	0.283936	-0.335938	0.646173	-0.217866	-0.714795	-0.155124
23884		9.782375	1.082644	-1.249846	0.180158	-0.028022	0.276587	-0.662109	0.284424	-0.342041	0.646903	-0.219083	-0.714598	-0.151222
23885		9.720007	1.443725	-1.071268	0.131012	-0.006644	0.436676	-0.655273	0.297119	-0.349609	0.648018	-0.222050	-0.713654	-0.146508
23886		9.863644	1.668067	-1.164452	0.166655	0.019055	0.659303	-0.653076	0.304688	-0.346191	0.649877	-0.226731	-0.711839	-0.139780
23887		9.863151	2.540819	-0.963791	0.316414	0.083373	0.933183	-0.654541	0.312256	-0.350830	0.653104	-0.232476	-0.708939	-0.129676
23888		9.870632	2.204341	-0.349506	0.409084	0.041789	1.272416	-0.636230	0.345459	-0.352783	0.656619	-0.240411	-0.705434	-0.115833
23889		9.561211	1.589203	0.646211	0.575868	-0.067236	1.616963	-0.629395	0.369141	-0.358398	0.659941	-0.250297	-0.701665	-0.097450
23890		8.500736	-0.482620	-0.667742	0.222389	-0.170012	1.787688	-0.623291	0.387939	-0.356445	0.661139	-0.264617	-0.697425	-0.080441
23891		8.705594	-3.146329	-2.417849	0.117132	-0.116782	1.839665	-0.604492	0.424072	-0.352783	0.662138	-0.279946	-0.692175	-0.064012
23892		6.827258	-3.264531	-2.059389	0.209811	-0.029719	1.784603	-0.598389	0.447998	-0.358398	0.663819	-0.293910	-0.686075	-0.047557
23893		8.156960	-6.389550	-1.545809	0.294166	0.005827	1.596085	-0.568848	0.487549	-0.356689	0.665688	-0.305320	-0.680157	-0.032022
23894		10.218854	0.699561	-0.508323	0.042852	0.052288	1.659099	-0.558838	0.514893	-0.366943	0.666770	-0.319339	-0.673131	-0.018298
23895		8.602393	-6.410747	-3.377498	-0.454722	-0.073841	1.668992	-0.531982	0.551270	-0.356201	0.664558	-0.337279	-0.666738	-0.008068
23896		8.442752	-5.974031	-0.551656	0.272364	-0.059860	1.499413	-0.525879	0.554932	-0.355225	0.665238	-0.347575	-0.660760	0.006819
23897		8.812260	-7.795420	0.576215	-0.185336	-0.164084	1.299388	-0.510498	0.574463	-0.349365	0.662873	-0.359899	-0.656347	0.016726
23898		3.314355	-9.071998	-0.673554	-0.278643	-0.112063	0.992164	-0.493896	0.590576	-0.351562	0.660435	-0.370405	-0.652758	0.023098
23899		2.479538	-15.092399	-0.987944	-0.037689	-0.252093	0.140803	-0.498535	0.598145	-0.339111	0.658147	-0.371892	-0.654147	0.025099
23900		11.903932	-9.000739	1.238889	-0.404351	-0.109864	-0.553696	-0.502441	0.597412	-0.337402	0.655493	-0.370731	-0.657701	0.017808
23901		13.105025	-14.358062	-3.895904	-0.739159	-0.320706	-1.174627	-0.521484	0.583740	-0.316406	0.649569	-0.367088	-0.665803	0.003652
23902		13.132790	-16.742901	-1.342631	-0.156705	-0.302485	-2.138500	-0.548584	0.556885	-0.316162	0.646169	-0.350495	-0.677817	-0.013522
23903		22.422742	-11.454003	-2.068663	0.261661	-0.054384	-2.836212	-0.588379	0.500000	-0.311035	0.645946	-0.324210	-0.690290	-0.033801
23904		21.883766	1.098687	-3.515637	0.890505	0.403170	-2.770900	-0.631836	0.448486	-0.333008	0.651416	-0.292796	-0.698165	-0.049937
23905		10.221599	4.152874	-1.895942	0.779496	0.600336	-3.112327	-0.659912	0.377197	-0.340576	0.657021	-0.258760	-0.704551	-0.070527
23906		5.198643	3.465102	-2.787171	0.090612	0.913574	-2.971827	-0.691406	0.335938	-0.352051	0.662247	-0.230943	-0.706179	-0.096981
23907		3.787779	2.320509	-2.439939	-0.060815	0.870501	-2.167947	-0.713867	0.293457	-0.364258	0.666850	-0.211257	-0.704826	-0.117908
23908		1.452669	-5.242585	-0.987129	0.339040	0.248640	-0.779317	-0.716064	0.270020	-0.367432	0.668752	-0.201287	-0.705236	-0.122054
23909		1.562429	2.143077	-0.961688	1.059196	-0.068356	0.214411	-0.722168	0.260498	-0.371826	0.671087	-0.194502	-0.706795	-0.110689
23910		-0.028834	2.710898	0.705172	-0.054399	-0.091005	0.576467	-0.713623	0.275635	-0.374512	0.670934	-0.200267	-0.706038	-0.106071
23911		-0.081701	1.282705	-0.466949	-0.711466	-0.089282	0.645018	-0.714600	0.290283	-0.371582	0.669174	-0.212130	-0.704147	-0.106693
23912		0.487008	0.661898	-0.528460	-0.693782	0.057673	0.649991	-0.706543	0.311768	-0.361816	0.668663	-0.223664	-0.700933	-0.107500
23913		0.032146	1.044478	-0.935307	-0.831989	-0.010165	0.757527	-0.699219	0.335693	-0.362305	0.667200	-0.237348	-0.697679	-0.108414
23914		0.418617	-0.600047	-1.521314	-0.906693	-0.215444	0.965039	-0.689941	0.355469	-0.339111	0.663844	-0.253686	-0.695250	-0.107618
23915		1.740861	-1.778927	1.338517	-0.238143	-0.268317	1.361151	-0.674561	0.388916	-0.346680	0.662482	-0.267911	-0.692698	-0.097516
23916		6.785327	-5.086600	-5.479899	-1.374803	-1.194548	2.781498	-0.637939	0.447266	-0.308594	0.650352	-0.304693	-0.690965	-0.082293
23917		13.170071	10.851791	2.082392	-0.244874	-0.642495	2.710439	-0.601318	0.494873	-0.301270	0.646248	-0.330651	-0.685167	-0.059831
23918		14.253739	-14.045530	-5.485460	-3.223091	-0.097571	2.233811	-0.557373	0.556396	-0.262695	0.632983	-0.375589	-0.673430	-0.068972
23919		13.974996	-19.623878	-9.026453	-0.548923	0.094212	0.559452	-0.549072	0.574951	-0.254883	0.631639	-0.384640	-0.669507	-0.069603
23920		37.519292	-12.041538	-1.993880	-0.573532	0.396152	-0.307812	-0.546143	0.571777	-0.260010	0.631876	-0.386306	-0.667321	-0.078636
23921		24.878653	-20.625278	-0.082359	0.572734	0.086144	-0.857825	-0.567383	0.553955	-0.267334	0.634451	-0.374594	-0.671263	-0.080985
23922		20.815976	-7.235687	-1.686785	1.784185	0.112418	-1.913551	-0.588867	0.506104	-0.289062	0.641463	-0.344160	-0.680751	-0.081588
23923		11.096433	0.727077	-3.726249	2.320610	0.486941	-2.537993	-0.630859	0.451172	-0.319336	0.652393	-0.303234	-0.689459	-0.084139
23924		4.819816	6.732919	-3.055170	0.942493	0.759469	-2.435923	-0.662109	0.404541	-0.347656	0.659563	-0.273682	-0.693063	-0.098679
23925		3.512280	0.153155	-2.363896	0.020739	0.522385	-1.847174	-0.684326	0.365234	-0.350342	0.661687	-0.256884	-0.694870	-0.115485
23926		3.605073	-2.602344	-1.049110	0.034068	0.173031	-0.727991	-0.693359	0.357422	-0.351318	0.662218	-0.250116	-0.695763	-0.121749
23927		1.522767	-0.644543	-1.036205	0.313250	-0.113511	0.388582	-0.699951	0.353027	-0.343750	0.662789	-0.251165	-0.695920	-0.115420
23928		-0.076913	1.674882	0.800677	-0.379201	-0.149248	0.736773	-0.695068	0.364258	-0.342041	0.661325	-0.261010	-0.694230	-0.112102
23929		-0.753582	-0.051265	-0.424784	-0.782407	-0.144162	0.581619	-0.696777	0.381592	-0.331055	0.658285	-0.272804	-0.692343	-0.113582
23930		-0.337500	-0.981188	0.466794	-0.473772	0.015419	0.235341	-0.682129	0.389893	-0.328857	0.657120	-0.278806	-0.690694	-0.115770
23931		0.015835	0.100064	0.383530	-0.542420	0.053380	0.137930	-0.681152	0.403564	-0.334717	0.655872	-0.284463	-0.688941	-0.119472
23932		1.076979	-0.245133	0.221146	-0.670612	-0.139779	0.286747	-0.656250	0.412598	-0.322266	0.652682	-0.292721	-0.688002	-0.122365
23933		5.958354	-5.573330	1.087107	-0.813397	-0.388652	1.521611	-0.651611	0.442383	-0.306641	0.648529	-0.313058	-0.684158	-0.115467
23934		10.079270	2.450480	3.344373	0.266943	-0.579107	2.878690	-0.606201	0.487549	-0.306396	0.648332	-0.336220	-0.677475	-0.087465
23935		11.590496	9.434157	-1.215700	-2.901572	-0.259558	2.656815	-0.562988	0.555176	-0.266602	0.636060	-0.382190	-0.664367	-0.089305
23936		22.698904	-11.799812	-15.844440	-0.867517	-0.469141	1.705882	-0.536133	0.585693	-0.249268	0.629737	-0.403779	-0.658691	-0.080747
23937		22.374209	-15.597872	-5.452250	1.139234	-0.773016	0.771679	-0.520996	0.596924	-0.261230	0.629769	-0.401971	-0.661847	-0.061386
23938		14.404393	-19.388634	4.976621	-0.280758	0.168895	0.186809	-0.521729	0.605225	-0.256836	0.629879	-0.405689	-0.659313	-0.063057
23939		14.692124	-23.811481	-7.807702	0.485156	-0.062406	-1.351291	-0.545898	0.577393	-0.250977	0.630650	-0.390809	-0.666890	-0.069332
23940		22.358964	-9.977207	-1.706504	1.930965	-0.069272	-2.370751	-0.581543	0.528809	-0.282471	0.636975	-0.355683	-0.680186	-0.071416
23941		18.110748	0.507849	-2.025424	2.408910	0.396286	-2.700866	-0.625244	0.467529	-0.317627	0.647976	-0.312903	-0.690466	-0.074001
23942		8.658005	8.818243	-4.325061	1.511976	0.870525	-2.834665	-0.661865	0.397705	-0.333008	0.658214	-0.275209	-0.695279	-0.087188
23943		4.881722	2.001719	-1.785798	0.074441	0.658017	-1.951350	-0.673828	0.365234	-0.358887	0.661821	-0.256934	-0.696405	-0.104868
23944		3.453278	-3.028433	-1.379351	-0.027100	0.261394	-1.008716	-0.693848	0.350342	-0.351562	0.662631	-0.248100	-0.697358	-0.114276
23945		-0.147980	-1.772930	-1.045254	0.256188	0.120351	-0.411811	-0.691895	0.335693	-0.353271	0.663870	-0.242309	-0.697962	-0.115808
23946		-1.430139	0.800160	-1.064590	-0.410284	0.149079	-0.561349	-0.693604	0.326660	-0.357910	0.663092	-0.240683	-0.697777	-0.124449
23947		-0.820343	-1.528989	-1.557898	-0.288788	0.011362	-0.627823	-0.704102	0.313965	-0.358887	0.661325	-0.237667	-0.699070	-0.132156
23948		0.286588	-2.114583	-0.561256	0.402762	-0.044172	-0.517569	-0.707764	0.307129	-0.354980	0.661263	-0.229968	-0.701592	-0.132720
23949		0.901244	0.212444	0.381235	0.560764	-0.130809	-0.402017	-0.710205	0.293701	-0.352539	0.661041	-0.222102	-0.704713	-0.130670
23950		1.226515	3.434821	0.431533	0.653925	-0.153549	-0.239432	-0.709229	0.278320	-0.364014	0.661093	-0.214918	-0.707667	-0.126387
23951		2.973428	0.632395	4.532614	-0.006658	-0.184636	0.579681	-0.690430	0.303955	-0.362793	0.660342	-0.220478	-0.707580	-0.121111
23952		7.781644	-8.942525	-6.529692	-1.078176	-0.771146	2.561719	-0.666748	0.357422	-0.342285	0.654004	-0.253151	-0.704759	-0.107277
23953		12.574860	-0.916661	-0.166816	0.595476	-0.674512	1.755237	-0.636963	0.380615	-0.338135	0.652102	-0.264655	-0.705282	-0.085425
23954		19.409532	12.161789	-9.341713	0.340267	-0.171086	1.343262	-0.614990	0.402344	-0.333008	0.653055	-0.273950	-0.702464	-0.070815
23955		42.146615	10.460817	3.867951	-0.403705	0.197185	1.660498	-0.587646	0.434570	-0.348633	0.654713	-0.291692	-0.694613	-0.061473
23956		5.071049	-24.732465	-4.363702	-2.465207	-0.113433	1.539741	-0.590576	0.490479	-0.316895	0.645493	-0.325265	-0.687489	-0.069996
23957		-3.742767	-25.922389	-2.263327	1.038995	-0.033507	-0.457308	-0.597168	0.466064	-0.333252	0.648959	-0.313057	-0.690412	-0.064646
23958		17.054484	-4.851536	3.392790	-0.236296	0.157283	-1.382533	-0.602051	0.446289	-0.327393	0.648165	-0.302937	-0.694241	-0.078369
23959		11.073268	-2.439756	-5.157157	0.010919	0.150323	-1.324087	-0.601074	0.417236	-0.327148	0.648123	-0.291246	-0.697933	-0.089448
23960		5.817233	-1.144547	-2.888814	0.274198	0.210630	-1.384417	-0.618408	0.391113	-0.332275	0.649308	-0.276740	-0.701449	-0.098906
23961		7.592502	-3.954406	-1.475632	-0.082287	0.175784	-1.476052	-0.635986	0.363037	-0.334961	0.648630	-0.264275	-0.704895	-0.112077
23962		9.558504	0.447760	0.635897	0.379769	0.137724	-1.381952	-0.642334	0.337402	-0.342041	0.649064	-0.248854	-0.708753	-0.120237
23963		9.328213	5.448856	0.802748	0.300097	0.047967	-1.020441	-0.643799	0.312988	-0.350586	0.648840	-0.237360	-0.711913	-0.125880
23964		9.960322	3.778534	-1.409532	0.003031	-0.033511	-0.549628	-0.644775	0.307129	-0.346680	0.647680	-0.232579	-0.713779	-0.130142
23965		10.396015	1.588138	-2.879954	-0.231236	0.023852	-0.251672	-0.653076	0.302734	-0.343262	0.646811	-0.232260	-0.713905	-0.134276
23966		10.259175	-0.472645	-2.563542	0.005788	0.107686	-0.116693	-0.652588	0.301758	-0.339844	0.647597	-0.231089	-0.713350	-0.135458
23967		10.022977	-0.180318	0.195558	0.203417	0.126167	-0.054688	-0.654541	0.298584	-0.349609	0.649218	-0.228837	-0.712796	-0.134428
23968		9.722581	-1.184373	-0.626853	-0.096873	0.077682	-0.002013	-0.646240	0.292480	-0.352051	0.649633	-0.229575	-0.711974	-0.135518
23969		9.517348	-2.005616	-2.163644	0.007242	0.073992	-0.090157	-0.656006	0.297852	-0.353271	0.650163	-0.228689	-0.711609	-0.136386
23970		9.758354	-0.256453	-1.291835	0.041775	0.114028	-0.092638	-0.653564	0.286377	-0.354248	0.651143	-0.227429	-0.710986	-0.137072
23971		10.001726	0.664648	-0.801694	0.019533	0.095642	0.001737	-0.649902	0.286865	-0.355469	0.652055	-0.227220	-0.710203	-0.137139
23972		10.135554	0.366322	-1.201237	0.029018	0.066989	0.129420	-0.650146	0.303467	-0.364990	0.652957	-0.228119	-0.709303	-0.136011
23973		10.399869	0.525777	-0.153959	0.102380	0.061779	0.269684	-0.648682	0.299316	-0.362793	0.654253	-0.229672	-0.708162	-0.133080
23974		10.281351	1.072636	-0.171687	-0.270354	0.074390	0.449626	-0.644043	0.308838	-0.360596	0.654871	-0.235841	-0.705757	-0.132022
23975		10.156763	0.641473	-1.386004	-0.588454	0.092553	0.662750	-0.640869	0.325684	-0.357910	0.655007	-0.246448	-0.701985	-0.132086
23976		10.279697	0.420802	0.686148	-0.639348	0.192218	0.775162	-0.624756	0.342285	-0.347900	0.655951	-0.258259	-0.696860	-0.131973
23977		8.297075	-2.900500	0.272755	-1.630624	0.211854	0.619701	-0.619385	0.373047	-0.338135	0.653396	-0.276729	-0.690207	-0.141807
23978		6.804902	-4.358374	-2.118720	-1.161542	0.199911	0.012486	-0.624023	0.382080	-0.333984	0.651055	-0.286053	-0.686337	-0.152455
23979		7.066039	-3.713796	-2.247416	-0.311007	0.073257	-0.634771	-0.634766	0.381836	-0.331543	0.649339	-0.283095	-0.687337	-0.160573
23980		10.007321	-7.689649	-5.240350	0.270080	-0.275012	-0.375811	-0.641113	0.377686	-0.330322	0.647166	-0.278323	-0.691379	-0.160335
23981		9.480572	1.025806	-0.063808	0.627462	-0.086344	-0.234022	-0.637451	0.355713	-0.325928	0.648116	-0.271480	-0.694093	-0.156458
23982		10.538917	-1.013272	1.154093	0.011379	-0.148720	-0.193531	-0.645996	0.357178	-0.332520	0.646487	-0.270093	-0.695938	-0.157398
23983		9.498188	-1.545198	0.171748	-0.422392	-0.142150	-0.157911	-0.642578	0.365723	-0.323486	0.643508	-0.272505	-0.696738	-0.161849
23984		9.324995	-1.761513	-1.173022	-0.440001	-0.149905	-0.194090	-0.646240	0.366943	-0.312500	0.640305	-0.274753	-0.697658	-0.166717
23985		9.509523	-2.273141	-1.879779	-0.434653	-0.135287	-0.234428	-0.652832	0.362305	-0.316162	0.637137	-0.276564	-0.698583	-0.171903
23986		9.939315	-0.929698	-2.154579	-0.355208	-0.078509	-0.278055	-0.646240	0.363037	-0.305176	0.634625	-0.277223	-0.699356	-0.176917
23987		9.694372	-0.693485	-1.478046	-0.278928	-0.057447	-0.285171	-0.655029	0.348633	-0.293945	0.632526	-0.277162	-0.700136	-0.181388
23988		10.403734	-0.197118	-1.638764	-0.222633	-0.025255	-0.214336	-0.656006	0.355469	-0.292969	0.631048	-0.277198	-0.700529	-0.184927
23989		10.560999	-0.481020	-2.669636	-0.050852	0.042457	-0.155906	-0.651611	0.350830	-0.304199	0.630889	-0.276233	-0.700576	-0.186731
23990		9.940010	-0.207803	-2.314234	0.213247	0.127137	-0.094482	-0.658691	0.347168	-0.304199	0.632524	-0.273517	-0.700356	-0.186017
23991		9.458235	0.152368	0.166847	0.310081	0.106290	-0.026987	-0.654785	0.350586	-0.303223	0.634453	-0.270674	-0.700287	-0.183856
23992		9.636708	-0.626920	0.016715	0.167961	0.025513	0.039857	-0.650879	0.344482	-0.308350	0.635340	-0.269732	-0.700293	-0.182146
23993		10.022116	-1.883874	-2.439927	0.210109	0.001489	0.018806	-0.657959	0.340088	-0.317139	0.636109	-0.268323	-0.700652	-0.180154
23994		9.748399	-1.979813	-3.247434	0.395408	0.089865	-0.055104	-0.653809	0.338135	-0.317627	0.638098	-0.264584	-0.700965	-0.177408
23995		9.690605	-0.977965	-2.860918	0.486446	0.183365	-0.092422	-0.651123	0.333496	-0.322510	0.641102	-0.259575	-0.700839	-0.174455
23996		9.445231	-0.093118	-0.589123	0.674164	0.184561	-0.098480	-0.659912	0.322998	-0.336914	0.644672	-0.252989	-0.701092	-0.169893
23997		9.867794	0.178839	1.393895	0.431174	0.116764	-0.046894	-0.652344	0.321533	-0.337891	0.646955	-0.248942	-0.701174	-0.166828
23998		9.668104	-0.872120	-0.154863	0.120704	0.058448	-0.009990	-0.659668	0.310547	-0.342529	0.647827	-0.247853	-0.700947	-0.166016
23999		9.621122	-1.975373	-2.461620	0.148438	0.048974	-0.053540	-0.652588	0.319580	-0.337891	0.648610	-0.246173	-0.700988	-0.165286
24000		9.184971	-1.779560	-2.507149	0.499091	0.074969	-0.143630	-0.661133	0.309814	-0.357178	0.650497	-0.240807	-0.701805	-0.162284
24001		8.659126	-1.022724	-1.498668	0.755252	-0.059804	-0.273285	-0.662109	0.297852	-0.354248	0.651667	-0.232464	-0.704583	-0.157648
24002		9.624933	0.039193	-0.475529	0.919359	-0.064704	-0.278020	-0.657227	0.286133	-0.360107	0.653180	-0.222728	-0.707653	-0.151576
24003		10.251583	0.604643	1.119844	0.410921	0.008423	-0.129593	-0.655273	0.284668	-0.354980	0.654151	-0.218300	-0.708685	-0.148984
24004		9.731411	-0.615316	0.697256	-0.081344	0.046774	-0.016867	-0.656494	0.282471	-0.366699	0.654315	-0.218834	-0.708163	-0.149959
24005		9.545940	-0.386337	-0.868560	-0.125068	-0.022221	-0.008662	-0.666260	0.286621	-0.362305	0.653770	-0.219920	-0.708097	-0.151057
24006		9.622781	0.309085	-1.304901	-0.177028	-0.035716	0.047265	-0.653564	0.283203	-0.360840	0.653060	-0.221953	-0.707888	-0.152130
24007		9.826813	-0.259926	-1.099112	-0.233612	-0.034224	0.091688	-0.657471	0.295166	-0.348389	0.652289	-0.224835	-0.707428	-0.153343
24008		9.860421	-0.750699	-0.836420	-0.239392	-0.044470	0.105328	-0.661133	0.295166	-0.357178	0.651422	-0.227913	-0.706994	-0.154483
24009		9.643100	-0.869112	-0.713489	-0.163412	-0.056189	0.110391	-0.659180	0.298584	-0.350830	0.650678	-0.230429	-0.706781	-0.154863
24010		9.725735	-0.569583	-1.036663	-0.180205	-0.063810	0.127090	-0.656494	0.302979	-0.347656	0.649843	-0.233243	-0.706543	-0.155236
24011		9.801884	-0.791118	-1.377178	-0.177967	-0.065098	0.125909	-0.655029	0.308105	-0.348145	0.648996	-0.236031	-0.706317	-0.155596
24012		9.614770	-1.594509	-1.211667	-0.072724	-0.057666	0.090211	-0.652344	0.309326	-0.339600	0.648453	-0.237635	-0.706335	-0.155336
24013		9.565416	-1.423107	-0.780622	-0.049506	-0.059936	0.049392	-0.656250	0.311035	-0.344238	0.647875	-0.238695	-0.706539	-0.155194
24014		9.726227	-1.217537	-1.055266	-0.071191	-0.069226	0.013580	-0.659912	0.313721	-0.338135	0.647084	-0.239628	-0.706881	-0.155498
24015		9.703621	-1.204196	-1.402688	-0.036905	-0.053388	-0.014820	-0.662354	0.311279	-0.343018	0.646475	-0.240004	-0.707249	-0.155779
24016		9.570884	-0.742409	-1.271067	0.021115	-0.048061	-0.022559	-0.659912	0.315186	-0.339111	0.646076	-0.239824	-0.707710	-0.155615
24017		9.604128	-0.348728	-0.981046	-0.024474	-0.054138	0.003863	-0.651367	0.315430	-0.334961	0.645536	-0.240267	-0.708050	-0.155630
24018		9.731131	-0.730050	-1.171085	-0.072857	-0.065927	0.030286	-0.653809	0.307617	-0.342773	0.644797	-0.241363	-0.708306	-0.155832
24019		9.626980	-0.840106	-1.370063	-0.044977	-0.054514	0.037911	-0.654785	0.321289	-0.345703	0.644264	-0.242260	-0.708505	-0.155739
24020		9.743055	-0.620734	-1.168568	-0.031030	-0.041389	0.047915	-0.661377	0.327637	-0.329590	0.643909	-0.243127	-0.708585	-0.155492
24021		9.870455	-0.800529	-1.148078	-0.100225	-0.053586	0.051975	-0.655273	0.323730	-0.339600	0.643228	-0.244620	-0.708619	-0.155813
24022		9.687497	-1.398224	-1.366592	-0.090119	-0.051064	0.031487	-0.659180	0.320557	-0.336670	0.642571	-0.245835	-0.708711	-0.156197
24023		9.673176	-1.264235	-1.209434	-0.062261	-0.050587	0.003455	-0.657227	0.325439	-0.326660	0.641946	-0.246565	-0.708945	-0.156552
24024		9.703369	-0.873367	-1.073659	-0.049207	-0.048729	-0.007633	-0.664062	0.320312	-0.323975	0.641349	-0.247098	-0.709222	-0.156898
24025		9.706792	-0.742668	-1.295860	-0.080501	-0.040111	0.001376	-0.664307	0.316650	-0.324463	0.640747	-0.247931	-0.709349	-0.157472
24026		9.599357	-0.992832	-1.422097	-0.048794	-0.035170	0.003832	-0.656250	0.327148	-0.320312	0.640294	-0.248514	-0.709492	-0.157753
24027		9.616944	-0.715710	-1.210503	-0.076052	-0.044792	0.004230	-0.653320	0.320801	-0.314697	0.639669	-0.249361	-0.709646	-0.158257
24028		9.722217	-0.842947	-1.280328	-0.110686	-0.045674	0.015745	-0.663574	0.328613	-0.322510	0.638949	-0.250578	-0.709706	-0.158969
24029		9.701633	-0.949834	-1.319935	-0.077908	-0.039235	0.017864	-0.657471	0.327637	-0.315674	0.638395	-0.251543	-0.709768	-0.159393
24030		9.652559	-0.908284	-1.356450	-0.049875	-0.026150	0.022931	-0.659668	0.326904	-0.309814	0.638053	-0.252305	-0.709766	-0.159572
24031		9.680089	-0.883013	-1.420929	-0.060209	-0.009185	0.024910	-0.658691	0.329346	-0.322998	0.637827	-0.253128	-0.709605	-0.159885
24032		9.654555	-1.254880	-1.387396	-0.030652	-0.006931	0.014452	-0.661621	0.332031	-0.324219	0.637706	-0.253618	-0.709512	-0.160006
24033		9.655617	-1.057011	-1.264573	-0.023795	-0.019024	-0.003001	-0.654785	0.330811	-0.324463	0.637464	-0.253923	-0.709584	-0.160167
24034		9.702484	-1.044162	-1.400513	-0.032620	-0.020528	-0.009333	-0.655518	0.337646	-0.321289	0.637172	-0.254246	-0.709668	-0.160444
24035		9.616975	-0.934083	-1.375600	0.010183	-0.016212	-0.014062	-0.654297	0.331787	-0.318359	0.637041	-0.254192	-0.709814	-0.160406
24036		9.675190	-0.808864	-1.363342	-0.002796	-0.006811	-0.007686	-0.661621	0.325195	-0.312744	0.636964	-0.254267	-0.709844	-0.160457
24037		9.683057	-0.993041	-1.424180	-0.002982	-0.002165	-0.007038	-0.661621	0.332275	-0.323730	0.636921	-0.254323	-0.709847	-0.160526
24038		9.637548	-0.913152	-1.356422	0.018187	-0.008162	-0.006568	-0.653320	0.322998	-0.321777	0.636903	-0.254239	-0.709928	-0.160372
24039		9.650705	-0.845106	-1.375504	0.005888	-0.000495	-0.002066	-0.660889	0.324463	-0.311768	0.636928	-0.254260	-0.709915	-0.160301
24040		9.657416	-0.986157	-1.378822	0.024849	0.001420	-0.001666	-0.654053	0.321289	-0.316650	0.637014	-0.254136	-0.709927	-0.160095
24041		9.643625	-0.946647	-1.307964	0.026709	0.002133	-0.000395	-0.659180	0.329834	-0.318604	0.637125	-0.254000	-0.709933	-0.159845
24042		9.633256	-0.929410	-1.337346	0.023254	-0.000840	-0.001212	-0.655273	0.333008	-0.321777	0.637195	-0.253907	-0.709951	-0.159634
24043		9.673605	-0.916115	-1.337343	-0.000098	-0.003943	-0.001107	-0.657715	0.328125	-0.314209	0.637168	-0.254015	-0.709942	-0.159611
24044		9.642437	-0.943459	-1.321436	0.002310	-0.001644	-0.001251	-0.662109	0.337402	-0.323242	0.637159	-0.254090	-0.709927	-0.159592
24045		9.638116	-0.783580	-1.241969	-0.005706	-0.006475	0.003856	-0.659912	0.328857	-0.320068	0.637099	-0.254297	-0.709910	-0.159579
24046		9.666800	-1.059255	-1.451099	-0.008043	-0.004167	0.005200	-0.656006	0.327393	-0.324707	0.637054	-0.254511	-0.709873	-0.159580
24047		9.610494	-1.020103	-1.392922	0.007201	-0.001365	0.000618	-0.652588	0.322754	-0.315186	0.637082	-0.254551	-0.709858	-0.159471
24048		9.663175	-0.986777	-1.387420	0.003691	0.005920	-0.000971	-0.654297	0.328613	-0.315186	0.637151	-0.254588	-0.709789	-0.159446
24049		9.648096	-1.025487	-1.358479	0.012159	0.013491	-0.005955	-0.660400	0.325928	-0.321045	0.637301	-0.254513	-0.709687	-0.159419
24050		9.664009	-0.943229	-1.312842	0.020204	0.008728	-0.010195	-0.658691	0.334473	-0.310547	0.637431	-0.254330	-0.709657	-0.159325
24051		9.678815	-0.928859	-1.279923	0.012557	0.003528	-0.007333	-0.658936	0.328125	-0.326172	0.637480	-0.254280	-0.709637	-0.159303
24052		9.668056	-0.920890	-1.340670	-0.003817	0.005869	-0.007046	-0.660645	0.329834	-0.325684	0.637521	-0.254323	-0.709568	-0.159374
24053		9.633034	-0.953373	-1.409789	0.003941	0.009697	-0.004024	-0.654053	0.325439	-0.312744	0.637625	-0.254327	-0.709474	-0.159370
24054		9.696659	-0.910457	-1.321659	0.010749	0.011692	-0.003499	-0.652344	0.328613	-0.316650	0.637755	-0.254285	-0.709379	-0.159339
24055		9.651044	-0.991858	-1.293708	0.005070	0.015802	-0.003134	-0.661377	0.334717	-0.324951	0.637910	-0.254289	-0.709234	-0.159358
24056		9.641875	-0.961692	-1.288419	0.008037	0.013081	-0.006164	-0.661865	0.330078	-0.321289	0.638049	-0.254249	-0.709124	-0.159357
24057		9.627836	-0.979038	-1.331762	0.006556	0.015601	-0.005868	-0.663574	0.333740	-0.321045	0.638201	-0.254210	-0.708995	-0.159384
24058		9.664952	-0.917315	-1.314488	0.005281	0.014303	-0.007475	-0.652832	0.332764	-0.323486	0.638330	-0.254179	-0.708877	-0.159440
24059		9.638776	-1.010874	-1.340989	-0.001104	0.023135	-0.007589	-0.658203	0.326172	-0.316162	0.638530	-0.254182	-0.708670	-0.159557
24060		9.662766	-0.917866	-1.254817	0.023877	0.021228	-0.009680	-0.655762	0.330566	-0.327637	0.638772	-0.253957	-0.708547	-0.159492
24061		9.660695	-0.977295	-1.287408	0.016979	0.018896	-0.007504	-0.659912	0.322998	-0.318848	0.638995	-0.253811	-0.708413	-0.159424
24062		9.657289	-0.961025	-1.335566	0.011854	0.019474	-0.011205	-0.652832	0.329102	-0.324219	0.639181	-0.253660	-0.708290	-0.159464
24063		9.659731	-1.001495	-1.249901	0.017162	0.012124	-0.013123	-0.652344	0.328369	-0.325439	0.639329	-0.253481	-0.708229	-0.159428
24064		9.642944	-0.974111	-1.267669	0.013743	0.008488	-0.014032	-0.659180	0.331543	-0.327637	0.639434	-0.253325	-0.708194	-0.159413
24065		9.620868	-0.979434	-1.316138	0.016012	0.006677	-0.013919	-0.661621	0.327637	-0.316650	0.639528	-0.253158	-0.708177	-0.159377
24066		9.668071	-0.933747	-1.270089	0.011499	0.009627	-0.014238	-0.653809	0.323242	-0.325684	0.639610	-0.253025	-0.708136	-0.159441
24067		9.683561	-0.932527	-1.254553	0.004818	0.013218	-0.016208	-0.656738	0.325195	-0.325195	0.639723	-0.252896	-0.708059	-0.159533
24068		9.644015	-1.025446	-1.281701	0.002461	0.011081	-0.017420	-0.655029	0.327637	-0.325928	0.639804	-0.252785	-0.707997	-0.159660
24069		9.650852	-0.941135	-1.272415	0.014284	0.007927	-0.020432	-0.661865	0.335205	-0.322021	0.639890	-0.252568	-0.707989	-0.159694
24070		9.695787	-0.860081	-1.202402	0.005760	0.011430	-0.017523	-0.658936	0.324951	-0.311768	0.639969	-0.252470	-0.707921	-0.159835
24071		9.639311	-0.950041	-1.284119	0.004243	0.016738	-0.012163	-0.656006	0.332031	-0.325439	0.640085	-0.252407	-0.707803	-0.159991
24072		9.646819	-0.877126	-1.276287	0.014239	0.012021	-0.009109	-0.666992	0.328125	-0.328857	0.640225	-0.252303	-0.707720	-0.159964
24073		9.632126	-0.997682	-1.276589	0.015018	0.008287	-0.011246	-0.649414	0.324707	-0.324219	0.640327	-0.252152	-0.707688	-0.159931
24074		9.649400	-0.915753	-1.189675	0.014442	0.007374	-0.009738	-0.655762	0.330811	-0.326172	0.640430	-0.252031	-0.707650	-0.159877
24075		9.688297	-0.943280	-1.176952	0.010107	0.008649	-0.013045	-0.651855	0.323486	-0.324707	0.640520	-0.251929	-0.707598	-0.159907
24076		9.648326	-0.998152	-1.273380	0.005012	0.006236	-0.014403	-0.652100	0.327393	-0.325928	0.640572	-0.251839	-0.707569	-0.159972
24077		9.665044	-0.875862	-1.255102	0.007380	0.009197	-0.014458	-0.652100	0.331299	-0.326660	0.640659	-0.251737	-0.707514	-0.160030
24078		9.676416	-0.967688	-1.236557	0.003956	0.004734	-0.014098	-0.649658	0.320068	-0.327148	0.640695	-0.251690	-0.707480	-0.160106
24079		9.651597	-0.912068	-1.212623	0.006877	0.001027	-0.014487	-0.654785	0.326172	-0.326660	0.640715	-0.251578	-0.707499	-0.160119
24080		9.659400	-0.903966	-1.190810	0.001585	-0.004986	-0.014136	-0.660400	0.329834	-0.331787	0.640657	-0.251547	-0.707548	-0.160181
24081		9.639928	-0.931599	-1.234137	0.004462	-0.002097	-0.013077	-0.657471	0.323730	-0.323242	0.640641	-0.251496	-0.707575	-0.160210
24082		9.652005	-0.852348	-1.250688	0.008706	-0.001377	-0.009501	-0.662109	0.332031	-0.319336	0.640636	-0.251438	-0.707601	-0.160201
24083		9.710345	-0.888106	-1.279702	0.009728	-0.001522	-0.007274	-0.657227	0.328369	-0.330078	0.640621	-0.251434	-0.707614	-0.160212
24084		9.664202	-1.015919	-1.231021	0.018648	0.004312	-0.008614	-0.658447	0.329834	-0.324707	0.640715	-0.251298	-0.707602	-0.160101
24085		9.633784	-0.973265	-1.202408	0.017059	0.001403	-0.014313	-0.661133	0.326416	-0.325195	0.640752	-0.251149	-0.707628	-0.160074
24086		9.664914	-1.015812	-1.245003	0.018724	0.001001	-0.021200	-0.655273	0.323975	-0.320068	0.640775	-0.250908	-0.707690	-0.160082
24087		9.646225	-0.899598	-1.249533	0.015082	-0.001791	-0.023928	-0.661133	0.334473	-0.330811	0.640752	-0.250685	-0.707776	-0.160146
24088		9.670490	-0.854105	-1.241020	0.004199	-0.002744	-0.019793	-0.657471	0.323242	-0.325928	0.640710	-0.250612	-0.707816	-0.160253
24089		9.691819	-0.849634	-1.236261	0.004919	-0.005312	-0.014318	-0.657715	0.327637	-0.331299	0.640655	-0.250546	-0.707880	-0.160291
24090		9.664786	-0.905799	-1.215374	-0.001981	-0.006164	-0.013324	-0.654053	0.328857	-0.323730	0.640585	-0.250558	-0.707924	-0.160364
24091		9.668155	-0.957346	-1.274326	-0.013709	-0.001903	-0.014309	-0.655273	0.330811	-0.326416	0.640498	-0.250671	-0.707908	-0.160599
24092		9.658548	-0.918238	-1.257491	-0.011559	0.001253	-0.016281	-0.657959	0.324463	-0.328369	0.640447	-0.250747	-0.707874	-0.160834
24093		9.669684	-0.822387	-1.255537	-0.010551	0.000292	-0.012786	-0.664795	0.324951	-0.330078	0.640403	-0.250808	-0.707854	-0.161003
24094		9.693919	-0.841376	-1.241520	-0.007261	0.002806	-0.007903	-0.653809	0.325195	-0.334229	0.640397	-0.250873	-0.707810	-0.161116
24095		9.661380	-0.922722	-1.246240	-0.003991	0.001533	-0.005465	-0.654785	0.331299	-0.321533	0.640420	-0.250938	-0.707762	-0.161136
24096		9.659614	-0.834743	-1.229724	-0.001406	0.002826	-0.002430	-0.655029	0.326416	-0.322998	0.640431	-0.251065	-0.707693	-0.161201
24097		9.672723	-0.959321	-1.249344	-0.016260	0.001909	-0.002582	-0.663574	0.327148	-0.324707	0.640392	-0.251280	-0.707612	-0.161373
24098		9.681744	-0.921051	-1.268769	-0.008089	0.001932	-0.006951	-0.652832	0.325928	-0.320557	0.640365	-0.251382	-0.707569	-0.161514
24099		9.630197	-0.941899	-1.241257	-0.007769	0.005841	-0.005303	-0.653076	0.323975	-0.321533	0.640379	-0.251499	-0.707483	-0.161650
24100		9.686934	-0.885019	-1.237693	-0.000579	-0.001570	-0.004651	-0.659180	0.320557	-0.328613	0.640355	-0.251565	-0.707474	-0.161682
24101		9.701448	-0.897419	-1.257624	-0.004563	-0.004646	-0.005225	-0.653076	0.333984	-0.327881	0.640304	-0.251623	-0.707495	-0.161704
24102		9.664716	-0.885362	-1.273843	0.004584	0.000356	-0.004740	-0.659668	0.329590	-0.334229	0.640327	-0.251687	-0.707453	-0.161696
24103		9.645446	-0.933273	-1.213615	0.002130	-0.000625	-0.004417	-0.656494	0.325684	-0.322021	0.640344	-0.251730	-0.707429	-0.161666
24104		9.668400	-0.882090	-1.201717	-0.001045	0.003926	-0.005853	-0.652832	0.325195	-0.329346	0.640361	-0.251781	-0.707379	-0.161737
24105		9.675585	-0.825684	-1.215043	-0.003798	0.005789	-0.001016	-0.660400	0.329346	-0.317383	0.640422	-0.251879	-0.707286	-0.161752
24106		9.678265	-0.939336	-1.280647	-0.000590	0.000575	0.000331	-0.657715	0.318115	-0.330078	0.640402	-0.252016	-0.707243	-0.161806
24107		9.655626	-0.903925	-1.233842	0.008403	-0.003951	0.001170	-0.659180	0.329102	-0.322510	0.640419	-0.252001	-0.707271	-0.161641
24108		9.647246	-0.888214	-1.222914	0.004117	-0.007151	0.001396	-0.656006	0.325928	-0.322998	0.640364	-0.252112	-0.707293	-0.161589
24109		9.650842	-1.000089	-1.260855	0.003029	-0.000415	0.000613	-0.651855	0.324219	-0.329346	0.640371	-0.252194	-0.707265	-0.161552
24110		9.657575	-0.905953	-1.193050	0.009399	0.002001	-0.002673	-0.653076	0.325684	-0.320312	0.640440	-0.252168	-0.707237	-0.161441
24111		9.667436	-0.952093	-1.241764	0.002084	-0.000783	-0.003060	-0.659912	0.321289	-0.322510	0.640429	-0.252234	-0.707221	-0.161452
24112		9.663469	-0.925454	-1.263867	0.008428	-0.005279	-0.005079	-0.661377	0.325439	-0.330322	0.640395	-0.252196	-0.707280	-0.161389
24113		9.645948	-0.888860	-1.254161	0.007810	-0.006344	-0.002213	-0.659668	0.328369	-0.327148	0.640375	-0.252195	-0.707325	-0.161274
24114		9.683644	-0.902839	-1.226594	0.001181	-0.006423	-0.001929	-0.656494	0.333984	-0.322510	0.640325	-0.252278	-0.707347	-0.161243
24115		9.683282	-0.914071	-1.259413	-0.000639	-0.002550	-0.002026	-0.659668	0.324219	-0.327637	0.640291	-0.252420	-0.707318	-0.161287
24116		9.645438	-0.973079	-1.315973	-0.000529	-0.003720	-0.003560	-0.659424	0.328125	-0.326904	0.640261	-0.252467	-0.707332	-0.161271
24117		9.677510	-0.862211	-1.261402	0.004921	-0.002491	-0.003183	-0.662354	0.327148	-0.330811	0.640256	-0.252497	-0.707336	-0.161226
24118		9.688310	-0.867738	-1.198787	0.001081	0.006111	0.000870	-0.663574	0.327881	-0.322266	0.640333	-0.252554	-0.707255	-0.161185
24119		9.633287	-0.965718	-1.269118	-0.000226	0.004643	0.000620	-0.663818	0.322754	-0.325439	0.640360	-0.252651	-0.707189	-0.161215
24120		9.657041	-0.925181	-1.259728	0.001960	-0.000434	-0.000259	-0.653564	0.328857	-0.330078	0.640361	-0.252686	-0.707185	-0.161174
24121		9.695574	-0.880746	-1.222811	-0.012395	-0.002250	0.001975	-0.664062	0.326904	-0.328369	0.640333	-0.252899	-0.707126	-0.161210
24122		9.646626	-0.822803	-1.232464	-0.021361	0.001457	0.008477	-0.660400	0.325928	-0.328369	0.640303	-0.253208	-0.707021	-0.161305
24123		9.647888	-0.935218	-1.312306	-0.014037	-0.000368	0.013755	-0.657959	0.327881	-0.326904	0.640297	-0.253504	-0.706927	-0.161275
24124		9.694337	-0.939496	-1.215861	0.000223	0.003436	0.011789	-0.664551	0.331299	-0.328125	0.640364	-0.253678	-0.706831	-0.161158
24125		9.699373	-1.113377	-1.217895	0.002001	0.004835	0.007082	-0.658447	0.325684	-0.325195	0.640431	-0.253798	-0.706744	-0.161081
24126		9.634013	-1.108068	-1.261009	0.006717	-0.002575	-0.006712	-0.660645	0.323730	-0.337891	0.640422	-0.253756	-0.706777	-0.161039
24127		9.636838	-0.991954	-1.231169	0.019123	-0.002476	-0.013667	-0.651611	0.326416	-0.319092	0.640484	-0.253483	-0.706865	-0.160837
24128		9.669936	-0.820485	-1.167931	0.014727	-0.004508	-0.011906	-0.665039	0.328857	-0.323975	0.640458	-0.253385	-0.706931	-0.160806
24129		9.662480	-0.873893	-1.304348	-0.000580	-0.001574	-0.004650	-0.663086	0.332520	-0.325195	0.640421	-0.253437	-0.706935	-0.160852
24130		9.673907	-0.900214	-1.276431	0.014899	0.001082	-0.001209	-0.654053	0.331299	-0.320312	0.640470	-0.253411	-0.706925	-0.160741
24131		9.683206	-0.943921	-1.188183	0.008608	-0.001840	0.000635	-0.652100	0.333008	-0.327148	0.640472	-0.253489	-0.706908	-0.160685
24132		9.654614	-1.023585	-1.242791	0.010851	-0.000670	-0.001603	-0.653564	0.331055	-0.327393	0.640516	-0.253510	-0.706886	-0.160577
24133		9.620591	-0.966463	-1.239507	0.005190	-0.001709	-0.003893	-0.660889	0.325928	-0.325928	0.640528	-0.253540	-0.706875	-0.160527
24134		9.655268	-0.969070	-1.251229	0.002990	-0.005694	-0.006723	-0.660645	0.333740	-0.318359	0.640476	-0.253529	-0.706930	-0.160508
24135		9.690105	-0.965461	-1.247165	0.007273	-0.002495	-0.006954	-0.656982	0.335449	-0.322754	0.640433	-0.253564	-0.706945	-0.160560
24136		9.646977	-0.961896	-1.271654	0.008404	0.001470	-0.004996	-0.660400	0.339355	-0.321289	0.640455	-0.253598	-0.706912	-0.160562
24137		9.652612	-0.943210	-1.260054	0.016598	-0.002292	-0.005741	-0.655273	0.333008	-0.325195	0.640455	-0.253597	-0.706923	-0.160521
24138		9.657226	-0.915446	-1.246309	0.013733	-0.002223	-0.003083	-0.649902	0.327881	-0.326660	0.640478	-0.253589	-0.706927	-0.160418
24139		9.669644	-0.916196	-1.276853	0.012992	-0.005905	-0.001124	-0.652588	0.329834	-0.326172	0.640488	-0.253578	-0.706961	-0.160249
24140		9.651073	-0.980170	-1.235906	0.009116	-0.004882	-0.001962	-0.656738	0.328125	-0.329834	0.640486	-0.253599	-0.706979	-0.160143
24141		9.653024	-0.992561	-1.225977	0.014464	-0.004639	-0.005036	-0.656494	0.328857	-0.324463	0.640505	-0.253514	-0.707028	-0.159983
24142		9.672673	-0.925370	-1.239349	0.005746	-0.001627	-0.004137	-0.655518	0.341064	-0.329590	0.640504	-0.253529	-0.707032	-0.159948
24143		9.656700	-0.845590	-1.238959	0.003875	-0.001024	0.000838	-0.663574	0.326904	-0.325439	0.640527	-0.253677	-0.706967	-0.159910
24144		9.679802	-0.933473	-1.248906	0.006440	0.001619	0.010117	-0.668457	0.330322	-0.326172	0.640577	-0.253771	-0.706922	-0.159758
24145		9.638084	-0.987470	-1.222900	0.009957	-0.000359	0.006952	-0.657471	0.329834	-0.328369	0.640608	-0.253825	-0.706908	-0.159612
24146		9.669977	-1.032693	-1.237241	-0.000819	-0.003169	0.003407	-0.659180	0.332031	-0.327881	0.640600	-0.253946	-0.706887	-0.159543
24147		9.676938	-1.045499	-1.263694	0.009558	-0.006604	-0.004381	-0.656494	0.322998	-0.326416	0.640574	-0.253936	-0.706936	-0.159450
24148		9.628409	-0.968310	-1.226962	0.000970	-0.006242	-0.003831	-0.657227	0.334717	-0.330078	0.640529	-0.253938	-0.706989	-0.159390
24149		9.652092	-0.920851	-1.204258	0.003872	-0.009280	-0.004127	-0.659668	0.331055	-0.322998	0.640473	-0.253993	-0.707034	-0.159325
24150		9.661717	-0.961272	-1.239729	-0.005565	-0.011424	-0.000080	-0.656250	0.329102	-0.323242	0.640345	-0.254163	-0.707084	-0.159349
24151		9.646150	-0.976822	-1.302401	0.001567	-0.009119	-0.001711	-0.659180	0.332031	-0.322021	0.640266	-0.254243	-0.707135	-0.159310
24152		9.653308	-0.977409	-1.298163	0.002091	-0.008368	-0.001867	-0.653076	0.338379	-0.324219	0.640184	-0.254338	-0.707178	-0.159298
24153		9.684073	-1.087383	-1.216390	0.010059	-0.004374	-0.005725	-0.652100	0.329590	-0.335205	0.640172	-0.254380	-0.707182	-0.159262
24154		9.652445	-0.994698	-1.226861	0.004786	-0.004989	-0.011520	-0.651611	0.328857	-0.331055	0.640181	-0.254297	-0.707222	-0.159178
24155		9.646266	-0.959389	-1.276463	0.000996	-0.006775	-0.011348	-0.665039	0.327148	-0.325928	0.640146	-0.254262	-0.707273	-0.159149
24156		9.624557	-1.015995	-1.291838	0.002475	-0.007809	-0.012810	-0.653076	0.324707	-0.322021	0.640059	-0.254187	-0.707374	-0.159172
24157		9.653979	-0.948441	-1.257722	0.001339	-0.006504	-0.013506	-0.663574	0.328125	-0.322510	0.639984	-0.254137	-0.707449	-0.159217
24158		9.677028	-0.963398	-1.259207	-0.000724	-0.010175	-0.012968	-0.658447	0.337158	-0.322021	0.639853	-0.254119	-0.707557	-0.159293
24159		9.626962	-0.978227	-1.326128	0.001638	-0.006387	-0.014307	-0.656006	0.336182	-0.318359	0.639765	-0.254146	-0.707601	-0.159410
24160		9.646351	-0.955832	-1.316414	0.005175	-0.001585	-0.011331	-0.648682	0.331299	-0.322266	0.639724	-0.254179	-0.707603	-0.159512
24161		9.675340	-0.941779	-1.273718	-0.000483	-0.005749	-0.009886	-0.648926	0.332031	-0.322021	0.639666	-0.254235	-0.707623	-0.159567
24162		9.681139	-0.995337	-1.290348	-0.006179	-0.006136	-0.012077	-0.655029	0.325439	-0.327393	0.639581	-0.254324	-0.707639	-0.159695
24163		9.662638	-0.952987	-1.293955	0.004983	-0.002881	-0.012063	-0.659180	0.328369	-0.318604	0.639579	-0.254221	-0.707687	-0.159657
24164		9.654892	-0.922474	-1.251092	0.003884	-0.005354	-0.009123	-0.657471	0.332764	-0.321045	0.639507	-0.254218	-0.707744	-0.159698
24165		9.659845	-0.920540	-1.288869	-0.000211	-0.008081	-0.006877	-0.659668	0.330566	-0.328125	0.639414	-0.254302	-0.707786	-0.159748
24166		9.702813	-0.933052	-1.297533	-0.008294	-0.002517	-0.003946	-0.656494	0.326416	-0.326172	0.639382	-0.254406	-0.707768	-0.159790
24167		9.735288	-0.963798	-1.281351	-0.014505	-0.006773	-0.002255	-0.658203	0.322998	-0.321045	0.639296	-0.254562	-0.707777	-0.159847
24168		9.707626	-0.883704	-1.361151	-0.023483	-0.009839	-0.001886	-0.660645	0.333740	-0.313232	0.639131	-0.254788	-0.707810	-0.159998
24169		9.695195	-0.910410	-1.264676	-0.065299	-0.019334	-0.000800	-0.646240	0.326416	-0.318848	0.638704	-0.255503	-0.707798	-0.160613
24170		9.654407	-1.004660	-1.194172	-0.039587	-0.035709	-0.004849	-0.652588	0.334961	-0.319336	0.638270	-0.255937	-0.707979	-0.160853
24171		9.573613	-0.853071	-1.072836	-0.054275	-0.046115	-0.005398	-0.658447	0.329102	-0.320312	0.637685	-0.256555	-0.708195	-0.161236
24172		9.538299	-0.994326	-1.128238	-0.107348	-0.046266	-0.002854	-0.658203	0.334961	-0.313721	0.636938	-0.257535	-0.708333	-0.162017
24173		9.521178	-1.136442	-1.239396	-0.136223	-0.056049	-0.017892	-0.659424	0.339355	-0.324219	0.635952	-0.258705	-0.708517	-0.163217
24174		9.566520	-1.182489	-1.292738	-0.149077	-0.070494	-0.036081	-0.662598	0.340576	-0.318115	0.634815	-0.259807	-0.708830	-0.164529
24175		9.660859	-1.209212	-1.204600	-0.110085	-0.071463	-0.054833	-0.667236	0.336426	-0.312500	0.633732	-0.260451	-0.709294	-0.165680
24176		9.637058	-1.025545	-1.276064	-0.086866	-0.064006	-0.067401	-0.658203	0.340088	-0.311279	0.632743	-0.260755	-0.709813	-0.166761
24177		9.606132	-0.959070	-1.357464	-0.089383	-0.067714	-0.079622	-0.655518	0.340820	-0.312256	0.631704	-0.261034	-0.710354	-0.167952
24178		9.577845	-0.623887	-1.090956	-0.137006	-0.074982	-0.084331	-0.655762	0.336426	-0.302246	0.630454	-0.261667	-0.710851	-0.169553
24179		9.562535	-1.114849	-1.072923	-0.181264	-0.090289	-0.088164	-0.656250	0.330322	-0.305176	0.628878	-0.262648	-0.711400	-0.171574
24180		9.549889	-0.573058	-0.503568	-0.217439	-0.127568	-0.106658	-0.671875	0.336426	-0.299561	0.626842	-0.263742	-0.712240	-0.173849
24181		9.619491	-1.426788	-1.533539	-0.339619	-0.151696	-0.123006	-0.666504	0.333740	-0.283936	0.624102	-0.265730	-0.713049	-0.177328
24182		9.249336	-1.208531	-2.373676	-0.186818	-0.123829	-0.170900	-0.663574	0.329346	-0.286377	0.621966	-0.266070	-0.714126	-0.179970
24183		9.503602	-1.008647	-2.539788	-0.157707	-0.078353	-0.189079	-0.665039	0.329834	-0.280518	0.620327	-0.265867	-0.714969	-0.182558
24184		9.892000	-0.934113	-2.406016	-0.049578	-0.018337	-0.213971	-0.671631	0.320312	-0.282715	0.619505	-0.264504	-0.715661	-0.184609
24185		9.825996	-0.612372	-1.701197	-0.056221	0.025410	-0.222296	-0.670654	0.322021	-0.278564	0.619039	-0.262924	-0.716060	-0.186868
24186		9.766389	-0.629973	-2.334579	-0.063961	0.058646	-0.219858	-0.670410	0.325195	-0.282471	0.618824	-0.261424	-0.716144	-0.189348
24187		9.832254	-0.397470	-1.982766	-0.000320	0.096632	-0.217065	-0.672119	0.320068	-0.288330	0.619176	-0.259408	-0.716039	-0.191355
24188		9.794663	-0.298183	-1.874939	0.059823	0.129964	-0.196766	-0.672119	0.310791	-0.297607	0.620087	-0.256984	-0.715757	-0.192724
24189		9.667442	0.052563	-1.675857	0.104290	0.150182	-0.171434	-0.675537	0.304443	-0.294678	0.621419	-0.254301	-0.715359	-0.193471
24190		9.686014	0.181465	-1.391129	0.080295	0.163692	-0.118868	-0.666260	0.307617	-0.294189	0.622879	-0.252240	-0.714644	-0.194116
24191		9.702542	0.183916	-1.800841	0.072460	0.172846	-0.071062	-0.679443	0.295166	-0.295410	0.624499	-0.250739	-0.713642	-0.194540
24192		9.749661	-0.395215	-1.997337	0.043244	0.207325	-0.044524	-0.668213	0.301758	-0.305176	0.626361	-0.249500	-0.712286	-0.195117
24193		9.799831	-0.673090	-1.807568	0.138632	0.239368	-0.056281	-0.667236	0.297607	-0.318115	0.628821	-0.247384	-0.710888	-0.194994
24194		9.922725	-0.386179	-2.038978	0.104699	0.280429	-0.053833	-0.661621	0.305176	-0.315430	0.631586	-0.245379	-0.709078	-0.195186
24195		10.046041	-0.007802	-2.274068	0.182161	0.325987	-0.032409	-0.671143	0.299561	-0.329102	0.634986	-0.242981	-0.706976	-0.194776
24196		10.321938	0.853061	-2.504081	0.298635	0.421935	0.061834	-0.662842	0.297363	-0.335693	0.639813	-0.240149	-0.704126	-0.192808
24197		10.257769	2.059097	-1.892380	0.528193	0.498060	0.248813	-0.660156	0.296875	-0.350342	0.646398	-0.236944	-0.700607	-0.187556
24198		10.131172	3.184245	-1.517565	0.581337	0.570175	0.543055	-0.650146	0.290527	-0.365479	0.654387	-0.235665	-0.695679	-0.179639
24199		9.880930	2.861459	-0.691265	0.552634	0.543606	0.870573	-0.639893	0.307373	-0.368408	0.662686	-0.237394	-0.689846	-0.169127
24200		9.943881	0.748052	-0.498233	0.407451	0.359782	1.027838	-0.638916	0.314697	-0.388916	0.669091	-0.242163	-0.684589	-0.158153
24201		8.430484	-4.208756	-3.490513	0.364977	-0.023311	0.949016	-0.625977	0.336914	-0.394775	0.671846	-0.247171	-0.682610	-0.146878
24202		9.144590	-5.904231	-5.956463	1.625981	-0.540040	0.624341	-0.637939	0.330811	-0.387695	0.673287	-0.239740	-0.688011	-0.125893
24203		9.270073	-2.051478	-3.100900	1.896754	-0.615609	0.623934	-0.642334	0.327148	-0.404785	0.674378	-0.230078	-0.694108	-0.102431
24204		8.598361	-0.862572	-0.832128	0.622745	-0.857484	0.614906	-0.642822	0.327393	-0.396973	0.669431	-0.231206	-0.700317	-0.089228
24205		8.467944	-1.922963	-0.631597	-0.435557	-0.973940	0.606320	-0.655029	0.349854	-0.377686	0.660250	-0.241154	-0.706183	-0.084971
24206		8.396478	-3.647739	-1.147466	-1.103282	-0.920851	0.448239	-0.658447	0.359619	-0.366699	0.649139	-0.255132	-0.711171	-0.088100
24207		8.304456	-2.931810	-0.630232	-0.882800	-0.564581	0.205540	-0.661865	0.372559	-0.354248	0.641523	-0.264573	-0.714108	-0.092196
24208		8.279657	-3.273253	0.057030	-0.862074	-0.437824	-0.064512	-0.671387	0.374512	-0.333496	0.634668	-0.271359	-0.716801	-0.098779
24209		8.474332	-3.622619	0.127951	-0.570501	-0.456039	-0.375620	-0.686035	0.386719	-0.334229	0.628139	-0.273133	-0.720945	-0.105254
24210		8.920728	-2.524058	0.140867	-0.147084	-0.424508	-0.608291	-0.681396	0.369385	-0.325928	0.622976	-0.269433	-0.726114	-0.109842
24211		9.334849	-2.141272	0.493805	0.001568	-0.404585	-0.753029	-0.701904	0.361084	-0.322754	0.618234	-0.263209	-0.731744	-0.114268
24212		9.896970	-1.333793	-0.023144	0.154449	-0.387427	-0.857109	-0.708496	0.347656	-0.318359	0.613929	-0.254795	-0.737708	-0.118144
24213		11.176259	-4.108859	-0.119474	0.502145	-0.226068	-0.825744	-0.709717	0.319092	-0.319092	0.612177	-0.243729	-0.742736	-0.119075
24214		12.218847	-0.594473	2.321913	1.291123	-0.002945	-0.592261	-0.724365	0.299316	-0.329834	0.615109	-0.228402	-0.746346	-0.111540
24215		11.260871	3.365365	1.750679	-0.452002	-0.073903	-0.316760	-0.721924	0.293945	-0.324951	0.612679	-0.229110	-0.747144	-0.117940
24216		9.853085	-1.887924	-4.021654	-0.506857	-0.095619	-0.278137	-0.722168	0.293457	-0.312012	0.609916	-0.230629	-0.747870	-0.124515
24217		8.303719	-0.316732	-3.523799	0.413930	0.007537	-0.311700	-0.730469	0.289062	-0.310303	0.610690	-0.224640	-0.749307	-0.123024
24218		8.449780	-0.310430	-1.809437	-0.185375	-0.061707	-0.230458	-0.727295	0.288574	-0.320557	0.609239	-0.224086	-0.750103	-0.126327
24219		9.759205	-0.022051	-1.540800	-0.199257	-0.076801	-0.222866	-0.722900	0.279053	-0.325684	0.607611	-0.223731	-0.750960	-0.129660
24220		10.370031	-0.425285	-2.251403	-0.375773	-0.114896	-0.201905	-0.724854	0.283936	-0.318604	0.605153	-0.224971	-0.751743	-0.134387
24221		9.832277	0.654900	-2.690543	-0.154223	-0.085806	-0.118415	-0.722412	0.280029	-0.311768	0.603719	-0.225268	-0.752430	-0.136481
24222		10.076010	-0.735864	-3.403913	-0.137762	-0.056424	-0.026958	-0.728271	0.281738	-0.312012	0.602760	-0.226251	-0.752660	-0.137818
24223		9.988076	-0.967165	-2.726389	0.060624	0.015076	-0.010941	-0.718750	0.279785	-0.315430	0.603061	-0.225765	-0.752647	-0.137367
24224		9.974696	-1.262457	-2.455351	-0.042268	0.051031	-0.035175	-0.718262	0.280518	-0.310547	0.603367	-0.225765	-0.752255	-0.138167
24225		9.431818	-1.243073	-2.972012	-0.036374	0.074385	-0.089562	-0.728027	0.273682	-0.311279	0.603816	-0.225167	-0.751850	-0.139384
24226		9.219979	-0.998472	-2.414757	-0.030074	0.095540	-0.133184	-0.715332	0.280273	-0.308594	0.604402	-0.224072	-0.751418	-0.140926
24227		9.134741	-0.247977	-2.288949	-0.224779	0.053236	-0.158649	-0.723389	0.284180	-0.314697	0.603996	-0.224282	-0.751029	-0.144367
24228		9.552009	-0.455308	-2.431590	-0.284971	0.083334	-0.161057	-0.724121	0.275391	-0.314453	0.603691	-0.224866	-0.750299	-0.148475
24229		9.449554	0.136627	-2.328718	-0.218759	0.114798	-0.128976	-0.725342	0.273682	-0.318115	0.603917	-0.225189	-0.749353	-0.151806
24230		9.682222	0.648889	-2.053613	-0.346434	0.108020	-0.066221	-0.727051	0.271484	-0.322266	0.603828	-0.227073	-0.748026	-0.155840
24231		9.533921	-0.090070	-2.314416	-0.321227	0.124673	-0.006636	-0.728027	0.276367	-0.313477	0.604070	-0.229289	-0.746438	-0.159237
24232		9.683185	-0.167801	-1.795676	-0.296258	0.109024	0.022671	-0.730713	0.284180	-0.324219	0.604285	-0.231617	-0.744920	-0.162133
24233		9.696839	-0.537137	-2.205604	-0.301272	0.112286	0.048994	-0.724121	0.282959	-0.313965	0.604560	-0.234218	-0.743278	-0.164886
24234		9.551189	0.057018	-1.736464	-0.212998	0.108731	0.053713	-0.720459	0.289551	-0.317627	0.605061	-0.236199	-0.741821	-0.166769
24235		9.614887	-1.048163	-1.909125	-0.287965	0.096823	0.045129	-0.724609	0.292236	-0.318848	0.605205	-0.238691	-0.740314	-0.169377
24236		9.440281	-0.715583	-1.740868	-0.112923	0.078459	0.007825	-0.726074	0.298828	-0.318604	0.605618	-0.239549	-0.739420	-0.170589
24237		9.689261	-0.409987	-2.103576	-0.210151	0.040556	-0.000503	-0.729980	0.295410	-0.316162	0.605368	-0.241146	-0.738628	-0.172647
24238		9.477478	-0.638200	-2.027335	-0.033306	0.067415	-0.022662	-0.718262	0.291992	-0.322510	0.605849	-0.241141	-0.738077	-0.173320
24239		9.643130	0.206320	-2.012726	-0.133115	0.051447	0.001440	-0.718750	0.296143	-0.319336	0.605933	-0.242147	-0.737357	-0.174681
24240		9.447624	-0.604709	-2.415215	-0.059227	0.082969	0.010182	-0.727539	0.298096	-0.324707	0.606549	-0.242606	-0.736531	-0.175393
24241		9.729630	-0.448277	-1.583494	-0.006165	0.093257	0.000335	-0.724365	0.299316	-0.322998	0.607397	-0.242548	-0.735773	-0.175719
24242		9.622180	-0.436422	-2.330804	0.027911	0.124437	0.008527	-0.723145	0.300781	-0.329346	0.608653	-0.242238	-0.734826	-0.175765
24243		9.491512	0.551698	-2.008152	0.006868	0.114302	0.028403	-0.718506	0.295654	-0.332031	0.609793	-0.242292	-0.733849	-0.175820
24244		9.767188	-0.319896	-2.376236	-0.046022	0.122173	0.075703	-0.721436	0.296631	-0.330566	0.610948	-0.243166	-0.732549	-0.176026
24245		9.509018	0.116119	-1.477702	0.066351	0.141410	0.089348	-0.725586	0.300781	-0.335449	0.612647	-0.243262	-0.731305	-0.175157
24246		9.767486	-0.928746	-1.862387	-0.026766	0.150242	0.103264	-0.709717	0.299805	-0.338867	0.614170	-0.244179	-0.729743	-0.175060
24247		9.730118	-0.999984	-2.316365	0.118208	0.194357	0.065171	-0.714111	0.296143	-0.326416	0.616452	-0.243537	-0.728271	-0.174065
24248		9.759704	-0.321348	-1.848203	-0.003691	0.210356	0.043209	-0.707764	0.302979	-0.337402	0.618454	-0.243596	-0.726473	-0.174393
24249		9.570478	-0.865059	-2.109211	-0.029166	0.228395	0.016124	-0.714111	0.304932	-0.346436	0.620479	-0.243566	-0.724556	-0.175215
24250		9.492580	-0.209910	-1.630213	-0.016885	0.246257	0.002979	-0.710693	0.306152	-0.344238	0.622669	-0.243279	-0.722561	-0.176078
24251		9.628016	-0.853914	-1.654935	0.031918	0.259249	-0.005520	-0.711182	0.303467	-0.356689	0.625100	-0.242504	-0.720592	-0.176606
24252		9.593189	-0.544318	-1.074388	0.072748	0.254139	-0.016001	-0.705811	0.307861	-0.362549	0.627578	-0.241324	-0.718777	-0.176828
24253		10.111417	-1.138912	-1.001643	0.321468	0.246603	-0.033902	-0.706299	0.300293	-0.368896	0.630689	-0.238045	-0.717611	-0.174931
24254		9.789238	0.222381	-1.686630	0.374882	0.253526	-0.016327	-0.709717	0.289062	-0.372070	0.634042	-0.234479	-0.716435	-0.172429
24255		9.667355	1.265724	-2.363391	0.118776	0.271020	0.038774	-0.701660	0.297607	-0.378662	0.636904	-0.233393	-0.714391	-0.171834
24256		9.834141	-0.213082	-2.368726	0.029842	0.322714	0.107880	-0.701904	0.300049	-0.387695	0.640105	-0.233521	-0.711530	-0.171637
24257		10.393841	-2.220876	-1.068693	0.593170	0.350313	0.071804	-0.698486	0.290771	-0.398438	0.645088	-0.228749	-0.709730	-0.166789
24258		10.380222	0.252080	-0.942072	0.602419	0.385431	0.043848	-0.696289	0.289062	-0.408447	0.650302	-0.223561	-0.707693	-0.162165
24259		9.976948	-1.277239	-2.703924	0.195080	0.396607	0.016140	-0.694824	0.291748	-0.425293	0.654384	-0.221407	-0.704778	-0.161397
24260		10.268488	-1.878824	-2.126944	0.334658	0.415530	-0.119183	-0.690918	0.280518	-0.421875	0.658721	-0.216870	-0.702338	-0.160546
24261		10.420601	-3.276688	-1.563809	0.627664	0.358518	-0.370424	-0.693604	0.269531	-0.432617	0.662798	-0.207811	-0.701589	-0.159017
24262		9.462303	-3.294071	-1.641999	0.919391	0.151610	-0.713412	-0.706543	0.247314	-0.448486	0.665034	-0.193703	-0.703916	-0.157197
24263		8.854275	-1.105784	-1.220259	1.227843	-0.005335	-0.907271	-0.704102	0.209229	-0.454590	0.666067	-0.175575	-0.708423	-0.153834
24264		8.907140	1.420619	-1.585655	1.405842	-0.204872	-0.763725	-0.715820	0.174072	-0.453125	0.665745	-0.157552	-0.714348	-0.147200
24265		8.674732	2.291961	-1.684024	1.408377	-0.275494	-0.420346	-0.721680	0.148682	-0.448730	0.665179	-0.142646	-0.719920	-0.137495
24266		8.865163	1.836049	0.089259	1.126223	-0.259124	0.050097	-0.731934	0.149902	-0.454102	0.664878	-0.134252	-0.723831	-0.126418
24267		8.345335	1.424012	1.099954	-0.334498	-0.286799	0.470382	-0.729492	0.157959	-0.452637	0.662449	-0.141829	-0.724858	-0.125010
24268		7.808655	0.772608	-0.059404	-1.148469	-0.234141	0.347528	-0.728027	0.162598	-0.443604	0.658762	-0.154931	-0.724282	-0.132077
24269		7.838004	0.097993	-0.964811	-1.205658	-0.173423	0.149263	-0.734619	0.181885	-0.428223	0.655031	-0.166573	-0.723325	-0.141385
24270		7.579257	0.712479	-2.198929	-1.116720	-0.285712	0.003147	-0.737305	0.202148	-0.428467	0.650065	-0.176327	-0.723586	-0.150821
24271		9.071915	-2.097760	-2.463767	-0.195059	-0.294329	-0.140458	-0.743164	0.199219	-0.415527	0.646705	-0.177289	-0.725889	-0.153053
24272		13.180879	3.005868	4.723107	1.446971	0.075339	-0.347124	-0.745117	0.181152	-0.437744	0.649825	-0.162360	-0.728673	-0.142838
24273		13.684944	1.635931	6.720393	-0.804614	0.054190	0.370061	-0.736084	0.194580	-0.439697	0.649313	-0.172259	-0.725973	-0.147251
24274		10.655032	-0.910011	-3.223758	-0.299604	-0.113155	0.204395	-0.739990	0.208252	-0.431396	0.648020	-0.176857	-0.725855	-0.148074
24275		9.871373	-0.748250	-3.964508	-0.096847	-0.122461	0.104999	-0.739502	0.204834	-0.418457	0.646898	-0.178923	-0.726399	-0.147833
24276		9.496446	-1.616400	-1.187132	0.046980	-0.033936	0.025027	-0.739502	0.209229	-0.425537	0.646749	-0.178934	-0.726672	-0.147123
24277		9.090486	-1.891567	0.071151	0.034589	-0.058346	-0.085728	-0.737305	0.207520	-0.424316	0.646148	-0.178083	-0.727368	-0.147360
24278		9.145477	-0.529296	0.401967	0.147903	-0.100365	-0.133410	-0.744141	0.195557	-0.424561	0.645328	-0.175957	-0.728715	-0.146853
24279		9.572399	0.682696	-0.396751	0.083260	-0.149801	-0.084680	-0.733398	0.194092	-0.423584	0.644002	-0.174887	-0.730229	-0.146431
24280		9.355713	0.683660	-2.255401	-0.039927	-0.156045	-0.010209	-0.745117	0.196289	-0.414795	0.642482	-0.175501	-0.731400	-0.146525
24281		9.673774	0.149137	-2.208743	0.114988	-0.128997	0.008434	-0.748779	0.199707	-0.408447	0.641581	-0.174991	-0.732594	-0.145114
24282		10.346603	0.722543	-0.756898	0.095692	-0.117294	0.044324	-0.747803	0.203125	-0.415039	0.640806	-0.174942	-0.733579	-0.143615
24283		10.178207	0.343931	-1.322448	-0.024956	-0.122501	0.084324	-0.745117	0.202148	-0.409668	0.639788	-0.176236	-0.734297	-0.142896
24284		9.849470	-0.171154	-2.897272	-0.054761	-0.079791	0.094349	-0.735596	0.203369	-0.407227	0.639113	-0.177784	-0.734596	-0.142465
24285		9.576066	-0.296018	-2.159780	-0.020258	-0.023568	0.071599	-0.736084	0.203369	-0.404053	0.638988	-0.178747	-0.734557	-0.142021
24286		9.834261	-0.543122	-1.191801	-0.029280	-0.002653	0.047550	-0.736328	0.206543	-0.411377	0.638991	-0.179522	-0.734389	-0.141897
24287		9.721045	-0.468304	-1.623049	0.075425	0.005348	0.014904	-0.744385	0.208252	-0.414795	0.639244	-0.179148	-0.734416	-0.141090
24288		9.748694	-0.111337	-1.514480	0.078632	0.023379	0.023834	-0.746338	0.205078	-0.409668	0.639686	-0.178797	-0.734283	-0.140220
24289		9.599421	-0.420203	-1.839432	0.087070	0.044443	0.010461	-0.743408	0.208252	-0.406006	0.640315	-0.178218	-0.734027	-0.139426
24290		9.523436	-0.042791	-1.319741	0.075775	0.038215	-0.000566	-0.742188	0.202393	-0.412354	0.640841	-0.177639	-0.733825	-0.138809
24291		9.740008	-0.123054	-1.683599	-0.022562	0.067116	0.010198	-0.740234	0.204102	-0.409424	0.641433	-0.177896	-0.733196	-0.139073
24292		9.559039	-0.734277	-1.835810	0.012915	0.086429	-0.012773	-0.740723	0.208008	-0.411865	0.642239	-0.177625	-0.732524	-0.139238
24293		9.793836	-0.450157	-1.206825	-0.006311	0.090354	-0.054671	-0.743652	0.203613	-0.419922	0.642965	-0.177116	-0.731880	-0.139921
24294		9.645244	-0.192043	-1.691804	-0.093679	0.120091	-0.066525	-0.733887	0.206055	-0.425049	0.643747	-0.177148	-0.730868	-0.141564
24295		9.482906	-0.126934	-1.513289	-0.054045	0.126108	-0.073093	-0.739502	0.201904	-0.427002	0.644657	-0.176791	-0.729890	-0.142910
24296		9.625880	-0.390374	-1.471965	-0.064024	0.124615	-0.075912	-0.739746	0.204590	-0.429443	0.645524	-0.176489	-0.728910	-0.144365
24297		9.500457	-0.284917	-1.147536	-0.027206	0.124246	-0.084479	-0.739258	0.201660	-0.414795	0.646451	-0.175812	-0.728016	-0.145551
24298		10.011491	0.494870	-1.062616	0.054809	0.137333	-0.053573	-0.743896	0.204102	-0.428467	0.647730	-0.174728	-0.727095	-0.145768
24299		9.943220	0.361631	-1.659412	0.014703	0.169107	-0.001963	-0.741943	0.196289	-0.429199	0.649303	-0.174380	-0.725727	-0.146005
24300		9.801974	-0.097000	-1.720903	0.078146	0.209494	0.019697	-0.738281	0.198975	-0.444092	0.651415	-0.173639	-0.724096	-0.145577
24301		9.824739	-0.219641	-1.113287	0.107764	0.242351	0.029190	-0.730713	0.193848	-0.438965	0.653899	-0.172682	-0.722225	-0.144874
24302		10.377234	0.219185	-0.510549	-0.023397	0.311770	0.016508	-0.727539	0.201660	-0.445068	0.656695	-0.172554	-0.719566	-0.145606
24303		10.577135	-1.072678	-1.033550	-0.075651	0.340094	-0.048306	-0.731689	0.200439	-0.453125	0.659504	-0.172218	-0.716706	-0.147402
24304		10.856283	-0.535713	-0.802514	0.130823	0.318740	-0.156811	-0.722168	0.202148	-0.462891	0.662353	-0.169243	-0.714622	-0.148189
24305		11.080420	0.658440	-0.996570	0.049852	0.347013	-0.163440	-0.720947	0.189941	-0.470947	0.665257	-0.166823	-0.712152	-0.149810
24306		11.666847	-0.258090	-1.298757	0.271284	0.330295	-0.174326	-0.719482	0.182617	-0.468994	0.668434	-0.162490	-0.710238	-0.149513
24307		12.526583	1.408976	-0.775461	0.417163	0.261372	-0.242630	-0.725586	0.170898	-0.479248	0.671141	-0.156454	-0.709285	-0.148343
24308		12.728959	2.467781	1.211093	0.396462	0.349389	-0.230563	-0.722656	0.161133	-0.489258	0.674577	-0.150530	-0.707497	-0.147427
24309		11.451915	1.751649	0.209754	0.539836	0.365084	-0.159613	-0.727783	0.154785	-0.480957	0.678512	-0.143989	-0.705661	-0.144678
24310		11.125013	3.684474	0.143564	0.490339	0.328770	-0.148451	-0.722900	0.142578	-0.491943	0.682014	-0.138025	-0.703978	-0.142204
24311		10.981015	2.429724	-0.711068	0.054818	0.271962	-0.117109	-0.730469	0.143311	-0.493408	0.684294	-0.136149	-0.701923	-0.143208
24312		9.990316	1.533746	-1.175597	-0.251778	0.274265	-0.088649	-0.724854	0.137207	-0.494629	0.686110	-0.137140	-0.699239	-0.146668
24313		9.425146	0.548244	-1.268652	-0.389948	0.235609	-0.124117	-0.730957	0.148438	-0.492432	0.687264	-0.139073	-0.696672	-0.151573
24314		9.442774	-0.219994	-1.182973	-0.234380	0.148340	-0.241087	-0.738770	0.154297	-0.496094	0.687687	-0.138811	-0.695335	-0.155971
24315		9.143805	-1.241783	-0.995453	-0.060741	0.097222	-0.253569	-0.736328	0.138428	-0.490234	0.687931	-0.137045	-0.694787	-0.158873
24316		8.915643	-2.196508	-1.094876	0.266193	0.024609	-0.173293	-0.740479	0.135254	-0.489990	0.688254	-0.133306	-0.695368	-0.158110
24317		9.014968	-2.104426	-1.625407	0.485449	-0.046396	-0.086099	-0.742432	0.130859	-0.488525	0.688481	-0.128572	-0.696832	-0.154557
24318		9.263628	-1.240300	-0.295740	0.534727	-0.032338	-0.173062	-0.750732	0.117188	-0.488525	0.688713	-0.122621	-0.698384	-0.151326
24319		9.317465	-0.822388	-0.260500	0.483309	-0.058183	-0.168811	-0.751465	0.111816	-0.492920	0.688618	-0.117192	-0.700024	-0.148455
24320		9.549447	-0.330201	-0.146872	0.409210	-0.054851	-0.060442	-0.755859	0.103027	-0.492676	0.688622	-0.113337	-0.701316	-0.145293
24321		9.295903	-0.866578	-0.028517	0.245791	-0.104399	0.030014	-0.764893	0.100098	-0.483887	0.688113	-0.111770	-0.702597	-0.142709
24322		9.249395	-1.952383	0.040724	0.424774	-0.171662	-0.046591	-0.762451	0.093506	-0.489014	0.687111	-0.108106	-0.704868	-0.139110
24323		9.413648	-0.888719	0.102454	0.752355	-0.145272	-0.123205	-0.776123	0.083252	-0.476807	0.686611	-0.100900	-0.707542	-0.133299
24324		9.517504	0.503182	0.267399	0.662709	-0.093470	-0.051704	-0.768555	0.075684	-0.477783	0.686519	-0.094999	-0.709475	-0.127718
24325		9.717774	1.009722	0.441582	0.369627	-0.078577	0.128662	-0.767578	0.069336	-0.474121	0.686467	-0.093186	-0.710564	-0.123200
24326		9.371637	1.150278	0.949142	0.009719	-0.039663	0.164453	-0.779297	0.073486	-0.477295	0.686387	-0.094717	-0.710711	-0.121618
24327		9.262390	0.862118	0.776903	-0.247661	-0.047672	0.073944	-0.774414	0.082031	-0.470215	0.685789	-0.097666	-0.710636	-0.123093
24328		9.372552	0.515155	0.307578	-0.347737	-0.050544	0.085067	-0.782959	0.085449	-0.469238	0.685049	-0.101575	-0.710406	-0.125359
24329		9.024697	1.085295	-0.181201	-0.449486	-0.024479	0.098471	-0.785400	0.088379	-0.478760	0.684414	-0.106431	-0.709755	-0.128444
24330		8.325670	-0.635840	0.221700	-0.476631	-0.059971	0.094802	-0.781982	0.087891	-0.463379	0.683396	-0.111540	-0.709344	-0.131754
24331		8.123711	-0.149845	0.311498	-0.073319	-0.057444	-0.059486	-0.791504	0.103516	-0.462646	0.682697	-0.111829	-0.709776	-0.132803
24332		8.073664	1.348896	0.535296	-0.097556	-0.004956	-0.172721	-0.793457	0.102783	-0.465820	0.682240	-0.111233	-0.709875	-0.135105
24333		8.493783	0.999144	0.193374	-0.316262	0.011316	-0.072872	-0.793701	0.102051	-0.464600	0.681783	-0.113360	-0.709319	-0.138522
24334		8.205856	0.750150	0.472713	-0.431021	0.085596	0.019157	-0.784912	0.107178	-0.461914	0.681966	-0.117151	-0.707782	-0.142278
24335		8.626882	-0.200547	-0.424387	-0.401506	0.014973	0.045922	-0.783447	0.105957	-0.467041	0.681595	-0.121050	-0.706840	-0.145439
24336		9.378362	0.726291	-0.385504	-0.383732	0.078404	-0.044864	-0.782227	0.113037	-0.468506	0.681630	-0.123876	-0.705509	-0.149306
24337		9.552358	0.126765	-0.484180	-0.479431	0.026601	-0.067571	-0.787598	0.121094	-0.459961	0.680996	-0.127411	-0.704454	-0.154128
24338		9.938355	0.185292	-0.711377	-0.381154	-0.006694	-0.061435	-0.784424	0.118652	-0.466064	0.680216	-0.130223	-0.703842	-0.157972
24339		9.652632	0.238252	-0.448519	-0.215739	-0.045443	-0.080985	-0.783691	0.122803	-0.458984	0.679315	-0.131530	-0.703906	-0.160460
24340		9.707179	0.222083	-0.559833	-0.051903	-0.057884	-0.089408	-0.787109	0.125244	-0.457275	0.678553	-0.131396	-0.704415	-0.161556
24341		9.759944	0.393582	-0.373210	0.196179	-0.053655	-0.102931	-0.785400	0.112793	-0.466064	0.678205	-0.129029	-0.705408	-0.160586
24342		9.959287	0.401271	-0.413756	0.418503	-0.048990	-0.122210	-0.788574	0.105225	-0.466064	0.678206	-0.124596	-0.706827	-0.157824
24343		9.924548	0.968287	-0.043577	0.565847	-0.022178	-0.141045	-0.777832	0.093018	-0.464600	0.678609	-0.118689	-0.708309	-0.153955
24344		9.992824	1.450809	0.564633	0.364589	-0.001948	-0.136702	-0.785645	0.083984	-0.462646	0.678874	-0.114484	-0.709199	-0.151856
24345		9.811406	0.843609	0.379000	0.159447	0.020236	-0.102286	-0.790039	0.091797	-0.461670	0.679099	-0.112283	-0.709450	-0.151319
24346		9.488892	0.621047	0.225450	0.117260	0.021812	-0.091953	-0.785400	0.082520	-0.466797	0.679295	-0.110529	-0.709591	-0.151071
24347		9.393863	0.674645	0.059699	0.067463	0.033145	-0.078307	-0.788086	0.085449	-0.461426	0.679548	-0.109298	-0.709520	-0.151164
24348		9.124164	0.349021	-0.289120	0.067278	0.046101	-0.073695	-0.789795	0.082520	-0.467773	0.679922	-0.108084	-0.709331	-0.151238
24349		8.602844	0.146844	-0.080168	0.228149	0.038516	-0.082203	-0.790283	0.081543	-0.468018	0.680428	-0.105441	-0.709518	-0.149946
24350		8.692537	0.831917	0.190629	0.314757	0.023538	-0.062903	-0.790039	0.070312	-0.467529	0.680943	-0.102259	-0.709961	-0.147699
24351		9.201133	1.018030	0.200033	0.157399	0.059553	-0.036659	-0.778076	0.077881	-0.477051	0.681618	-0.100582	-0.709766	-0.146671
24352		9.027715	0.446419	0.197997	0.075921	0.044170	-0.079717	-0.787354	0.063477	-0.475098	0.681973	-0.099246	-0.709604	-0.146714
24353		8.801551	0.800513	0.556467	0.093360	-0.019840	-0.136694	-0.783447	0.061768	-0.474609	0.681676	-0.097373	-0.710088	-0.147008
24354		8.915693	1.364902	0.841146	-0.027492	0.005681	-0.075522	-0.785156	0.057129	-0.476807	0.681570	-0.097026	-0.710055	-0.147886
24355		8.802852	1.084836	0.919074	-0.168270	0.059697	-0.000771	-0.781006	0.069824	-0.478516	0.681908	-0.098443	-0.709208	-0.149445
24356		8.864329	0.806570	0.793115	-0.286296	0.105868	0.041969	-0.777588	0.071533	-0.474121	0.682584	-0.101158	-0.707686	-0.151744
24357		9.355791	0.836613	0.451362	-0.366485	0.141507	0.063341	-0.769287	0.082031	-0.480957	0.683501	-0.104678	-0.705665	-0.154614
24358		9.743457	0.539418	-0.017744	-0.375997	0.178829	0.097276	-0.773193	0.082031	-0.479492	0.684782	-0.108503	-0.703242	-0.157323
24359		9.504964	0.554140	-0.130141	-0.273082	0.166402	0.144981	-0.768066	0.094971	-0.489014	0.686171	-0.111888	-0.701046	-0.158697
24360		9.103215	0.585202	0.116244	-0.217531	0.145247	0.145982	-0.757568	0.095459	-0.492920	0.687442	-0.114846	-0.699128	-0.159543
24361		9.617075	0.516089	-0.049557	-0.295757	0.150235	0.109857	-0.756592	0.108154	-0.500732	0.688560	-0.118147	-0.697051	-0.161388
24362		10.185471	0.378843	-0.436489	-0.231995	0.190707	0.063137	-0.752686	0.107666	-0.502930	0.690019	-0.120410	-0.694811	-0.163136
24363		9.463525	0.449060	-0.232225	-0.188673	0.120132	0.058369	-0.750488	0.110596	-0.504883	0.690912	-0.122399	-0.693267	-0.164438
24364		8.929333	0.431093	-0.007368	-0.225895	0.047846	0.017829	-0.750244	0.111816	-0.502197	0.691032	-0.124505	-0.692327	-0.166300
24365		10.670409	-0.586761	-1.232496	-0.058931	0.102317	-0.094796	-0.738037	0.115967	-0.504150	0.691645	-0.124080	-0.691436	-0.167771
24366		11.850703	0.255476	-1.641685	0.318746	0.137907	-0.152081	-0.743896	0.109375	-0.510010	0.693023	-0.119819	-0.691109	-0.166525
24367		11.319771	0.637866	-1.206499	0.363782	0.018110	-0.064642	-0.736572	0.104248	-0.513672	0.693599	-0.116168	-0.691771	-0.163944
24368		9.866148	0.380280	-0.244753	0.488983	-0.077090	0.002298	-0.739014	0.095459	-0.523193	0.693651	-0.112204	-0.693398	-0.159559
24369		9.404424	0.276800	0.548900	0.438112	-0.124597	-0.097656	-0.735840	0.091797	-0.518555	0.692996	-0.107904	-0.695449	-0.156409
24370		10.806763	1.165152	0.472835	0.239556	-0.006941	-0.155434	-0.733643	0.089600	-0.521240	0.692968	-0.104592	-0.696155	-0.155643
24371		10.894748	1.075542	-0.108549	-0.058298	0.058890	-0.019353	-0.732422	0.084961	-0.524658	0.693383	-0.104919	-0.695527	-0.156379
24372		9.660834	0.312315	-0.830032	0.052580	0.017211	0.133766	-0.740479	0.092773	-0.520264	0.693878	-0.105691	-0.695277	-0.154763
24373		8.834289	0.255274	-0.436100	0.309101	-0.073432	0.129239	-0.730225	0.081055	-0.522217	0.693907	-0.104372	-0.696312	-0.150829
24374		9.530793	0.874949	-0.226538	0.295512	-0.111447	0.036517	-0.729248	0.088379	-0.527832	0.693402	-0.102430	-0.697759	-0.147763
24375		10.045848	1.387245	-0.104789	0.082138	-0.083211	-0.004970	-0.726074	0.080811	-0.521484	0.692786	-0.101926	-0.698614	-0.146956
24376		9.359412	0.920034	-0.347259	-0.033157	-0.147037	0.042502	-0.732178	0.084473	-0.520752	0.691551	-0.102950	-0.699749	-0.146662
24377		8.850877	0.244011	-0.097264	0.101484	-0.209275	0.084387	-0.737793	0.081787	-0.522461	0.690016	-0.103291	-0.701610	-0.144748
24378		9.451354	0.782131	0.076547	0.232261	-0.161596	0.063086	-0.737549	0.084473	-0.523682	0.689022	-0.102229	-0.703317	-0.141929
24379		9.429811	0.946287	0.142654	0.099629	-0.096567	0.071302	-0.738525	0.086182	-0.519287	0.688439	-0.102265	-0.704211	-0.140289
24380		9.147897	0.548487	-0.009748	0.101859	-0.075189	0.128234	-0.732178	0.082031	-0.524414	0.688143	-0.102746	-0.704849	-0.138168
24381		9.607772	0.867036	-0.182660	0.141780	-0.070594	0.153354	-0.735596	0.088623	-0.513428	0.687978	-0.103096	-0.705479	-0.135484
24382		10.429832	4.475515	1.727276	0.234146	0.032218	-0.117199	-0.729736	0.081055	-0.523438	0.688375	-0.100092	-0.705724	-0.134445
24383		12.203618	3.229230	1.072425	-0.087976	-0.048293	-0.144834	-0.730225	0.086914	-0.520264	0.687606	-0.099754	-0.706146	-0.136399
24384		13.352697	1.390907	-0.279357	-0.181671	-0.110279	0.111187	-0.730469	0.083496	-0.527588	0.686604	-0.102589	-0.706615	-0.136913
24385		11.997286	-0.925960	-1.282474	-0.024781	-0.125870	0.281076	-0.731201	0.089355	-0.525146	0.685948	-0.105604	-0.707259	-0.134563
24386		9.943976	-1.826437	-0.615252	-0.028624	-0.118216	0.210892	-0.736816	0.103516	-0.516602	0.685228	-0.108015	-0.707917	-0.132851
24387		9.964056	-1.607111	-0.624837	-0.294751	-0.128568	0.099483	-0.726318	0.106201	-0.516602	0.683863	-0.111734	-0.708363	-0.134422
24388		10.061494	-0.935925	-0.626045	-0.162513	-0.094780	-0.027596	-0.733154	0.102295	-0.517334	0.682761	-0.113137	-0.708912	-0.135948
24389		9.603493	0.138979	0.239234	-0.056717	-0.096647	-0.069838	-0.734375	0.106689	-0.520020	0.681718	-0.113264	-0.709714	-0.136887
24390		9.005457	0.543033	-0.045742	0.121672	-0.087811	-0.109686	-0.745117	0.097168	-0.509766	0.680935	-0.111502	-0.710800	-0.136596
24391		9.260540	1.672415	-0.052746	0.170455	-0.095942	-0.089765	-0.739014	0.098145	-0.509766	0.680178	-0.109516	-0.712006	-0.135690
24392		9.407082	2.088580	-0.462852	-0.070759	-0.106516	-0.029024	-0.735107	0.104004	-0.504883	0.679096	-0.110139	-0.712805	-0.136404
24393		9.623269	1.434772	-0.897517	-0.181965	-0.100494	0.061524	-0.738525	0.099854	-0.506348	0.678065	-0.112504	-0.713235	-0.137354
24394		10.121152	1.024008	-0.646614	-0.161140	-0.077057	0.103966	-0.738281	0.113770	-0.502686	0.677339	-0.115030	-0.713437	-0.137793
24395		10.162245	0.457007	-0.884453	-0.217738	-0.058436	0.135214	-0.745850	0.109619	-0.500977	0.676746	-0.118282	-0.713332	-0.138500
24396		10.085991	-0.240164	-1.165793	-0.177636	-0.027720	0.145371	-0.744141	0.126953	-0.493652	0.676495	-0.121230	-0.713015	-0.138806
24397		9.955412	-0.395854	-0.586038	-0.160338	-0.000072	0.106512	-0.738281	0.125732	-0.500977	0.676445	-0.123635	-0.712548	-0.139325
24398		9.977159	-0.611368	-0.634428	-0.098614	0.025406	0.060759	-0.731689	0.133057	-0.496094	0.676635	-0.125066	-0.712041	-0.139717
24399		9.774849	-0.087699	-0.759431	0.026920	0.060155	0.016572	-0.738037	0.122314	-0.504639	0.677252	-0.124980	-0.711529	-0.139416
24400		9.893524	-0.483566	-0.814092	0.179381	0.097618	-0.001694	-0.729004	0.123291	-0.499756	0.678406	-0.123374	-0.710991	-0.137970
24401		10.004715	0.452495	-0.351414	0.275772	0.137970	-0.013477	-0.734375	0.119873	-0.506836	0.680041	-0.120775	-0.710289	-0.135825
24402		9.980483	-0.275815	-0.728924	0.318476	0.181885	-0.047541	-0.730713	0.109863	-0.508789	0.682059	-0.117433	-0.709324	-0.133654
24403		10.098913	-0.289495	-0.970421	0.377641	0.202477	-0.048336	-0.732910	0.114502	-0.512939	0.684329	-0.113542	-0.708268	-0.130990
24404		10.426614	-0.282259	-0.668175	0.423071	0.231199	-0.061404	-0.737061	0.102783	-0.514893	0.686874	-0.109096	-0.707036	-0.128070
24405		10.552744	-0.111565	-0.313702	0.346603	0.240313	-0.063679	-0.736572	0.100830	-0.530029	0.689370	-0.105266	-0.705585	-0.125850
24406		10.647803	0.203775	-0.346063	0.356923	0.242086	-0.064476	-0.733398	0.089600	-0.526123	0.691874	-0.101335	-0.704116	-0.123544
24407		10.733343	1.143324	0.140855	0.202408	0.211463	-0.018955	-0.723633	0.082031	-0.536377	0.693968	-0.099185	-0.702601	-0.122160
24408		10.958135	1.265501	-0.252303	0.010623	0.164518	0.050706	-0.727295	0.083740	-0.535400	0.695513	-0.099382	-0.701106	-0.121801
24409		11.116652	1.584560	-0.077229	-0.081707	0.117236	0.121764	-0.726074	0.085205	-0.534424	0.696632	-0.101076	-0.699791	-0.121576
24410		11.132390	0.486316	-1.490432	-0.118959	-0.017956	0.154510	-0.727295	0.093262	-0.539551	0.696566	-0.103586	-0.699550	-0.121223
24411		11.219299	1.056129	0.235460	-0.005826	0.058372	0.158031	-0.727539	0.094482	-0.533691	0.697315	-0.105028	-0.698808	-0.119951
24412		11.206219	1.074175	0.222492	-0.187365	-0.048968	0.104302	-0.737061	0.103516	-0.528809	0.696802	-0.107741	-0.698797	-0.120591
24413		11.452869	1.294195	0.640235	-0.156774	-0.007363	0.068866	-0.733154	0.108643	-0.526611	0.696635	-0.109817	-0.698512	-0.121330
24414		11.309871	0.915214	0.482281	-0.230730	-0.019964	0.006147	-0.737549	0.102539	-0.532227	0.696156	-0.112010	-0.698305	-0.123250
24415		11.062979	1.046071	0.646451	-0.179031	-0.020147	-0.048411	-0.738037	0.107178	-0.522217	0.695661	-0.113269	-0.698251	-0.125186
24416		10.872865	1.206601	0.752327	-0.252904	-0.005478	-0.043365	-0.737305	0.116699	-0.525635	0.695190	-0.115194	-0.697941	-0.127747
24417		10.621155	0.937572	0.861715	-0.316719	0.014591	-0.042878	-0.742432	0.109863	-0.517090	0.694795	-0.117653	-0.697340	-0.130902
24418		10.355657	0.772285	0.694207	-0.329439	0.027569	-0.071429	-0.747803	0.118896	-0.508301	0.694435	-0.119936	-0.696641	-0.134417
24419		10.027210	0.892902	0.629530	-0.374764	0.046839	-0.094455	-0.750000	0.120850	-0.503662	0.694121	-0.122385	-0.695714	-0.138564
24420		9.528995	0.860082	0.512717	-0.463639	0.056575	-0.077338	-0.758545	0.122314	-0.509277	0.693766	-0.125738	-0.694498	-0.143355
24421		9.214654	0.604952	0.353829	-0.546668	0.052508	-0.070701	-0.753662	0.128662	-0.497559	0.693229	-0.129872	-0.693127	-0.148801
24422		8.804232	-0.121647	0.115107	-0.517537	0.051775	-0.104879	-0.758789	0.129395	-0.504639	0.692637	-0.133453	-0.691838	-0.154285
24423		8.691830	-0.111026	0.190491	-0.345323	0.042166	-0.157119	-0.751465	0.132812	-0.495605	0.692125	-0.135105	-0.691029	-0.158708
24424		8.713143	-0.174640	0.274087	-0.185576	0.073688	-0.179091	-0.757812	0.135986	-0.493164	0.692100	-0.135120	-0.690289	-0.161991
24425		8.621684	-0.102665	0.513672	-0.066018	0.101776	-0.191258	-0.758301	0.123535	-0.487061	0.692488	-0.133938	-0.689562	-0.164392
24426		8.649355	0.528329	0.807854	-0.088527	0.140568	-0.168069	-0.764893	0.125000	-0.493164	0.693215	-0.133069	-0.688409	-0.166848
24427		8.581490	0.555524	0.635811	-0.299612	0.180811	-0.120060	-0.768555	0.126953	-0.494629	0.694028	-0.134356	-0.686375	-0.170771
24428		8.515765	0.246425	0.045764	-0.415065	0.179045	-0.076650	-0.759521	0.132080	-0.493652	0.694705	-0.137018	-0.684019	-0.175300
24429		8.310967	-0.270937	-0.236606	-0.382493	0.148810	-0.071423	-0.754883	0.139648	-0.494629	0.695169	-0.139504	-0.681966	-0.179448
24430		8.282461	-0.350578	-0.241582	-0.273633	0.120399	-0.115328	-0.750977	0.136963	-0.502686	0.695467	-0.140729	-0.680466	-0.182992
24431		8.434778	-0.428531	-0.195845	-0.166909	0.102766	-0.139182	-0.756592	0.141357	-0.490967	0.695740	-0.140861	-0.679399	-0.185799
24432		8.598607	-0.331323	-0.209294	-0.024745	0.107657	-0.121820	-0.753662	0.135010	-0.494385	0.696341	-0.139891	-0.678585	-0.187251
24433		8.562799	-0.334170	-0.162211	0.063565	0.109388	-0.087096	-0.748047	0.127930	-0.507568	0.697189	-0.138442	-0.677900	-0.187651
24434		8.692418	-0.066266	-0.004228	0.075806	0.107133	-0.053961	-0.746094	0.126221	-0.498535	0.698115	-0.137170	-0.677205	-0.187651
24435		8.935850	-0.142029	0.090051	0.035330	0.074948	-0.036567	-0.741211	0.143311	-0.504150	0.698739	-0.136474	-0.676665	-0.187783
24436		9.329136	-0.137208	-0.116314	-0.033308	0.062343	-0.010520	-0.749512	0.138428	-0.499268	0.699200	-0.136626	-0.676030	-0.188244
24437		9.480068	-0.485506	-0.267332	0.030497	0.037871	-0.005868	-0.746338	0.138428	-0.500000	0.699573	-0.136317	-0.675752	-0.188080
24438		9.694559	-0.508577	-0.416874	0.207725	0.013348	-0.037571	-0.751953	0.128906	-0.508545	0.699965	-0.134246	-0.676158	-0.186649
24439		9.589425	-0.079211	0.038580	0.353957	-0.013895	-0.043859	-0.751465	0.120605	-0.504150	0.700348	-0.130903	-0.677146	-0.183984
24440		9.567965	0.561992	0.440684	0.364943	-0.021627	-0.004319	-0.747314	0.124756	-0.500977	0.700761	-0.127813	-0.678150	-0.180861
24441		9.731702	0.673359	0.551842	0.269928	-0.018127	0.061426	-0.742920	0.112793	-0.509766	0.701189	-0.126103	-0.678792	-0.177971
24442		9.772537	0.277507	0.335850	0.261303	-0.018530	0.080405	-0.749268	0.115234	-0.517334	0.701634	-0.124629	-0.679381	-0.174984
24443		9.726297	0.442760	0.424847	0.333440	-0.026050	0.038106	-0.746094	0.112061	-0.512451	0.702025	-0.122177	-0.680249	-0.171741
24444		9.896395	1.021193	0.530891	0.249591	-0.040655	0.035307	-0.743896	0.105957	-0.507812	0.702148	-0.120467	-0.681061	-0.169210
24445		9.908103	1.154701	0.599221	0.086086	-0.037984	0.087226	-0.753906	0.107422	-0.504639	0.702153	-0.120628	-0.681421	-0.167619
24446		9.774429	0.803899	0.478293	-0.090593	-0.053756	0.127443	-0.748047	0.110596	-0.506836	0.701838	-0.122716	-0.681485	-0.167159
24447		9.605995	0.490920	0.307388	-0.109674	-0.063028	0.116598	-0.753418	0.114502	-0.508301	0.701389	-0.124897	-0.681604	-0.166942
24448		9.608811	0.547580	0.295924	-0.049401	-0.070478	0.095912	-0.755859	0.117676	-0.510254	0.700925	-0.126388	-0.681944	-0.166380
24449		9.705028	0.615475	0.385244	-0.011981	-0.065731	0.091930	-0.761230	0.129639	-0.504395	0.700551	-0.127508	-0.682325	-0.165541
24450		9.643889	0.542153	0.373213	-0.016183	-0.049716	0.082801	-0.757324	0.128906	-0.499023	0.700285	-0.128553	-0.682569	-0.164844
24451		9.574974	0.664360	0.399012	0.016545	-0.048354	0.066838	-0.758545	0.120605	-0.497803	0.700050	-0.129173	-0.682894	-0.164010
24452		9.672538	0.589551	0.320515	-0.003899	-0.041874	0.066430	-0.753906	0.125488	-0.498535	0.699836	-0.129954	-0.683121	-0.163364
24453		9.600311	0.370196	0.228378	0.020495	-0.047148	0.038056	-0.753418	0.120605	-0.499268	0.699557	-0.130291	-0.683488	-0.162751
24454		9.442812	0.225990	0.086248	0.084266	-0.049975	-0.005659	-0.754150	0.128662	-0.507080	0.699269	-0.129702	-0.684080	-0.161970
24455		9.501066	0.369596	0.170445	0.138515	-0.059203	-0.023588	-0.755371	0.121338	-0.497314	0.698952	-0.128505	-0.684891	-0.160866
24456		9.450555	0.611182	0.347459	0.112123	-0.068124	-0.020234	-0.764648	0.115723	-0.491943	0.698520	-0.127583	-0.685719	-0.159944
24457		9.183014	0.728822	0.428566	-0.005935	-0.067795	0.003804	-0.757324	0.123291	-0.498047	0.697950	-0.127898	-0.686269	-0.159824
24458		8.889938	0.690331	0.414231	-0.154135	-0.090844	0.018999	-0.757812	0.121826	-0.492920	0.696973	-0.129682	-0.686696	-0.160808
24459		8.739365	0.338704	0.299072	-0.218563	-0.117466	0.022848	-0.760986	0.128174	-0.491455	0.695666	-0.132114	-0.687215	-0.162268
24460		8.822156	0.043584	0.238042	-0.156395	-0.101464	0.006909	-0.759277	0.132080	-0.493652	0.694561	-0.133834	-0.687741	-0.163357
24461		9.097294	0.165607	0.170348	-0.076265	-0.070827	-0.006088	-0.761230	0.128418	-0.496094	0.693825	-0.134684	-0.688184	-0.163921
24462		9.430159	0.291285	0.267249	-0.021708	-0.059591	-0.002850	-0.761963	0.128418	-0.491455	0.693283	-0.135065	-0.688636	-0.164005
24463		9.131812	0.230702	0.585349	-0.037513	-0.091513	-0.002578	-0.764160	0.132324	-0.490234	0.692439	-0.135651	-0.689330	-0.164168
24464		8.783611	0.556721	1.013407	-0.108266	-0.065660	0.011068	-0.758057	0.126953	-0.493896	0.691725	-0.136914	-0.689630	-0.164868
24465		9.076523	0.193051	0.779051	-0.219245	-0.006285	0.021427	-0.756348	0.134766	-0.497070	0.691352	-0.139102	-0.689166	-0.166536
24466		9.673281	-0.025355	0.287079	-0.195981	0.055948	0.021084	-0.763916	0.143311	-0.500000	0.691549	-0.140958	-0.688206	-0.168117
24467		9.202765	0.030888	0.278072	-0.091278	0.037504	0.034115	-0.760498	0.144287	-0.497559	0.691797	-0.142060	-0.687599	-0.168651
24468		8.707037	0.176927	0.662999	-0.083429	0.005824	0.042031	-0.757812	0.149414	-0.492920	0.691802	-0.143228	-0.687269	-0.168991
24469		9.695616	0.097438	0.189616	-0.103305	0.050893	0.021140	-0.753418	0.151611	-0.497314	0.692113	-0.144295	-0.686541	-0.169764
24470		10.216197	-0.828681	-0.485813	0.076220	0.065180	-0.049966	-0.747314	0.152588	-0.503418	0.692718	-0.143169	-0.686197	-0.169639
24471		10.090664	-0.298764	-0.685722	0.427934	0.047037	-0.084101	-0.749512	0.136963	-0.502930	0.693715	-0.138744	-0.686805	-0.166758
24472		9.931697	0.347997	-0.306244	0.559780	0.015908	-0.024328	-0.740967	0.135742	-0.508301	0.694771	-0.133738	-0.687832	-0.162153
24473		9.817358	0.588762	0.179346	0.523333	-0.015515	0.034705	-0.751221	0.122803	-0.506348	0.695585	-0.129622	-0.688924	-0.157300
24474		9.461346	0.477594	0.753162	0.369503	-0.053998	0.016028	-0.744629	0.124512	-0.516357	0.695758	-0.126742	-0.690063	-0.153852
24475		9.574347	0.557015	1.019700	0.129234	-0.040836	-0.021118	-0.745361	0.133789	-0.510254	0.695586	-0.125618	-0.690667	-0.152836
24476		9.970997	0.374293	0.737972	0.000018	0.009159	0.008775	-0.750977	0.121582	-0.511719	0.695697	-0.125792	-0.690539	-0.152768
24477		10.509227	-0.001010	0.082350	-0.015740	0.053047	0.098966	-0.743164	0.121582	-0.514404	0.696335	-0.126779	-0.689863	-0.152099
24478		10.437036	0.024042	-0.069075	0.085485	0.062663	0.171856	-0.740723	0.127930	-0.517822	0.697353	-0.127494	-0.689176	-0.149938
24479		9.985905	0.346071	0.204553	0.077655	0.020826	0.173971	-0.737549	0.127197	-0.522705	0.697997	-0.128380	-0.688828	-0.147765
24480		10.019394	0.452669	0.057875	-0.018865	-0.001563	0.127773	-0.730957	0.138672	-0.530029	0.698206	-0.129748	-0.688568	-0.146789
24481		10.261601	0.147878	-0.461145	-0.002009	-0.025338	0.073948	-0.737305	0.133789	-0.528076	0.698136	-0.130555	-0.688633	-0.146103
24482		10.071209	0.480445	-0.141950	0.145274	-0.067179	0.042436	-0.734375	0.135254	-0.518555	0.697885	-0.129870	-0.689388	-0.144339
24483		9.980691	1.102957	0.239883	0.087547	-0.108702	0.051819	-0.733887	0.132568	-0.524170	0.697196	-0.129844	-0.690384	-0.142924
24484		10.533077	0.756888	-0.109678	-0.008197	-0.046422	0.068462	-0.738770	0.140869	-0.529541	0.696918	-0.130685	-0.690637	-0.142294
24485		10.399047	0.389448	-0.213487	0.078960	-0.060843	0.008472	-0.733887	0.126709	-0.522949	0.696549	-0.130275	-0.691268	-0.141412
24486		10.085445	0.930889	-0.015410	0.134370	-0.086324	-0.043551	-0.728516	0.126709	-0.519775	0.695956	-0.128977	-0.692301	-0.140462
24487		10.203802	0.758431	0.104546	0.074489	-0.104139	-0.078271	-0.734131	0.130615	-0.524658	0.695048	-0.127931	-0.693438	-0.140305
24488		10.346458	0.532686	-0.008934	0.091147	-0.082778	-0.126329	-0.730957	0.124512	-0.521973	0.694265	-0.126287	-0.694492	-0.140458
24489		9.823265	0.673828	0.256799	0.093444	-0.096779	-0.160425	-0.729980	0.125977	-0.525635	0.693300	-0.124350	-0.695722	-0.140864
24490		9.506895	0.652809	0.203142	0.060319	-0.078345	-0.144865	-0.735107	0.123291	-0.525635	0.692468	-0.122803	-0.696705	-0.141452
24491		9.506755	0.273365	0.119240	0.091936	-0.050644	-0.110976	-0.739014	0.112793	-0.527832	0.691983	-0.121229	-0.697450	-0.141516
24492		9.386257	0.484730	0.268544	0.090880	-0.064128	-0.079614	-0.731201	0.119873	-0.521484	0.691432	-0.119960	-0.698260	-0.141296
24493		9.398957	0.479700	0.205351	-0.006884	-0.059828	-0.018383	-0.740967	0.116943	-0.519287	0.690879	-0.120064	-0.698766	-0.141408
24494		9.846211	0.270647	-0.396066	-0.001841	-0.036509	0.017339	-0.733398	0.115479	-0.521729	0.690601	-0.120394	-0.699026	-0.141203
24495		9.956298	0.236856	-0.459701	0.043400	-0.035788	0.041408	-0.734131	0.124268	-0.523926	0.690438	-0.120544	-0.699324	-0.140395
