// Start Time: Unknown
// Update Rate: 40.0Hz
// Filter Profile: human (46.1)
// Firmware Version: 4.6.0
PacketCounter	SampleTimeFine	Acc_X	Acc_Y	Acc_Z	Gyr_X	Gyr_Y	Gyr_Z	Mag_X	Mag_Y	Mag_Z	Quat_q0	Quat_q1	Quat_q2	Quat_q3
23593		9.767834	-0.669799	-0.751339	0.010334	0.008425	-0.011580	-0.741699	0.133057	-0.335205	0.677375	-0.107639	-0.725760	-0.053378
23594		9.767774	-0.691126	-0.705654	0.006323	0.008175	-0.013198	-0.745117	0.130371	-0.338135	0.677449	-0.107460	-0.725713	-0.053443
23595		9.764550	-0.646403	-0.663186	0.018284	0.007284	-0.017667	-0.733154	0.137451	-0.348145	0.677529	-0.107136	-0.725686	-0.053438
23596		9.757484	-0.651705	-0.725228	0.017792	0.009690	-0.017938	-0.739990	0.126953	-0.333496	0.677631	-0.106816	-0.725638	-0.053442
23597		9.753013	-0.619066	-0.702566	0.007066	0.009476	-0.018097	-0.738037	0.131836	-0.334717	0.677719	-0.106584	-0.725583	-0.053545
23598		9.780733	-0.664833	-0.703516	0.000995	0.009275	-0.016110	-0.737549	0.127686	-0.334717	0.677800	-0.106418	-0.725520	-0.053690
23599		9.781088	-0.703887	-0.670175	0.003035	0.006894	-0.010226	-0.737305	0.131836	-0.335938	0.677871	-0.106291	-0.725468	-0.053762
23600		9.765699	-0.701254	-0.652862	0.007123	0.010094	-0.012430	-0.727783	0.127930	-0.338135	0.677983	-0.106112	-0.725385	-0.053814
23601		9.762777	-0.687536	-0.666319	0.017875	0.008902	-0.013877	-0.744629	0.127686	-0.336914	0.678108	-0.105834	-0.725311	-0.053773
23602		9.762312	-0.660524	-0.683912	0.017958	0.005707	-0.015035	-0.741211	0.127197	-0.337402	0.678215	-0.105553	-0.725256	-0.053731
23603		9.764747	-0.681103	-0.686139	0.010143	0.008513	-0.010510	-0.737793	0.129883	-0.341797	0.678344	-0.105377	-0.725161	-0.053724
23604		9.796131	-0.702413	-0.670790	0.013964	0.006463	-0.013022	-0.735840	0.130127	-0.337402	0.678464	-0.105154	-0.725083	-0.053694
23605		9.763308	-0.694607	-0.646550	0.021343	0.007202	-0.010325	-0.744629	0.125244	-0.333496	0.678606	-0.104900	-0.724997	-0.053565
23606		9.767168	-0.624697	-0.659658	0.024392	0.004736	-0.008172	-0.736328	0.130127	-0.339111	0.678741	-0.104647	-0.724921	-0.053381
23607		9.742085	-0.596522	-0.659235	0.016377	0.004733	-0.009588	-0.739014	0.119873	-0.338379	0.678872	-0.104444	-0.724835	-0.053285
23608		9.734144	-0.651473	-0.635478	0.004433	0.001286	-0.013760	-0.740479	0.129883	-0.340820	0.678953	-0.104289	-0.724776	-0.053356
23609		9.762766	-0.692055	-0.693869	0.006303	0.001854	-0.014444	-0.734863	0.128418	-0.345459	0.679061	-0.104125	-0.724696	-0.053393
23610		9.795410	-0.712690	-0.703510	0.008799	0.004104	-0.011184	-0.733643	0.133545	-0.341797	0.679193	-0.103973	-0.724595	-0.053381
23611		9.758373	-0.712350	-0.685317	-0.003018	-0.002406	-0.012635	-0.733154	0.130371	-0.343018	0.679234	-0.103932	-0.724557	-0.053447
23612		9.736656	-0.736014	-0.639013	0.005322	0.001055	-0.010486	-0.741455	0.129150	-0.332520	0.679319	-0.103842	-0.724491	-0.053426
23613		9.772004	-0.707222	-0.652083	0.024177	0.002802	-0.014368	-0.739990	0.136719	-0.340820	0.679422	-0.103572	-0.724447	-0.053244
23614		9.741316	-0.692447	-0.708967	0.019640	-0.001314	-0.017440	-0.730957	0.133057	-0.341553	0.679518	-0.103347	-0.724400	-0.053098
23615		9.759771	-0.675560	-0.727660	0.006541	0.000818	-0.015350	-0.738770	0.123535	-0.335205	0.679592	-0.103227	-0.724349	-0.053075
23616		9.772811	-0.696868	-0.651124	0.005356	0.000150	-0.010271	-0.735596	0.138916	-0.339600	0.679623	-0.103146	-0.724335	-0.053041
23617		9.759818	-0.693786	-0.683790	0.004738	-0.001026	-0.012398	-0.733887	0.121338	-0.336914	0.679679	-0.103114	-0.724292	-0.052967
23618		9.755073	-0.674336	-0.707563	0.014053	0.002196	-0.017872	-0.739014	0.125488	-0.338379	0.679731	-0.102866	-0.724280	-0.052937
23619		9.772822	-0.675422	-0.714157	0.009903	0.000268	-0.017925	-0.738525	0.130615	-0.337402	0.679772	-0.102695	-0.724268	-0.052919
23620		9.765341	-0.692554	-0.690660	0.001515	0.000128	-0.015055	-0.744629	0.130127	-0.341797	0.679795	-0.102649	-0.724252	-0.052925
23621		9.742968	-0.704526	-0.707995	0.003452	-0.000571	-0.013468	-0.737549	0.128174	-0.340088	0.679837	-0.102632	-0.724216	-0.052912
23622		9.756416	-0.701269	-0.675268	0.008651	0.000351	-0.016946	-0.731689	0.130859	-0.347412	0.679872	-0.102500	-0.724204	-0.052889
23623		9.774831	-0.684228	-0.694161	0.008308	-0.001704	-0.016093	-0.729980	0.124268	-0.336182	0.679942	-0.102402	-0.724153	-0.052878
23624		9.754241	-0.665211	-0.703270	0.004102	-0.000293	-0.011123	-0.742432	0.128662	-0.337646	0.679938	-0.102296	-0.724174	-0.052844
23625		9.732923	-0.665049	-0.700510	-0.000111	-0.000437	-0.011622	-0.737549	0.125977	-0.346191	0.679929	-0.102316	-0.724180	-0.052837
23626		9.821819	-0.680257	-0.684300	-0.004942	-0.002280	-0.016073	-0.738525	0.123535	-0.342041	0.679956	-0.102320	-0.724144	-0.052968
23627		9.768992	-0.715559	-0.652065	0.000089	-0.001604	-0.016390	-0.730225	0.132324	-0.336670	0.679959	-0.102245	-0.724146	-0.053049
23628		9.752474	-0.688165	-0.657114	0.004949	-0.001693	-0.015365	-0.745361	0.124512	-0.346680	0.679954	-0.102183	-0.724163	-0.052998
23629		9.738823	-0.666498	-0.678662	0.003279	-0.007097	-0.011496	-0.739014	0.137939	-0.343506	0.679945	-0.102192	-0.724168	-0.053024
23630		9.745516	-0.691329	-0.724078	-0.007357	-0.005831	-0.017073	-0.739258	0.137939	-0.341797	0.679930	-0.102355	-0.724153	-0.053109
23631		9.765529	-0.715267	-0.736524	-0.005147	-0.003733	-0.020450	-0.740723	0.125488	-0.339844	0.679914	-0.102467	-0.724146	-0.053196
23632		9.787099	-0.731832	-0.696545	0.000769	-0.003260	-0.017476	-0.739990	0.132568	-0.332764	0.679875	-0.102404	-0.724187	-0.053259
23633		9.764811	-0.742758	-0.714881	-0.001509	-0.005146	-0.020039	-0.736816	0.130127	-0.349365	0.679758	-0.102390	-0.724299	-0.053264
23634		9.764096	-0.750511	-0.735602	0.002706	0.000225	-0.022022	-0.742432	0.133301	-0.347656	0.679856	-0.102390	-0.724196	-0.053405
23635		9.736512	-0.755523	-0.689085	0.022481	-0.000650	-0.027917	-0.737549	0.123535	-0.333496	0.679930	-0.102239	-0.724149	-0.053385
23636		9.775394	-0.709790	-0.730567	0.017491	-0.001718	-0.025559	-0.735596	0.133545	-0.345215	0.679862	-0.101884	-0.724270	-0.053291
23637		9.754308	-0.707032	-0.727698	0.011581	-0.000119	-0.021233	-0.743408	0.134033	-0.332764	0.679934	-0.101873	-0.724205	-0.053280
23638		9.757682	-0.707135	-0.743201	0.014063	0.001111	-0.021627	-0.741943	0.115723	-0.346680	0.679859	-0.101776	-0.724300	-0.053124
23639		9.774725	-0.652341	-0.737242	0.019263	0.002555	-0.023303	-0.742676	0.126465	-0.339111	0.679939	-0.101450	-0.724267	-0.053183
23640		9.758217	-0.623459	-0.741276	0.011519	0.001115	-0.023541	-0.742188	0.128418	-0.345703	0.679915	-0.101304	-0.724310	-0.053173
23641		9.751670	-0.620234	-0.728655	0.003287	0.006407	-0.026312	-0.737549	0.127686	-0.332031	0.679999	-0.101299	-0.724220	-0.053338
23642		9.787780	-0.666328	-0.709875	0.000474	0.003642	-0.023235	-0.737793	0.121826	-0.334717	0.679925	-0.101173	-0.724308	-0.053329
23643		9.757540	-0.655776	-0.734358	-0.000821	0.005146	-0.020643	-0.739746	0.124023	-0.341797	0.679891	-0.101013	-0.724359	-0.053377
23644		9.779906	-0.653345	-0.704087	-0.000375	0.004517	-0.020828	-0.735352	0.139893	-0.333740	0.679922	-0.100978	-0.724325	-0.053503
23645		9.735630	-0.648683	-0.705377	0.002379	0.004368	-0.020054	-0.738770	0.128906	-0.336182	0.679890	-0.101163	-0.724334	-0.053442
23646		9.763226	-0.638449	-0.694808	0.005339	0.004088	-0.020400	-0.743408	0.128906	-0.331787	0.679865	-0.101129	-0.724362	-0.053433
23647		9.724664	-0.631392	-0.683671	0.001494	0.005605	-0.019705	-0.736084	0.125000	-0.338623	0.679770	-0.101110	-0.724456	-0.053410
23648		9.823508	-0.641138	-0.725371	-0.002607	0.002765	-0.019518	-0.733643	0.132812	-0.328125	0.679771	-0.101095	-0.724450	-0.053511
23649		9.791298	-0.704728	-0.702966	0.004159	0.002387	-0.018959	-0.737793	0.125244	-0.340576	0.679661	-0.101104	-0.724560	-0.053398
23650		9.740119	-0.648779	-0.704018	0.014504	0.007783	-0.017037	-0.732666	0.126953	-0.339111	0.679747	-0.101010	-0.724495	-0.053367
23651		9.745780	-0.606373	-0.690028	0.017717	0.002336	-0.012110	-0.737061	0.125488	-0.341064	0.679803	-0.100956	-0.724460	-0.053228
23652		9.751666	-0.631769	-0.709104	-0.000874	0.002733	-0.014980	-0.743652	0.133301	-0.342041	0.679832	-0.101032	-0.724416	-0.053317
23653		9.785210	-0.663631	-0.762467	0.002386	0.004862	-0.018257	-0.741211	0.130371	-0.335938	0.679851	-0.101283	-0.724354	-0.053430
23654		9.772934	-0.688392	-0.717798	0.008187	0.007515	-0.017799	-0.736084	0.130859	-0.338867	0.679835	-0.101323	-0.724367	-0.053392
23655		9.756252	-0.684653	-0.677534	0.004202	0.002003	-0.016919	-0.739258	0.124268	-0.346924	0.679835	-0.101456	-0.724346	-0.053419
23656		9.772811	-0.693205	-0.735343	0.013901	0.007099	-0.017369	-0.733887	0.122803	-0.337158	0.679980	-0.101442	-0.724206	-0.053504
23657		9.741713	-0.689610	-0.703231	0.022584	0.005878	-0.019116	-0.740967	0.129395	-0.335938	0.680026	-0.101140	-0.724217	-0.053339
23658		9.766607	-0.656429	-0.688362	0.012159	0.003307	-0.017832	-0.740967	0.124268	-0.345215	0.679969	-0.101137	-0.724278	-0.053248
23659		9.762598	-0.655165	-0.722980	0.011992	0.007929	-0.015089	-0.739990	0.133301	-0.335205	0.680081	-0.101155	-0.724166	-0.053301
23660		9.780975	-0.661519	-0.696191	0.010994	0.005921	-0.018659	-0.734863	0.128174	-0.337891	0.680038	-0.101250	-0.724200	-0.053214
23661		9.780941	-0.652021	-0.726410	0.011395	0.006718	-0.017239	-0.745850	0.132080	-0.335693	0.680077	-0.101242	-0.724169	-0.053153
23662		9.745446	-0.650690	-0.730838	0.006385	0.004934	-0.020590	-0.740723	0.130859	-0.337158	0.679983	-0.101344	-0.724244	-0.053141
23663		9.751201	-0.661124	-0.705132	0.007778	0.006478	-0.023185	-0.743652	0.129883	-0.342041	0.679959	-0.101394	-0.724258	-0.053165
23664		9.767098	-0.673744	-0.706607	0.010534	0.006338	-0.022412	-0.740479	0.127686	-0.338135	0.679982	-0.101490	-0.724215	-0.053257
23665		9.767554	-0.668974	-0.704838	0.008648	0.006834	-0.018044	-0.738037	0.125488	-0.335205	0.679981	-0.101500	-0.724216	-0.053239
23666		9.756029	-0.657802	-0.683879	0.012555	0.005156	-0.012769	-0.736572	0.129883	-0.339600	0.679952	-0.101401	-0.724269	-0.053069
23667		9.778187	-0.633283	-0.696681	0.014923	0.008519	-0.015709	-0.732910	0.123291	-0.346191	0.680021	-0.101479	-0.724198	-0.053015
23668		9.764467	-0.611990	-0.715149	0.008621	0.008439	-0.012543	-0.740967	0.124512	-0.345703	0.680197	-0.101553	-0.724016	-0.053104
23669		9.750789	-0.614413	-0.689895	0.005263	0.007899	-0.013630	-0.739502	0.123047	-0.342285	0.680293	-0.101677	-0.723899	-0.053228
23670		9.781359	-0.610241	-0.694617	-0.002626	0.004598	-0.016170	-0.732178	0.126709	-0.336426	0.680311	-0.101729	-0.723865	-0.053356
23671		9.783057	-0.679397	-0.693546	-0.002427	0.004998	-0.015459	-0.740234	0.124023	-0.336670	0.680305	-0.101770	-0.723866	-0.053348
23672		9.776713	-0.660582	-0.692339	0.005292	0.007548	-0.011564	-0.738770	0.127441	-0.340576	0.680283	-0.101711	-0.723903	-0.053251
23673		9.739035	-0.575153	-0.653322	-0.003709	0.001328	-0.010328	-0.739258	0.125244	-0.344482	0.680253	-0.101929	-0.723895	-0.053312
23674		9.762133	-0.642106	-0.655730	-0.012246	0.003081	-0.013861	-0.737305	0.132324	-0.336182	0.680276	-0.102187	-0.723818	-0.053562
23675		9.768441	-0.715916	-0.694999	-0.000842	0.001901	-0.020813	-0.744385	0.132324	-0.343994	0.680199	-0.102335	-0.723867	-0.053605
23676		9.798016	-0.692167	-0.688638	0.011155	0.002671	-0.019868	-0.741211	0.128418	-0.337891	0.680200	-0.102548	-0.723828	-0.053714
23677		9.753282	-0.683299	-0.722892	0.002275	-0.001380	-0.018388	-0.739502	0.129639	-0.341064	0.680099	-0.102599	-0.723914	-0.053728
23678		9.760440	-0.717899	-0.678519	0.000847	0.002257	-0.018326	-0.740234	0.130371	-0.335938	0.680084	-0.102771	-0.723896	-0.053840
23679		9.767856	-0.710590	-0.689047	0.020769	0.004718	-0.020366	-0.740234	0.123779	-0.341064	0.680045	-0.102661	-0.723961	-0.053673
23680		9.733665	-0.659560	-0.697631	0.016811	0.003495	-0.021763	-0.736328	0.130859	-0.341064	0.680059	-0.102488	-0.723973	-0.053652
23681		9.752197	-0.622630	-0.727729	0.006361	0.001242	-0.022537	-0.744385	0.125977	-0.344238	0.680060	-0.102626	-0.723946	-0.053751
23682		9.801495	-0.613542	-0.688327	0.006068	0.003150	-0.021885	-0.739502	0.129883	-0.343506	0.680065	-0.102692	-0.723919	-0.053917
23683		9.793941	-0.643182	-0.683646	-0.002267	0.006239	-0.015024	-0.743896	0.121826	-0.344971	0.680113	-0.102991	-0.723819	-0.054094
23684		9.762674	-0.667074	-0.716303	-0.007820	0.003825	-0.008759	-0.739014	0.130859	-0.341309	0.680128	-0.103183	-0.723763	-0.054280
23685		9.727052	-0.668141	-0.721417	-0.001117	0.004717	-0.010511	-0.737549	0.131348	-0.341064	0.680140	-0.103473	-0.723706	-0.054344
23686		9.758214	-0.651427	-0.706480	0.003733	0.004487	-0.013404	-0.747314	0.119141	-0.342529	0.680159	-0.103694	-0.723653	-0.054381
23687		9.795575	-0.662468	-0.710950	-0.001237	0.006618	-0.016990	-0.736084	0.121582	-0.339844	0.680150	-0.103602	-0.723665	-0.054512
23688		9.775878	-0.703300	-0.674565	0.004032	0.006859	-0.016374	-0.744141	0.126953	-0.345215	0.680191	-0.103469	-0.723646	-0.054507
23689		9.756871	-0.689341	-0.673986	0.014840	0.005770	-0.017878	-0.743164	0.123535	-0.344238	0.680240	-0.103526	-0.723586	-0.054579
23690		9.766898	-0.656183	-0.667961	0.023179	0.003429	-0.018984	-0.737793	0.126953	-0.344238	0.680274	-0.103383	-0.723577	-0.054544
23691		9.753262	-0.615788	-0.699534	0.022129	0.003371	-0.019118	-0.729492	0.132812	-0.344971	0.680337	-0.103343	-0.723526	-0.054514
23692		9.757021	-0.640279	-0.669969	0.013580	0.005840	-0.016896	-0.728760	0.128906	-0.344727	0.680470	-0.103568	-0.723366	-0.054557
23693		9.800410	-0.611513	-0.686324	0.009560	0.001546	-0.018295	-0.739014	0.125977	-0.337891	0.680558	-0.103692	-0.723260	-0.054622
23694		9.766155	-0.628816	-0.703353	0.010008	0.005203	-0.020794	-0.738525	0.126221	-0.338379	0.680533	-0.103535	-0.723313	-0.054533
23695		9.739370	-0.586018	-0.660232	0.006666	0.000577	-0.015637	-0.745361	0.129639	-0.341797	0.680474	-0.103484	-0.723382	-0.054443
23696		9.772182	-0.635842	-0.678151	-0.008730	0.000089	-0.017905	-0.741455	0.126221	-0.342285	0.680384	-0.103736	-0.723417	-0.054630
23697		9.744020	-0.699970	-0.703953	-0.008063	-0.000680	-0.019219	-0.740234	0.128418	-0.341797	0.680322	-0.103882	-0.723440	-0.054820
23698		9.773382	-0.675919	-0.697759	0.010463	0.004575	-0.020990	-0.741211	0.128906	-0.347412	0.680332	-0.103898	-0.723425	-0.054857
23699		9.784970	-0.665190	-0.672309	0.004084	0.001202	-0.021741	-0.731689	0.129395	-0.340088	0.680358	-0.104119	-0.723350	-0.055102
23700		9.767545	-0.673442	-0.653445	-0.006122	-0.001559	-0.021553	-0.745117	0.131104	-0.343262	0.680325	-0.104240	-0.723356	-0.055214
23701		9.767425	-0.680869	-0.673217	0.010315	0.003050	-0.025424	-0.747559	0.127197	-0.342773	0.680302	-0.104331	-0.723354	-0.055341
23702		9.763044	-0.627865	-0.689083	0.013896	-0.001041	-0.027095	-0.743896	0.127441	-0.341309	0.680228	-0.104268	-0.723426	-0.055428
23703		9.774253	-0.592949	-0.708774	-0.005661	-0.002206	-0.021748	-0.742676	0.123535	-0.335693	0.680131	-0.104390	-0.723487	-0.055598
23704		9.764814	-0.672163	-0.677535	-0.016397	0.001810	-0.014210	-0.737061	0.127441	-0.342773	0.680015	-0.104416	-0.723589	-0.055642
23705		9.739822	-0.697956	-0.667167	0.000042	-0.001787	-0.015526	-0.735107	0.125000	-0.336670	0.679996	-0.104577	-0.723576	-0.055741
23706		9.761756	-0.635917	-0.705689	0.016305	0.002102	-0.018028	-0.735840	0.129395	-0.340332	0.679983	-0.104349	-0.723636	-0.055544
23707		9.779347	-0.631225	-0.743647	0.007118	0.004209	-0.018187	-0.730713	0.125977	-0.338379	0.680007	-0.104414	-0.723604	-0.055551
23708		9.764291	-0.632129	-0.695915	-0.006267	0.001598	-0.020455	-0.739746	0.124023	-0.333984	0.680000	-0.104426	-0.723603	-0.055619
23709		9.751474	-0.682980	-0.692036	0.004629	0.003507	-0.015934	-0.741943	0.125488	-0.336426	0.679929	-0.104247	-0.723708	-0.055466
23710		9.746847	-0.631830	-0.707250	0.021487	0.003900	-0.021852	-0.736816	0.127930	-0.340820	0.679892	-0.103984	-0.723793	-0.055294
23711		9.777994	-0.594342	-0.704156	0.017876	0.004350	-0.022055	-0.751221	0.126709	-0.341064	0.679930	-0.103913	-0.723771	-0.055259
23712		9.767692	-0.581975	-0.707660	0.006097	0.003572	-0.020191	-0.740479	0.128906	-0.344971	0.679863	-0.103957	-0.723820	-0.055354
23713		9.735902	-0.592100	-0.696578	-0.003436	0.004434	-0.013649	-0.738037	0.125488	-0.349365	0.679900	-0.104266	-0.723726	-0.055550
23714		9.746026	-0.640128	-0.718829	-0.004078	0.004405	-0.018142	-0.740479	0.124268	-0.335938	0.679992	-0.104541	-0.723574	-0.055876
23715		9.816558	-0.627347	-0.681631	0.007563	0.003883	-0.020497	-0.738770	0.128906	-0.343018	0.679942	-0.104353	-0.723656	-0.055786
23716		9.779665	-0.627181	-0.662838	0.007582	0.003793	-0.014457	-0.733398	0.120605	-0.337891	0.679974	-0.104506	-0.723600	-0.055832
23717		9.724177	-0.595461	-0.713132	0.002284	0.004314	-0.009271	-0.741699	0.128174	-0.343750	0.679992	-0.104406	-0.723606	-0.055712
23718		9.752792	-0.604938	-0.714380	0.001258	0.003696	-0.011252	-0.736084	0.124756	-0.340820	0.680007	-0.104636	-0.723552	-0.055809
23719		9.747917	-0.627561	-0.682182	-0.003017	0.000494	-0.017796	-0.733643	0.127686	-0.341797	0.679988	-0.104679	-0.723557	-0.055897
23720		9.792482	-0.616130	-0.710792	0.006251	0.004845	-0.019743	-0.741455	0.128662	-0.341309	0.680041	-0.104713	-0.723498	-0.055949
23721		9.803586	-0.655860	-0.680804	0.007538	0.004668	-0.014711	-0.741699	0.122803	-0.343262	0.680046	-0.104809	-0.723479	-0.055962
23722		9.750086	-0.682995	-0.687032	-0.000812	0.002771	-0.017321	-0.740723	0.125732	-0.330322	0.680042	-0.104849	-0.723466	-0.056096
23723		9.754198	-0.707362	-0.657728	0.016620	0.004663	-0.017143	-0.739502	0.122559	-0.339111	0.679957	-0.104532	-0.723616	-0.055780
23724		9.771100	-0.658220	-0.643449	0.029559	0.003734	-0.018426	-0.741455	0.126953	-0.339844	0.679975	-0.104213	-0.723663	-0.055551
23725		9.767605	-0.607816	-0.682660	0.027982	0.001789	-0.016524	-0.734375	0.120850	-0.340088	0.679968	-0.104063	-0.723706	-0.055359
23726		9.774476	-0.596659	-0.725191	0.013915	0.004096	-0.013760	-0.739746	0.127930	-0.338623	0.680011	-0.103897	-0.723699	-0.055230
23727		9.764488	-0.609331	-0.684755	0.006779	0.003229	-0.013662	-0.741699	0.126709	-0.341553	0.679987	-0.103957	-0.723716	-0.055183
23728		9.771743	-0.603327	-0.695402	0.008887	0.003340	-0.013420	-0.736328	0.134521	-0.344727	0.679986	-0.104027	-0.723708	-0.055175
23729		9.771676	-0.613523	-0.714326	0.009077	0.003752	-0.012703	-0.741455	0.128174	-0.344971	0.680044	-0.104339	-0.723603	-0.055237
23730		9.764954	-0.613500	-0.701473	0.001762	0.006098	-0.011470	-0.739014	0.134277	-0.334717	0.680091	-0.104577	-0.723516	-0.055353
23731		9.745403	-0.632637	-0.709160	-0.001160	0.005458	-0.010879	-0.733398	0.121826	-0.339111	0.680042	-0.104774	-0.723539	-0.055282
23732		9.753091	-0.631807	-0.687188	0.005313	0.006842	-0.013627	-0.739746	0.126709	-0.345703	0.680092	-0.104660	-0.723515	-0.055207
23733		9.760538	-0.643252	-0.685114	0.009433	0.004949	-0.019438	-0.740479	0.119385	-0.342773	0.680148	-0.104721	-0.723444	-0.055321
23734		9.782394	-0.653526	-0.674276	0.006431	0.005756	-0.017232	-0.732910	0.125977	-0.337646	0.680181	-0.104595	-0.723429	-0.055353
23735		9.759864	-0.653447	-0.646314	0.003088	0.005108	-0.012259	-0.739014	0.128906	-0.335693	0.680196	-0.104590	-0.723422	-0.055268
23736		9.740107	-0.685614	-0.673920	0.010039	0.005560	-0.013085	-0.733887	0.124023	-0.338623	0.680172	-0.104566	-0.723460	-0.055124
23737		9.810207	-0.636864	-0.660730	0.018938	0.001512	-0.018100	-0.742920	0.125977	-0.343262	0.680176	-0.104351	-0.723499	-0.054959
23738		9.764343	-0.616010	-0.650826	0.021370	0.003383	-0.022737	-0.737061	0.135010	-0.347656	0.680191	-0.104222	-0.723505	-0.054942
23739		9.766319	-0.580108	-0.665943	0.011484	0.002544	-0.017356	-0.735352	0.127930	-0.335938	0.680253	-0.104512	-0.723395	-0.055072
23740		9.725678	-0.588999	-0.652228	-0.001822	-0.001369	-0.011181	-0.732910	0.129639	-0.349365	0.680174	-0.104582	-0.723465	-0.054995
23741		9.773107	-0.628352	-0.725486	-0.011883	-0.002837	-0.016552	-0.729980	0.121826	-0.331543	0.680196	-0.104976	-0.723362	-0.055326
23742		9.766410	-0.626107	-0.714342	-0.007006	0.000603	-0.023716	-0.741699	0.119873	-0.343506	0.680114	-0.104723	-0.723480	-0.055266
23743		9.794682	-0.690780	-0.624603	-0.003212	-0.002751	-0.026771	-0.735352	0.124023	-0.336914	0.680053	-0.104624	-0.723537	-0.055471
23744		9.762831	-0.744315	-0.642753	0.003060	-0.001563	-0.020208	-0.739502	0.130859	-0.337646	0.679987	-0.104513	-0.723616	-0.055446
23745		9.753325	-0.709792	-0.715203	0.017214	0.002222	-0.016945	-0.739502	0.123047	-0.339844	0.679960	-0.104498	-0.723652	-0.055336
23746		9.741650	-0.653413	-0.667582	0.024884	0.001329	-0.020968	-0.743896	0.122559	-0.333252	0.679957	-0.104233	-0.723705	-0.055188
23747		9.802255	-0.596245	-0.683753	0.023124	-0.001025	-0.019770	-0.744629	0.129395	-0.340576	0.679851	-0.103896	-0.723871	-0.054943
23748		9.764705	-0.573270	-0.710034	0.018824	0.000183	-0.018647	-0.739258	0.129883	-0.339600	0.679810	-0.103893	-0.723913	-0.054898
23749		9.752563	-0.606099	-0.718044	0.010698	0.001717	-0.020541	-0.735107	0.127197	-0.342529	0.679789	-0.103930	-0.723926	-0.054917
23750		9.736623	-0.596889	-0.734830	0.007681	-0.000807	-0.022287	-0.739502	0.130615	-0.338379	0.679788	-0.103955	-0.723918	-0.054999
23751		9.767577	-0.595329	-0.708660	0.008150	0.001904	-0.018508	-0.746094	0.124023	-0.341553	0.679755	-0.104031	-0.723937	-0.055008
23752		9.751859	-0.604918	-0.712918	0.001553	0.002574	-0.018342	-0.742920	0.119141	-0.333496	0.679720	-0.104070	-0.723956	-0.055115
23753		9.764657	-0.593942	-0.711768	0.002312	0.000634	-0.023403	-0.732178	0.129395	-0.336914	0.679616	-0.103810	-0.724094	-0.055078
23754		9.783058	-0.610795	-0.706148	0.003961	0.001370	-0.022989	-0.746582	0.122314	-0.345947	0.679596	-0.103834	-0.724106	-0.055124
23755		9.773133	-0.635121	-0.685959	-0.001458	0.003376	-0.016131	-0.733154	0.119141	-0.336182	0.679604	-0.103952	-0.724068	-0.055308
23756		9.769582	-0.621812	-0.701302	0.003974	0.004384	-0.010822	-0.738037	0.128418	-0.344482	0.679616	-0.103828	-0.724084	-0.055179
23757		9.737661	-0.570933	-0.674811	0.003198	0.003281	-0.011845	-0.738037	0.124756	-0.342285	0.679656	-0.104048	-0.724008	-0.055268
23758		9.736136	-0.548915	-0.662326	-0.005039	0.003219	-0.018196	-0.740967	0.129395	-0.338623	0.679664	-0.104160	-0.723972	-0.055428
23759		9.886008	-0.593934	-0.715800	-0.009198	0.002086	-0.018442	-0.737793	0.124023	-0.346680	0.679609	-0.104361	-0.723981	-0.055604
23760		9.748360	-0.660059	-0.667592	-0.008798	0.002327	-0.012769	-0.748779	0.122070	-0.340332	0.679645	-0.104599	-0.723896	-0.055819
23761		9.739094	-0.618666	-0.687952	-0.002699	0.002863	-0.010893	-0.733154	0.123047	-0.339355	0.679594	-0.104679	-0.723928	-0.055880
23762		9.737735	-0.616413	-0.663740	-0.005944	0.000478	-0.005389	-0.736572	0.129150	-0.339844	0.679585	-0.104816	-0.723917	-0.055863
23763		9.752605	-0.676286	-0.670920	-0.008357	-0.004712	-0.010806	-0.741699	0.126465	-0.343506	0.679508	-0.105073	-0.723945	-0.055960
23764		9.773247	-0.614113	-0.710070	0.017563	0.003937	-0.021930	-0.732666	0.121338	-0.343750	0.679544	-0.105002	-0.723920	-0.055988
23765		9.775604	-0.613772	-0.700614	0.017959	0.004486	-0.024481	-0.737305	0.117188	-0.341064	0.679629	-0.104781	-0.723873	-0.055982
23766		9.759183	-0.658503	-0.656917	0.006367	-0.002933	-0.021563	-0.745117	0.129639	-0.336914	0.679592	-0.104573	-0.723937	-0.055993
23767		9.812590	-0.648305	-0.689234	0.016714	0.003980	-0.019237	-0.743164	0.124512	-0.337891	0.679558	-0.104526	-0.723980	-0.055930
23768		9.741635	-0.641320	-0.680263	0.023336	0.006075	-0.011205	-0.744629	0.125244	-0.341309	0.679578	-0.104396	-0.723996	-0.055723
23769		9.735718	-0.605811	-0.715714	0.012617	0.001654	-0.011012	-0.737549	0.123047	-0.341064	0.679564	-0.104429	-0.724009	-0.055667
23770		9.763843	-0.591283	-0.761155	0.022061	0.003107	-0.016285	-0.737549	0.123047	-0.334717	0.679601	-0.104268	-0.724007	-0.055533
23771		9.773186	-0.549908	-0.703742	0.020448	0.005118	-0.014613	-0.745605	0.125488	-0.338135	0.679607	-0.104052	-0.724050	-0.055308
23772		9.764609	-0.530844	-0.679208	0.004642	0.004149	-0.016434	-0.740234	0.119141	-0.348877	0.679571	-0.104072	-0.724079	-0.055333
23773		9.765538	-0.616544	-0.733134	0.001945	0.003334	-0.016977	-0.737061	0.130615	-0.341064	0.679633	-0.104101	-0.724005	-0.055484
23774		9.759288	-0.633392	-0.708375	0.009957	0.003878	-0.017710	-0.744873	0.132812	-0.339844	0.679657	-0.104192	-0.723967	-0.055513
23775		9.784457	-0.617012	-0.705728	0.010128	0.004587	-0.019114	-0.736084	0.129883	-0.342041	0.679642	-0.104308	-0.723960	-0.055568
23776		9.773189	-0.642076	-0.660932	0.002043	0.004921	-0.012518	-0.738770	0.126709	-0.344727	0.679680	-0.104507	-0.723891	-0.055634
23777		9.752165	-0.656644	-0.676545	0.014634	0.006578	-0.011320	-0.742676	0.129395	-0.338867	0.679760	-0.104582	-0.723807	-0.055610
23778		9.765592	-0.599052	-0.702156	0.021674	0.008949	-0.009829	-0.733887	0.124512	-0.341309	0.679808	-0.104580	-0.723775	-0.055440
23779		9.742171	-0.564689	-0.698153	0.010911	0.005115	-0.007741	-0.744385	0.130615	-0.339600	0.679866	-0.104611	-0.723724	-0.055332
23780		9.746258	-0.572972	-0.680312	0.000450	0.006354	-0.006601	-0.741699	0.118164	-0.345215	0.679862	-0.104852	-0.723692	-0.055344
23781		9.832556	-0.604733	-0.684837	0.002242	0.005044	-0.009683	-0.736084	0.127930	-0.342529	0.679904	-0.104876	-0.723647	-0.055382
23782		9.747607	-0.631557	-0.692554	0.011071	0.006110	-0.011271	-0.737793	0.123047	-0.340088	0.679964	-0.104951	-0.723582	-0.055344
23783		9.748890	-0.571220	-0.667849	0.010551	0.004261	-0.009196	-0.744141	0.123535	-0.349365	0.679986	-0.104916	-0.723575	-0.055227
23784		9.769241	-0.596881	-0.653313	0.000510	0.002131	-0.004204	-0.736816	0.129395	-0.337891	0.680017	-0.105172	-0.723501	-0.055329
23785		9.755936	-0.659848	-0.676917	-0.003241	0.001251	-0.004863	-0.739990	0.120850	-0.346924	0.679981	-0.105376	-0.723509	-0.055286
23786		9.755249	-0.622290	-0.700563	0.013022	0.005241	-0.007510	-0.734375	0.122559	-0.344482	0.680056	-0.105390	-0.723440	-0.055240
23787		9.780689	-0.639907	-0.705480	0.011723	0.002569	-0.008580	-0.733643	0.131104	-0.336914	0.680108	-0.105388	-0.723398	-0.055158
23788		9.761936	-0.665003	-0.681586	0.003652	0.002894	-0.008097	-0.746338	0.127686	-0.342529	0.680098	-0.105505	-0.723398	-0.055061
23789		9.773019	-0.670173	-0.675503	0.016357	0.006141	-0.008559	-0.739746	0.126709	-0.335693	0.680123	-0.105547	-0.723375	-0.054972
23790		9.735257	-0.650497	-0.700525	0.021915	0.005421	-0.008864	-0.746338	0.130615	-0.337891	0.680128	-0.105404	-0.723411	-0.054695
23791		9.764097	-0.646435	-0.681648	0.014825	0.000576	-0.008452	-0.736572	0.128906	-0.343018	0.680068	-0.105451	-0.723472	-0.054551
23792		9.781679	-0.631265	-0.699515	0.008838	0.007454	-0.003787	-0.746094	0.128174	-0.336914	0.680140	-0.105608	-0.723387	-0.054475
23793		9.730740	-0.654462	-0.677031	0.010351	0.003846	-0.003813	-0.744141	0.127441	-0.338867	0.680102	-0.105663	-0.723428	-0.054305
23794		9.764222	-0.638866	-0.709709	0.010465	0.005427	-0.005470	-0.736816	0.133301	-0.346191	0.680099	-0.105710	-0.723433	-0.054172
23795		9.782215	-0.627669	-0.695247	0.009032	0.005069	-0.011295	-0.743408	0.129395	-0.330811	0.680162	-0.105915	-0.723340	-0.054225
23796		9.754728	-0.663506	-0.687081	0.004121	0.005592	-0.010448	-0.732178	0.122559	-0.341064	0.680097	-0.105876	-0.723419	-0.054066
23797		9.758964	-0.684570	-0.689136	0.002488	0.004562	-0.008737	-0.736816	0.130371	-0.343506	0.680138	-0.105869	-0.723387	-0.053999
23798		9.766509	-0.684706	-0.667074	0.010122	0.007345	-0.004830	-0.738525	0.131836	-0.331543	0.680210	-0.106019	-0.723302	-0.053930
23799		9.751405	-0.635190	-0.678945	0.014390	0.007009	-0.006230	-0.736816	0.127930	-0.337646	0.680196	-0.105984	-0.723340	-0.053668
23800		9.764334	-0.632067	-0.644251	0.007826	0.007061	-0.007927	-0.736816	0.132812	-0.336182	0.680221	-0.105995	-0.723324	-0.053544
23801		9.759730	-0.665428	-0.662322	0.007076	0.005392	-0.004689	-0.736084	0.123047	-0.342529	0.680220	-0.106120	-0.723316	-0.053412
23802		9.746081	-0.683216	-0.657276	0.011867	0.006893	-0.008177	-0.736572	0.131104	-0.343506	0.680287	-0.106052	-0.723273	-0.053284
23803		9.797868	-0.675159	-0.664267	0.010334	0.004668	-0.010216	-0.735840	0.132568	-0.341553	0.680329	-0.106148	-0.723221	-0.053252
23804		9.771766	-0.684624	-0.640540	0.014374	0.004501	-0.010465	-0.740723	0.128906	-0.340088	0.680364	-0.106209	-0.723186	-0.053167
23805		9.728774	-0.659594	-0.626434	0.023415	0.005153	-0.004962	-0.738525	0.128418	-0.341309	0.680394	-0.106158	-0.723184	-0.052921
23806		9.757409	-0.665020	-0.658693	0.019601	0.005417	-0.008005	-0.734619	0.125488	-0.347168	0.680435	-0.106112	-0.723165	-0.052742
23807		9.741383	-0.659099	-0.674921	0.009798	0.000316	-0.012360	-0.739502	0.121826	-0.336670	0.680467	-0.106120	-0.723134	-0.052726
23808		9.786776	-0.684606	-0.678693	0.012380	0.002878	-0.012342	-0.743164	0.131836	-0.345215	0.680442	-0.105914	-0.723202	-0.052539
23809		9.787957	-0.717981	-0.653123	0.015842	0.001750	-0.010757	-0.733154	0.131104	-0.336182	0.680449	-0.105994	-0.723187	-0.052496
23810		9.748219	-0.693285	-0.687459	0.012568	0.003026	-0.009495	-0.737793	0.124268	-0.352539	0.680442	-0.105980	-0.723207	-0.052329
23811		9.735461	-0.665588	-0.679663	0.012215	0.005217	-0.010989	-0.741455	0.126221	-0.343994	0.680546	-0.106011	-0.723103	-0.052344
23812		9.771973	-0.689135	-0.679517	0.011799	0.002179	-0.012650	-0.739258	0.131836	-0.335205	0.680550	-0.105982	-0.723108	-0.052293
23813		9.753832	-0.664213	-0.684751	0.003833	0.000761	-0.011639	-0.732910	0.127930	-0.344482	0.680480	-0.106032	-0.723171	-0.052228
23814		9.759810	-0.684938	-0.711370	-0.001387	0.002878	-0.014154	-0.733887	0.135498	-0.338379	0.680506	-0.106122	-0.723128	-0.052302
23815		9.773750	-0.715638	-0.653003	-0.001854	0.003494	-0.013982	-0.740967	0.131592	-0.343018	0.680490	-0.106292	-0.723114	-0.052364
23816		9.754404	-0.717007	-0.673412	0.002604	0.003313	-0.012532	-0.734863	0.134766	-0.344482	0.680486	-0.106423	-0.723094	-0.052419
23817		9.759926	-0.720203	-0.711883	0.010813	0.004017	-0.010434	-0.732910	0.125977	-0.340332	0.680529	-0.106567	-0.723033	-0.052406
23818		9.754955	-0.711922	-0.670818	0.008236	0.007550	-0.010545	-0.729980	0.127441	-0.343262	0.680587	-0.106510	-0.722995	-0.052299
23819		9.752809	-0.685917	-0.690162	0.010801	0.001768	-0.016799	-0.738525	0.125488	-0.338867	0.680618	-0.106434	-0.722981	-0.052252
23820		9.774216	-0.664308	-0.671949	0.013908	0.005887	-0.016754	-0.734863	0.128906	-0.333496	0.680633	-0.106258	-0.723000	-0.052139
23821		9.762260	-0.666316	-0.671323	0.010273	0.003517	-0.019028	-0.737549	0.126953	-0.338379	0.680599	-0.106102	-0.723063	-0.052034
23822		9.768736	-0.690426	-0.665023	0.007994	0.005465	-0.015768	-0.742676	0.121582	-0.343506	0.680603	-0.106016	-0.723076	-0.051975
23823		9.747489	-0.686992	-0.693219	0.006363	0.004177	-0.011907	-0.734863	0.129883	-0.348877	0.680613	-0.105935	-0.723083	-0.051920
23824		9.731845	-0.684613	-0.677119	0.006123	0.004882	-0.015029	-0.733154	0.126709	-0.337402	0.680683	-0.106015	-0.723000	-0.051986
23825		9.803816	-0.687975	-0.651091	0.006598	0.001211	-0.015157	-0.737061	0.132812	-0.342529	0.680655	-0.105932	-0.723044	-0.051907
23826		9.790105	-0.690279	-0.627209	0.006598	0.003993	-0.013072	-0.736328	0.133545	-0.337646	0.680669	-0.106032	-0.723015	-0.051922
23827		9.746114	-0.642035	-0.658702	0.009187	0.000194	-0.010825	-0.739014	0.128906	-0.335205	0.680626	-0.106102	-0.723051	-0.051848
23828		9.741278	-0.647065	-0.638496	0.003322	0.002217	-0.011757	-0.733154	0.131104	-0.347168	0.680572	-0.106107	-0.723105	-0.051786
23829		9.740409	-0.670108	-0.654081	-0.004941	-0.003205	-0.018294	-0.739258	0.131348	-0.343994	0.680546	-0.106258	-0.723095	-0.051958
23830		9.785806	-0.688879	-0.690860	0.000854	-0.000783	-0.021956	-0.739014	0.128174	-0.338379	0.680508	-0.106312	-0.723113	-0.052102
23831		9.790967	-0.725185	-0.681766	0.000626	-0.000873	-0.018664	-0.740479	0.132568	-0.341309	0.680440	-0.106291	-0.723177	-0.052143
23832		9.730047	-0.756090	-0.653694	-0.006930	-0.002052	-0.018076	-0.740234	0.129395	-0.350586	0.680363	-0.106452	-0.723213	-0.052314
23833		9.750302	-0.760238	-0.652208	0.008359	0.000994	-0.020681	-0.734131	0.135498	-0.345703	0.680392	-0.106475	-0.723174	-0.052430
23834		9.766646	-0.754639	-0.666743	0.019268	-0.000242	-0.020153	-0.735107	0.130615	-0.344727	0.680411	-0.106475	-0.723156	-0.052431
23835		9.772435	-0.697525	-0.683396	0.018922	-0.001117	-0.021613	-0.740723	0.121338	-0.342529	0.680414	-0.106372	-0.723170	-0.052403
23836		9.745585	-0.682606	-0.705302	0.006841	0.001260	-0.018502	-0.736816	0.124512	-0.339600	0.680399	-0.106222	-0.723209	-0.052381
23837		9.740927	-0.685669	-0.685201	0.004384	0.000249	-0.020192	-0.737305	0.126953	-0.333984	0.680363	-0.106105	-0.723259	-0.052381
23838		9.780146	-0.666306	-0.674795	0.008888	-0.001067	-0.024965	-0.738281	0.124512	-0.338867	0.680284	-0.105908	-0.723365	-0.052351
23839		9.776923	-0.664547	-0.710818	0.006225	0.000989	-0.023241	-0.734375	0.123047	-0.343506	0.680248	-0.105753	-0.723420	-0.052365
23840		9.722939	-0.687335	-0.725507	-0.002254	0.002374	-0.024350	-0.735107	0.128418	-0.346191	0.680254	-0.105665	-0.723419	-0.052482
23841		9.754640	-0.700838	-0.686253	-0.000882	0.002713	-0.027213	-0.739258	0.127930	-0.331787	0.680274	-0.105658	-0.723387	-0.052676
23842		9.780355	-0.699894	-0.671879	0.005454	0.000822	-0.024376	-0.737305	0.127197	-0.342529	0.680188	-0.105526	-0.723486	-0.052692
23843		9.782804	-0.698828	-0.663183	0.013508	0.001440	-0.025074	-0.734131	0.131836	-0.337891	0.680189	-0.105378	-0.723505	-0.052708
23844		9.756924	-0.656253	-0.668882	0.014856	0.005326	-0.023731	-0.736328	0.126221	-0.341553	0.680208	-0.105283	-0.723501	-0.052708
23845		9.739096	-0.642820	-0.693150	0.009731	0.003011	-0.021576	-0.743896	0.125732	-0.348633	0.680218	-0.105180	-0.723506	-0.052716
23846		9.753437	-0.631858	-0.715569	0.004910	0.001971	-0.022433	-0.732666	0.132324	-0.342529	0.680229	-0.105161	-0.723490	-0.052839
23847		9.754242	-0.585613	-0.680158	-0.001936	0.001253	-0.025315	-0.742188	0.128906	-0.337891	0.680219	-0.105238	-0.723474	-0.053032
23848		9.817774	-0.641528	-0.673894	-0.007520	0.001126	-0.027210	-0.737549	0.136475	-0.336426	0.680144	-0.105269	-0.723523	-0.053257
23849		9.719065	-0.654092	-0.672315	-0.009818	0.001270	-0.026099	-0.733643	0.128418	-0.341553	0.680071	-0.105450	-0.723545	-0.053537
23850		9.720361	-0.630608	-0.709118	-0.010660	-0.003710	-0.023260	-0.739258	0.128418	-0.344238	0.680001	-0.105554	-0.723580	-0.053754
23851		9.761502	-0.659229	-0.694138	-0.014049	-0.000913	-0.028850	-0.733887	0.133301	-0.339111	0.679946	-0.105662	-0.723590	-0.054088
23852		9.757494	-0.673079	-0.694670	-0.013483	-0.003147	-0.030862	-0.739014	0.129883	-0.337158	0.679856	-0.105792	-0.723631	-0.054422
23853		9.793201	-0.689623	-0.670827	0.006982	0.009942	-0.037447	-0.738281	0.129395	-0.343262	0.679884	-0.105610	-0.723617	-0.054611
23854		9.783137	-0.638663	-0.720437	0.006482	0.022932	-0.037178	-0.739502	0.134766	-0.335205	0.680064	-0.105472	-0.723449	-0.054867
23855		9.783258	-0.657921	-0.731810	-0.027466	0.011501	-0.022540	-0.737549	0.126465	-0.341553	0.680053	-0.105797	-0.723381	-0.055272
23856		9.723055	-0.774565	-0.739698	-0.029014	0.006594	-0.011860	-0.731934	0.123047	-0.344482	0.680047	-0.106132	-0.723315	-0.055569
23857		9.715231	-0.736664	-0.635130	0.004705	0.011506	-0.021117	-0.736572	0.125488	-0.345215	0.680159	-0.106044	-0.723218	-0.055624
23858		9.786247	-0.664212	-0.564389	0.043732	0.010865	-0.031987	-0.742676	0.126709	-0.347656	0.680297	-0.105581	-0.723169	-0.055455
23859		9.785408	-0.631250	-0.638213	0.048967	0.006446	-0.027406	-0.739014	0.122803	-0.342041	0.680396	-0.105175	-0.723151	-0.055242
23860		9.774836	-0.584217	-0.689901	0.032626	0.005833	-0.020551	-0.739502	0.130859	-0.344238	0.680455	-0.104860	-0.723158	-0.055029
23861		9.748955	-0.517099	-0.680266	0.006139	0.001358	-0.013186	-0.745605	0.125977	-0.339600	0.680448	-0.105003	-0.723140	-0.055080
23862		9.763705	-0.521094	-0.722849	0.000197	-0.000553	-0.018862	-0.741943	0.121094	-0.345703	0.680372	-0.105028	-0.723202	-0.055159
23863		9.785775	-0.524700	-0.745284	0.008643	-0.002136	-0.026712	-0.742432	0.122803	-0.343506	0.680334	-0.104879	-0.723253	-0.055235
23864		9.762642	-0.543853	-0.650309	0.004241	0.002057	-0.025666	-0.727539	0.128418	-0.342041	0.680315	-0.104789	-0.723275	-0.055346
23865		9.724867	-0.596825	-0.663326	-0.002599	-0.000003	-0.026442	-0.738037	0.127197	-0.340820	0.680302	-0.104820	-0.723270	-0.055526
23866		9.767898	-0.657480	-0.653832	0.008506	0.005164	-0.020553	-0.731689	0.120605	-0.343750	0.680317	-0.104789	-0.723257	-0.055565
23867		9.805868	-0.621104	-0.654458	0.016591	0.005013	-0.012372	-0.740723	0.122314	-0.338867	0.680385	-0.104669	-0.723222	-0.055417
23868		9.795455	-0.585978	-0.642899	0.013501	0.003023	-0.003689	-0.743164	0.128662	-0.342529	0.680383	-0.104656	-0.723242	-0.055212
23869		9.677367	-0.580359	-0.678539	0.014633	0.005177	-0.000981	-0.742432	0.120850	-0.337402	0.680412	-0.104794	-0.723205	-0.055068
23870		9.816298	-0.572049	-0.707046	0.015383	0.004889	-0.006583	-0.742676	0.127441	-0.343994	0.680415	-0.104696	-0.723233	-0.054849
23871		9.715141	-0.576045	-0.661329	0.011606	0.002197	-0.011849	-0.746826	0.122314	-0.344482	0.680415	-0.104749	-0.723227	-0.054819
23872		9.769189	-0.544074	-0.645350	0.007610	0.003295	-0.009124	-0.734619	0.113770	-0.336914	0.680415	-0.104782	-0.723226	-0.054773
23873		9.763847	-0.607924	-0.622995	0.002528	0.004019	-0.004448	-0.740967	0.132812	-0.344238	0.680419	-0.104682	-0.723252	-0.054568
23874		9.752539	-0.633020	-0.726704	0.001682	-0.000973	-0.001635	-0.741211	0.126221	-0.341553	0.680389	-0.104995	-0.723235	-0.054577
23875		9.754803	-0.606272	-0.734820	0.011355	0.003796	-0.004082	-0.736572	0.123047	-0.342529	0.680401	-0.105068	-0.723222	-0.054448
23876		9.789695	-0.584579	-0.707584	0.009498	0.004954	-0.009803	-0.740234	0.136230	-0.345703	0.680438	-0.105050	-0.723198	-0.054353
23877		9.756899	-0.597124	-0.672237	-0.004589	0.006081	-0.012856	-0.737061	0.125244	-0.335449	0.680462	-0.105364	-0.723113	-0.054557
23878		9.731313	-0.641612	-0.713902	-0.001321	0.018160	-0.022693	-0.739014	0.124268	-0.345703	0.680556	-0.105290	-0.723029	-0.054648
23879		9.719185	-0.761874	-0.674530	0.007711	0.020993	-0.025784	-0.744629	0.128418	-0.344727	0.680731	-0.105172	-0.722873	-0.054763
23880		9.705577	-0.650713	-0.707404	0.026699	0.035638	-0.029882	-0.730469	0.128174	-0.340332	0.681034	-0.104914	-0.722622	-0.054801
23881		9.752144	-0.710906	-0.677574	0.050206	0.060467	-0.063102	-0.739014	0.119141	-0.343750	0.681583	-0.104088	-0.722218	-0.054873
23882		9.543256	-0.396239	-0.857092	0.100238	0.046039	-0.103713	-0.741455	0.124756	-0.345459	0.682028	-0.102378	-0.722049	-0.054787
23883		9.637132	0.004434	-0.882348	0.137815	0.010313	-0.184966	-0.737793	0.120850	-0.338135	0.682132	-0.099778	-0.722292	-0.055093
23884		9.792591	0.567527	-1.073881	0.205237	-0.015613	-0.295793	-0.735352	0.108643	-0.347168	0.681972	-0.095564	-0.722970	-0.055640
23885		9.404645	1.158294	-0.933239	0.237148	0.013743	-0.456057	-0.732178	0.103027	-0.351562	0.682040	-0.089582	-0.723540	-0.057319
23886		9.083595	1.809129	-1.016936	0.298636	-0.031299	-0.683016	-0.739502	0.084229	-0.345459	0.681592	-0.081149	-0.724707	-0.060397
23887		8.434418	2.873221	-1.078718	0.325018	-0.098402	-0.966939	-0.745850	0.056152	-0.347900	0.680220	-0.069861	-0.726723	-0.065522
23888		7.414665	4.067261	-1.236974	0.140750	-0.134007	-1.309761	-0.745605	0.041260	-0.343994	0.677948	-0.056960	-0.729033	-0.075184
23889		6.677683	4.423466	-1.241138	-0.209467	-0.158529	-1.625286	-0.750000	0.011475	-0.344238	0.674664	-0.044318	-0.731180	-0.090773
23890		6.261594	2.791193	-0.795968	-1.054034	-0.114230	-1.824186	-0.758301	-0.025146	-0.341309	0.670720	-0.036927	-0.731686	-0.115785
23891		7.726745	0.442578	0.737711	-0.728200	-0.063101	-1.856090	-0.752686	-0.048584	-0.335938	0.666885	-0.026245	-0.731807	-0.137961
23892		7.811551	0.441455	0.140689	-0.174340	-0.409996	-1.591060	-0.768066	-0.085449	-0.330811	0.660160	-0.013978	-0.735316	-0.152653
23893		9.004077	1.305886	-1.413569	-0.533496	-0.318435	-1.230390	-0.755371	-0.091064	-0.318359	0.654637	-0.007744	-0.737087	-0.167611
23894		8.530649	3.206242	-0.488477	-0.707278	-0.223700	-1.182986	-0.765137	-0.107178	-0.326660	0.649878	-0.003258	-0.737493	-0.183718
23895		10.263484	2.134170	-0.866066	-0.733406	-0.228478	-1.342770	-0.755859	-0.118164	-0.316650	0.644489	0.002328	-0.737594	-0.201454
23896		10.814642	-1.518928	-1.327779	0.179201	-0.176662	-1.204138	-0.761719	-0.158447	-0.306885	0.639698	0.014095	-0.739383	-0.209528
23897		12.238027	4.026857	-0.603838	0.469200	-0.146853	-1.023793	-0.756348	-0.182373	-0.303955	0.635450	0.026923	-0.741648	-0.213159
23898		16.118021	2.273005	-0.174545	0.101291	0.040840	-0.723449	-0.753418	-0.198730	-0.312988	0.633794	0.034548	-0.741418	-0.217739
23899		18.362275	-2.265180	-1.015642	0.346425	0.139927	0.279684	-0.757324	-0.191650	-0.306885	0.635672	0.035019	-0.741405	-0.212163
23900		19.571375	3.979628	-1.447860	0.643583	0.236742	1.029891	-0.751465	-0.173340	-0.315430	0.640205	0.031172	-0.741696	-0.197617
23901		25.417892	5.105941	-0.488657	0.107820	0.517735	1.177239	-0.753418	-0.156250	-0.317627	0.647796	0.022254	-0.738208	-0.186853
23902		25.226305	-2.512330	-1.885514	0.569654	0.526201	2.035418	-0.753174	-0.118164	-0.332031	0.656987	0.009319	-0.735657	-0.164590
23903		21.070991	2.310889	-2.997430	1.324841	0.591392	2.635762	-0.753906	-0.086182	-0.333252	0.667239	-0.002925	-0.733341	-0.130364
23904		14.517139	6.824992	-2.763156	0.941635	0.714282	2.308409	-0.756104	-0.043945	-0.359131	0.677194	-0.014987	-0.728539	-0.102049
23905		7.446837	3.105424	-1.237004	0.740641	0.552334	1.753511	-0.743896	-0.028564	-0.359863	0.684407	-0.024154	-0.724245	-0.080452
23906		1.448782	-0.186239	-1.053560	1.390981	0.262464	1.427977	-0.744629	0.000977	-0.364258	0.688397	-0.024857	-0.722781	-0.055493
23907		-2.113250	3.213046	-1.116537	0.626022	0.325157	1.068712	-0.749756	0.012207	-0.370361	0.692146	-0.029054	-0.720034	-0.040517
23908		0.221588	7.863726	-0.131765	-0.466900	0.140430	0.330145	-0.741455	0.019287	-0.369873	0.693318	-0.036110	-0.718519	-0.041676
23909		1.227035	3.747188	0.063610	-0.800455	0.008819	-0.333228	-0.744873	0.017822	-0.369629	0.692759	-0.040121	-0.718203	-0.051570
23910		-0.437964	-2.231521	-0.113699	-0.354374	-0.015613	-0.331672	-0.739502	0.020996	-0.368164	0.692144	-0.040269	-0.718342	-0.057443
23911		-1.200072	-0.172276	-0.028647	0.094419	-0.124864	-0.345593	-0.747070	0.006836	-0.371826	0.690762	-0.036558	-0.719714	-0.059356
23912		-0.480538	1.190163	-1.791006	-0.019100	-0.312500	-0.315531	-0.743408	0.006104	-0.361084	0.687661	-0.034181	-0.722572	-0.062000
23913		0.205093	1.222396	-1.188078	-0.249038	-0.290351	-0.302124	-0.750000	0.003174	-0.363525	0.684642	-0.033921	-0.725039	-0.066583
23914		0.009857	2.479702	1.231545	-0.601362	-0.244084	-0.470035	-0.756348	-0.004883	-0.341797	0.681741	-0.035167	-0.726793	-0.075929
23915		-0.286734	1.339178	0.049533	-0.551233	-0.320537	-0.762122	-0.763672	-0.010010	-0.350830	0.677696	-0.033246	-0.729422	-0.086983
23916		1.917963	1.348673	-1.187266	-0.241881	-0.390868	-1.090317	-0.756592	-0.029785	-0.335205	0.672732	-0.025927	-0.732883	-0.098193
23917		7.474414	5.199914	2.203585	-0.728582	-0.372201	-1.638406	-0.760010	-0.052490	-0.333496	0.666848	-0.017586	-0.735524	-0.118361
23918		24.880089	1.662091	-7.345750	-1.870827	-0.209769	-1.572131	-0.751465	-0.066162	-0.327393	0.661840	-0.019182	-0.734534	-0.148529
23919		32.930637	-6.788328	-2.567028	-1.321962	-0.481629	0.224475	-0.766357	-0.044678	-0.315918	0.657384	-0.033187	-0.735934	-0.158577
23920		37.823329	6.337281	-4.099538	-0.042714	-0.468449	0.954171	-0.765869	-0.026611	-0.312256	0.654827	-0.043399	-0.739340	-0.150646
23921		33.805541	2.565886	6.489129	-0.850949	0.321528	0.591999	-0.767090	-0.012207	-0.320068	0.658368	-0.055392	-0.734761	-0.153652
23922		26.820415	-5.466195	-4.110022	1.464893	0.549995	1.257512	-0.754639	0.002441	-0.326904	0.666621	-0.053932	-0.731990	-0.129993
23923		8.496549	5.223150	-2.290785	1.690609	0.724176	1.222333	-0.757080	0.015869	-0.346680	0.676102	-0.049944	-0.727646	-0.104514
23924		1.632456	2.613175	-2.315037	0.407112	0.263627	0.954725	-0.752930	0.034912	-0.358398	0.679922	-0.055040	-0.725313	-0.092722
23925		0.236162	1.305302	-1.350418	-0.336684	0.137946	0.628628	-0.751709	0.046631	-0.352539	0.681661	-0.063726	-0.723249	-0.090483
23926		-0.097030	4.246949	0.052107	0.123029	0.111797	0.143200	-0.749512	0.053223	-0.356689	0.682897	-0.064054	-0.722352	-0.088065
23927		0.319485	4.721741	-0.137776	-0.193290	-0.172599	-0.308889	-0.757324	0.040527	-0.343262	0.680817	-0.063388	-0.723856	-0.092215
23928		-0.096572	-0.133810	0.256249	-1.095418	-0.328760	-0.398826	-0.760742	0.039551	-0.338623	0.676345	-0.069599	-0.725737	-0.104971
23929		0.362815	-1.903340	1.012038	-0.709984	-0.338079	-0.271696	-0.768555	0.042236	-0.330078	0.672195	-0.073685	-0.727953	-0.113178
23930		-0.061073	-0.462176	-0.901993	-0.249839	-0.220509	0.017309	-0.757324	0.048096	-0.322998	0.669889	-0.076371	-0.729542	-0.114826
23931		0.272948	0.158158	0.501155	-0.466842	-0.317103	0.087761	-0.767578	0.057861	-0.324707	0.666596	-0.081691	-0.731504	-0.117810
23932		0.189733	1.852291	1.416704	-0.695045	-0.156411	-0.116501	-0.754883	0.058105	-0.317627	0.664218	-0.086883	-0.731900	-0.124853
23933		0.462514	2.529202	-0.487871	-0.441906	-0.158727	-0.546790	-0.771240	0.048340	-0.310059	0.661389	-0.085989	-0.733102	-0.133163
23934		2.447110	3.503106	1.332235	-0.426937	-0.385419	-1.292789	-0.772217	0.027832	-0.304443	0.655075	-0.078438	-0.736941	-0.147111
23935		12.335343	0.560137	1.232989	-0.775263	-0.137695	-1.778290	-0.776123	-0.000244	-0.304199	0.649537	-0.068806	-0.738223	-0.168503
23936		26.441411	7.313301	-3.544488	-0.283364	0.292871	-1.797831	-0.773682	-0.034424	-0.310791	0.648007	-0.054065	-0.736637	-0.185823
23937		30.805986	4.032417	-6.918112	-0.997912	-0.006710	-1.480794	-0.764648	-0.050293	-0.312988	0.643643	-0.048683	-0.735226	-0.206873
23938		32.199863	-3.838477	-1.538471	-0.139297	-0.095572	-0.272538	-0.770752	-0.049072	-0.309326	0.641970	-0.047759	-0.735791	-0.210252
23939		33.000413	-5.133753	0.749917	1.483397	0.372992	0.917413	-0.770996	-0.051270	-0.308105	0.648536	-0.043545	-0.735989	-0.189274
23940		25.980184	3.276753	-1.153743	1.630743	0.699614	1.743674	-0.763672	-0.026367	-0.324463	0.659643	-0.044762	-0.732978	-0.160036
23941		12.859914	4.253854	-4.274140	1.871304	0.669982	1.533685	-0.762695	-0.011475	-0.343506	0.669563	-0.042169	-0.730027	-0.130258
23942		5.042071	2.262210	-3.026259	2.150492	0.405668	1.015974	-0.761230	-0.020996	-0.343994	0.675757	-0.032964	-0.729272	-0.102122
23943		0.003418	5.328360	0.022832	0.904565	0.244356	0.598896	-0.750244	-0.013184	-0.359619	0.679009	-0.030508	-0.728123	-0.088614
23944		-0.823042	3.778356	-0.637889	-0.147069	0.160132	-0.083462	-0.756836	-0.009033	-0.355225	0.680356	-0.030989	-0.726583	-0.090732
23945		0.901087	0.771912	-1.271713	-0.074817	-0.084379	-0.124922	-0.751221	-0.015381	-0.351074	0.679394	-0.030768	-0.727296	-0.092291
23946		0.442364	-0.212434	0.578558	-0.053248	-0.099152	0.265601	-0.746094	-0.012939	-0.355713	0.678751	-0.033867	-0.728004	-0.090332
23947		-0.944750	-0.019154	0.165771	-0.145390	-0.044486	0.425613	-0.752441	-0.001465	-0.353760	0.678782	-0.039146	-0.727992	-0.088033
23948		-0.038239	0.198537	-0.388219	0.093234	-0.095153	0.299164	-0.752930	0.005371	-0.349365	0.678290	-0.041318	-0.728743	-0.084548
23949		0.369833	1.316776	0.141396	0.170491	-0.053034	0.255162	-0.758301	0.010498	-0.343994	0.678151	-0.042394	-0.729246	-0.080709
23950		-0.092156	1.332424	0.267354	0.697635	-0.059959	0.086000	-0.760010	0.002441	-0.354492	0.677988	-0.037456	-0.730440	-0.073388
23951		-0.823973	3.005509	0.580224	0.514206	0.021267	-0.363681	-0.752686	0.000732	-0.351318	0.678079	-0.029916	-0.730862	-0.071799
23952		4.142844	3.013733	-2.414431	0.050020	0.002590	-0.899077	-0.754883	-0.019043	-0.351318	0.677284	-0.021520	-0.731154	-0.078971
23953		14.162404	-1.883858	0.839540	-0.441126	-0.070596	-0.945095	-0.746094	-0.038574	-0.346191	0.675532	-0.016911	-0.731499	-0.090996
23954		18.300721	4.878724	-3.275873	0.924997	-0.056212	-1.231889	-0.750488	-0.066895	-0.343018	0.673692	0.001952	-0.733146	-0.092904
23955		29.744913	20.491164	-11.671438	0.217402	-0.881986	-1.782950	-0.742676	-0.108154	-0.335938	0.663314	0.018928	-0.740574	-0.105866
23956		21.007532	-1.533677	10.387192	-3.350443	-0.594057	-2.191306	-0.760986	-0.112061	-0.327881	0.654883	0.010384	-0.739511	-0.155384
23957		18.235586	-28.602364	-4.097282	0.992039	-0.295866	0.264938	-0.763916	-0.123291	-0.326172	0.652472	0.015222	-0.743828	-0.144113
23958		20.914584	11.658268	1.235975	2.716990	0.282439	1.589851	-0.761230	-0.111328	-0.317627	0.656978	0.022946	-0.746109	-0.105710
23959		9.574703	9.481969	0.695764	-2.273840	0.459195	1.431470	-0.749268	-0.071045	-0.329834	0.663439	-0.008628	-0.739305	-0.114904
23960		5.048878	-8.839534	-4.805963	-1.214897	0.070790	1.549289	-0.753418	-0.022949	-0.329346	0.666015	-0.033035	-0.736539	-0.113325
23961		6.538006	-2.640495	-0.240607	1.184382	0.032622	1.500714	-0.760986	-0.005371	-0.329102	0.668755	-0.037083	-0.737109	-0.089789
23962		8.230424	3.944690	0.257961	0.807306	0.181276	1.121028	-0.758057	0.013428	-0.337646	0.671941	-0.040560	-0.735898	-0.072835
23963		7.408320	5.476730	-0.057673	0.279662	0.306295	0.712087	-0.747070	0.022705	-0.350586	0.675534	-0.044672	-0.733156	-0.064349
23964		7.999292	5.616799	-2.367782	-0.420426	0.348937	0.235826	-0.743896	0.034668	-0.353516	0.678754	-0.050359	-0.729605	-0.066584
23965		9.110584	2.163846	-3.064688	-0.554346	0.061868	0.010354	-0.752197	0.040771	-0.348633	0.679022	-0.055385	-0.728505	-0.071715
23966		9.973923	0.816962	-1.800270	-0.283053	-0.066917	-0.063616	-0.750000	0.041992	-0.341797	0.678152	-0.057488	-0.728850	-0.074718
23967		9.879062	1.220904	-0.613471	-0.060458	0.052877	-0.141580	-0.750977	0.042236	-0.350830	0.678430	-0.056847	-0.728472	-0.076355
23968		10.061228	0.876082	-0.656437	-0.107235	0.147492	-0.119196	-0.743652	0.031738	-0.354980	0.679599	-0.056796	-0.727161	-0.078462
23969		9.830452	0.766332	-1.160936	-0.169327	0.117442	0.047662	-0.748291	0.041748	-0.356689	0.680627	-0.058778	-0.725893	-0.079824
23970		9.512312	0.825106	-1.411089	-0.153733	0.030166	0.150757	-0.748047	0.036621	-0.357178	0.680958	-0.061685	-0.725320	-0.080015
23971		9.583117	1.495711	-0.648324	0.010398	0.048591	0.050593	-0.744385	0.040527	-0.357910	0.681471	-0.062199	-0.724837	-0.079623
23972		9.779276	1.815866	-0.025506	0.107369	0.044083	-0.133622	-0.743408	0.049805	-0.363770	0.681841	-0.060257	-0.724619	-0.079938
23973		10.020472	2.229278	0.049560	0.162890	-0.050800	-0.257899	-0.747070	0.034668	-0.358398	0.681295	-0.056950	-0.725301	-0.080818
23974		9.750734	2.185763	-0.147126	0.035121	-0.082503	-0.372754	-0.743652	0.028076	-0.354980	0.680204	-0.053614	-0.726249	-0.083730
23975		9.529056	1.418982	-0.763280	-0.096729	-0.100131	-0.504051	-0.748047	0.020752	-0.353516	0.678703	-0.050232	-0.727273	-0.088951
23976		9.329047	0.244372	-0.426155	-0.135587	-0.174206	-0.565851	-0.739746	0.007812	-0.344971	0.676395	-0.046701	-0.728895	-0.094982
23977		10.471680	-0.766963	0.366141	-0.603415	-0.249573	-0.357847	-0.739014	0.005615	-0.339111	0.673320	-0.049065	-0.730433	-0.103447
23978		10.208899	-1.047335	0.611960	-0.512609	-0.028723	0.166679	-0.749756	0.011719	-0.339844	0.672951	-0.055153	-0.729857	-0.106789
23979		8.758209	-1.356752	1.633897	-0.418619	0.001473	0.450391	-0.748779	0.032227	-0.340820	0.673251	-0.062951	-0.728944	-0.106821
23980		9.270205	-1.116575	0.454398	0.322780	0.084203	0.336623	-0.751465	0.040039	-0.346191	0.674718	-0.063434	-0.728358	-0.101123
23981		9.867840	0.330242	-2.524866	0.584440	-0.147155	0.141813	-0.745117	0.026367	-0.334717	0.674020	-0.060274	-0.730157	-0.094529
23982		10.335259	0.617743	-0.593716	0.068646	-0.093357	0.378356	-0.753906	0.038086	-0.338135	0.673644	-0.063391	-0.730743	-0.090554
23983		9.911322	2.798253	1.450783	-0.334934	0.045349	0.283701	-0.752686	0.053223	-0.341797	0.674096	-0.068943	-0.729742	-0.091206
23984		9.787012	-0.844781	-0.810805	-0.610406	0.041816	0.341613	-0.748779	0.068359	-0.333740	0.674325	-0.077437	-0.728328	-0.093960
23985		9.646096	-1.440617	-1.668919	-0.219874	0.138560	0.467667	-0.750977	0.078613	-0.348633	0.675892	-0.083610	-0.726440	-0.092005
23986		10.004090	0.146017	-2.010978	-0.181529	0.068247	0.484647	-0.741699	0.089844	-0.339111	0.676893	-0.089809	-0.725050	-0.089742
23987		10.019909	1.196163	-1.445747	-0.591402	0.043639	0.432969	-0.746582	0.096191	-0.333740	0.677079	-0.098943	-0.723477	-0.091413
23988		10.282219	0.785372	-1.287485	-0.783714	0.111003	0.289268	-0.746338	0.115723	-0.333984	0.677368	-0.108181	-0.721292	-0.095955
23989		9.971038	-0.464853	-2.332548	-0.647296	0.026756	0.257759	-0.737305	0.127441	-0.339355	0.676979	-0.116129	-0.719952	-0.099411
23990		9.600059	-0.962943	-2.197776	-0.202189	-0.029754	0.179169	-0.744629	0.129883	-0.332520	0.676642	-0.119793	-0.719632	-0.099674
23991		9.610090	0.296576	0.218340	0.091747	0.029239	0.057094	-0.740234	0.134766	-0.331543	0.677079	-0.119673	-0.719443	-0.098208
23992		9.805857	0.324628	1.263431	-0.174077	0.092908	-0.018133	-0.735840	0.132324	-0.337646	0.677598	-0.121085	-0.718488	-0.099870
23993		10.115650	-1.432296	-0.935974	-0.180197	0.032375	0.029541	-0.741943	0.135498	-0.343018	0.677647	-0.123095	-0.717908	-0.101245
23994		9.581725	-1.953350	-2.807018	0.163884	-0.032656	0.096128	-0.739746	0.137207	-0.338623	0.677730	-0.122898	-0.718187	-0.098921
23995		9.671214	-1.510273	-2.274504	0.531907	-0.043573	0.067794	-0.735596	0.135498	-0.337891	0.678216	-0.119306	-0.719070	-0.093424
23996		9.717192	-0.076058	0.337144	0.700187	0.000286	-0.016602	-0.747070	0.127197	-0.341553	0.679211	-0.113477	-0.719858	-0.087177
23997		10.012291	0.876113	1.120048	0.562428	0.092047	-0.084478	-0.739746	0.119873	-0.347168	0.680701	-0.108045	-0.719802	-0.082813
23998		9.853206	0.476127	0.242709	0.150120	0.110598	-0.058932	-0.740723	0.109375	-0.347656	0.681833	-0.106377	-0.719062	-0.082078
23999		9.699306	-1.177135	-1.144744	0.032876	0.096263	0.027590	-0.735352	0.122559	-0.344482	0.682754	-0.106407	-0.718239	-0.081592
24000		9.605776	-1.257124	-0.949873	0.437156	0.009857	0.074280	-0.743164	0.115479	-0.361816	0.683465	-0.103554	-0.718499	-0.076886
24001		9.472702	0.094333	0.322666	0.488617	0.021905	0.049299	-0.740967	0.110596	-0.355469	0.684351	-0.100115	-0.718629	-0.072203
24002		9.284825	0.167741	-0.086184	0.319456	-0.006570	0.029919	-0.731934	0.114990	-0.357910	0.684705	-0.097882	-0.718913	-0.069019
24003		9.715030	0.205983	-0.373300	0.241702	-0.021661	0.010437	-0.729248	0.114502	-0.350098	0.684830	-0.096254	-0.719223	-0.066787
24004		9.859889	0.434281	0.032545	0.121086	0.019539	0.057635	-0.734375	0.109863	-0.360107	0.685190	-0.095977	-0.719069	-0.065141
24005		9.652287	0.439841	-0.095144	-0.065733	0.069393	0.080598	-0.743164	0.115967	-0.360840	0.685815	-0.097518	-0.718259	-0.065202
24006		9.469199	0.373919	-0.658204	-0.138743	-0.016913	0.047733	-0.728516	0.115479	-0.357178	0.685525	-0.099446	-0.718197	-0.066022
24007		9.914427	0.103714	-0.654710	-0.208350	-0.077613	-0.000721	-0.734863	0.125244	-0.348145	0.684578	-0.101591	-0.718629	-0.067859
24008		10.001184	-0.248533	-0.210062	-0.202719	-0.102694	-0.014895	-0.735840	0.120605	-0.354736	0.683356	-0.103527	-0.719354	-0.069544
24009		9.785166	-0.318021	-0.136645	-0.189019	-0.074525	-0.007225	-0.738281	0.122070	-0.347412	0.682440	-0.105458	-0.719773	-0.071278
24010		9.796889	-0.390424	-0.489641	-0.194599	-0.067168	-0.027503	-0.737061	0.125732	-0.344971	0.681536	-0.107169	-0.720193	-0.073115
24011		9.904343	-0.638522	-0.524831	-0.113841	-0.084731	-0.053156	-0.736816	0.124512	-0.343750	0.680557	-0.107992	-0.720861	-0.074424
24012		9.871992	-1.039539	-0.464342	-0.095303	-0.096962	-0.043192	-0.737061	0.123535	-0.333984	0.679504	-0.108761	-0.721628	-0.075486
24013		9.865788	-0.939486	-0.537170	-0.062872	-0.078499	-0.003637	-0.736084	0.124023	-0.343994	0.678672	-0.109482	-0.722271	-0.075778
24014		9.905186	-0.819394	-0.389339	-0.118803	-0.028085	0.025607	-0.740967	0.128174	-0.336914	0.678289	-0.111050	-0.722299	-0.076654
24015		9.745178	-0.922192	-0.702233	-0.068367	-0.047087	0.032972	-0.744629	0.125244	-0.340332	0.677779	-0.112195	-0.722582	-0.076826
24016		9.629881	-0.803489	-0.786288	-0.003844	-0.063221	0.022708	-0.740967	0.133057	-0.333008	0.677213	-0.112725	-0.723061	-0.076544
24017		9.670148	-0.330005	-0.756331	0.003081	-0.045212	-0.016913	-0.736816	0.131836	-0.334229	0.676768	-0.112813	-0.723472	-0.076468
24018		9.805263	-0.279903	-0.838277	-0.039511	-0.028961	-0.054138	-0.738037	0.123047	-0.339355	0.676389	-0.112944	-0.723729	-0.077187
24019		9.687106	-0.406066	-0.721363	-0.032835	-0.045622	-0.060279	-0.740234	0.138184	-0.343994	0.675881	-0.112981	-0.724114	-0.077970
24020		9.769306	-0.269715	-0.863451	-0.007526	-0.059022	-0.079524	-0.747559	0.140625	-0.326660	0.675281	-0.112840	-0.724605	-0.078800
24021		9.960796	-0.258500	-0.948138	-0.064729	-0.036332	-0.077137	-0.740479	0.128906	-0.340088	0.674744	-0.112964	-0.724978	-0.079795
24022		9.847182	-0.288123	-0.822587	-0.091759	-0.034976	-0.037453	-0.748779	0.127197	-0.336182	0.674277	-0.113814	-0.725143	-0.081029
24023		9.831376	-0.499678	-0.663845	-0.122582	-0.044232	0.015735	-0.744385	0.132080	-0.327881	0.673710	-0.115332	-0.725324	-0.081972
24024		9.778080	-0.351079	-0.722740	-0.091384	-0.045863	0.027620	-0.746826	0.131104	-0.323486	0.673171	-0.116632	-0.725567	-0.082409
24025		9.808042	-0.383394	-0.782829	-0.069928	-0.030861	0.011538	-0.752930	0.125244	-0.323486	0.672769	-0.117514	-0.725761	-0.082725
24026		9.694701	-0.376792	-0.988210	-0.043658	-0.039974	0.015448	-0.740723	0.136475	-0.318359	0.672318	-0.118158	-0.726073	-0.082733
24027		9.676065	-0.274769	-0.907901	-0.058475	-0.054156	0.023804	-0.741943	0.131592	-0.315430	0.671734	-0.119089	-0.726455	-0.082793
24028		9.804843	-0.392647	-0.817552	-0.079449	-0.050157	0.014273	-0.749756	0.138916	-0.322510	0.671137	-0.120033	-0.726817	-0.083085
24029		9.817261	-0.374978	-0.940128	-0.033423	-0.042654	0.004832	-0.743164	0.141113	-0.316162	0.670679	-0.120639	-0.727127	-0.083194
24030		9.730694	-0.407201	-0.861841	-0.012092	-0.046321	0.003649	-0.748291	0.136230	-0.307373	0.670213	-0.121026	-0.727509	-0.083053
24031		9.786163	-0.552213	-0.931120	-0.057190	-0.036588	-0.005246	-0.745361	0.140137	-0.318604	0.669727	-0.121547	-0.727848	-0.083243
24032		9.779170	-0.590582	-0.973763	-0.008114	-0.037521	0.014859	-0.751221	0.141846	-0.324219	0.669369	-0.122030	-0.728118	-0.083058
24033		9.803116	-0.591780	-0.916048	-0.008236	-0.026764	0.028928	-0.740723	0.140625	-0.325439	0.669134	-0.122694	-0.728245	-0.082856
24034		9.827547	-0.515858	-0.879556	-0.005146	-0.028125	0.035905	-0.742676	0.147461	-0.315918	0.668922	-0.123427	-0.728342	-0.082629
24035		9.694506	-0.560581	-0.891729	0.009911	-0.027611	0.030220	-0.743896	0.144531	-0.315430	0.668699	-0.123922	-0.728514	-0.082171
24036		9.731258	-0.558438	-1.022407	0.023356	-0.018814	0.011868	-0.750732	0.138916	-0.309814	0.668558	-0.124092	-0.728663	-0.081744
24037		9.782872	-0.448921	-1.033155	0.024656	-0.018736	0.008409	-0.749268	0.145996	-0.318848	0.668389	-0.124086	-0.728879	-0.081205
24038		9.746516	-0.518778	-0.972931	0.023204	-0.017702	0.004220	-0.739258	0.139160	-0.318848	0.668252	-0.124229	-0.729014	-0.080897
24039		9.770518	-0.484433	-0.950729	0.045685	-0.018340	0.002010	-0.751465	0.140137	-0.309814	0.668162	-0.124129	-0.729167	-0.080418
24040		9.758131	-0.471328	-0.907040	0.013116	-0.015046	-0.004242	-0.741699	0.134521	-0.313232	0.667997	-0.124120	-0.729353	-0.080118
24041		9.747397	-0.517759	-0.924012	0.020265	-0.015916	-0.002016	-0.749268	0.145020	-0.314697	0.667866	-0.124089	-0.729512	-0.079809
24042		9.769029	-0.550929	-0.942832	0.015844	-0.016274	-0.001362	-0.743408	0.149658	-0.315918	0.667717	-0.124196	-0.729657	-0.079568
24043		9.730446	-0.436014	-0.971385	0.030535	-0.018807	-0.000039	-0.747559	0.146240	-0.312012	0.667583	-0.124261	-0.729805	-0.079230
24044		9.789606	-0.439140	-0.983496	0.009218	-0.013738	-0.000782	-0.748535	0.152588	-0.317627	0.667443	-0.124415	-0.729928	-0.079027
24045		9.748819	-0.483053	-0.941010	-0.003599	-0.005508	-0.003846	-0.748535	0.142578	-0.316162	0.667372	-0.124754	-0.729930	-0.079080
24046		9.777514	-0.531572	-1.017673	0.004263	-0.009203	-0.010835	-0.746094	0.141113	-0.319092	0.667270	-0.124863	-0.730006	-0.079067
24047		9.714681	-0.654441	-0.981295	0.011069	-0.007627	-0.009631	-0.740723	0.138428	-0.306885	0.667207	-0.124950	-0.730052	-0.079030
24048		9.759026	-0.640135	-1.035172	0.023587	-0.001524	-0.002115	-0.744873	0.144775	-0.309326	0.667201	-0.124845	-0.730116	-0.078655
24049		9.761513	-0.571601	-0.994273	0.043750	-0.003764	0.000933	-0.748291	0.139648	-0.311768	0.667208	-0.124681	-0.730196	-0.078113
24050		9.745475	-0.567265	-0.927999	0.022345	-0.006090	-0.001952	-0.744873	0.150391	-0.301758	0.667160	-0.124646	-0.730279	-0.077800
24051		9.804110	-0.536807	-0.976469	0.008329	0.000828	-0.013184	-0.748291	0.143311	-0.322266	0.667116	-0.124621	-0.730342	-0.077631
24052		9.744101	-0.521041	-1.054669	0.031368	0.006667	-0.011409	-0.752441	0.144531	-0.316895	0.667221	-0.124546	-0.730275	-0.077479
24053		9.706193	-0.546267	-0.951920	0.023188	0.002825	-0.017177	-0.743408	0.140381	-0.304443	0.667249	-0.124443	-0.730279	-0.077371
24054		9.776573	-0.558332	-0.982832	0.015397	0.002956	-0.024887	-0.739990	0.143799	-0.306396	0.667236	-0.124190	-0.730347	-0.077247
24055		9.762983	-0.516412	-1.001374	0.048319	0.009212	-0.019865	-0.751953	0.145996	-0.318604	0.667346	-0.123764	-0.730361	-0.076837
24056		9.744550	-0.522082	-0.879310	0.035624	0.014711	-0.011144	-0.749512	0.145264	-0.314453	0.667512	-0.123632	-0.730257	-0.076605
24057		9.736456	-0.448010	-0.947627	0.032929	0.010756	-0.008089	-0.753662	0.149414	-0.315186	0.667630	-0.123512	-0.730199	-0.076317
24058		9.738475	-0.521042	-1.001097	0.016523	0.010569	-0.006062	-0.741943	0.148438	-0.315674	0.667717	-0.123583	-0.730122	-0.076174
24059		9.738331	-0.537992	-0.938982	0.001018	0.007819	-0.007577	-0.747070	0.140381	-0.308838	0.667774	-0.123781	-0.730034	-0.076198
24060		9.770028	-0.585315	-0.811123	0.013261	0.011200	-0.011590	-0.745117	0.145264	-0.319824	0.667849	-0.123691	-0.729998	-0.076038
24061		9.741583	-0.551318	-0.921783	0.053425	0.007762	-0.015822	-0.747314	0.137695	-0.313477	0.667985	-0.123377	-0.729963	-0.075681
24062		9.748947	-0.579237	-0.974935	0.029717	0.007979	-0.016754	-0.742676	0.142334	-0.316406	0.668064	-0.123125	-0.729958	-0.075452
24063		9.776768	-0.632929	-0.826569	0.016758	0.014636	-0.020719	-0.741943	0.144531	-0.318604	0.668194	-0.123013	-0.729859	-0.075433
24064		9.747568	-0.645228	-0.952347	0.030274	0.015107	-0.021998	-0.748535	0.144775	-0.315430	0.668354	-0.122813	-0.729757	-0.075328
24065		9.699840	-0.543516	-0.910653	0.045653	0.017213	-0.018985	-0.749756	0.139404	-0.307861	0.668539	-0.122476	-0.729677	-0.075019
24066		9.746872	-0.615377	-0.872155	0.042514	0.008412	-0.024006	-0.745117	0.140869	-0.319580	0.668609	-0.122008	-0.729727	-0.074666
24067		9.789304	-0.566229	-0.939216	0.063664	0.002494	-0.027235	-0.744873	0.135498	-0.319824	0.668695	-0.121466	-0.729779	-0.074270
24068		9.745252	-0.522193	-0.899693	0.073892	0.009850	-0.018418	-0.746582	0.139893	-0.320557	0.668873	-0.120871	-0.729772	-0.073703
24069		9.720306	-0.512455	-0.826918	0.080001	0.002573	-0.018263	-0.751953	0.145508	-0.314209	0.668991	-0.120278	-0.729824	-0.073084
24070		9.769606	-0.496379	-0.951177	0.083335	-0.007116	-0.026967	-0.747314	0.137695	-0.303955	0.668987	-0.119577	-0.730007	-0.072443
24071		9.790246	-0.540983	-0.881319	0.052698	0.002646	-0.036059	-0.747070	0.144775	-0.318604	0.668996	-0.118896	-0.730148	-0.072056
24072		9.720252	-0.547364	-0.923679	0.033708	0.009201	-0.034520	-0.758057	0.139404	-0.318115	0.669081	-0.118578	-0.730127	-0.072005
24073		9.749007	-0.507945	-0.911718	0.049380	0.006192	-0.034116	-0.739014	0.135254	-0.317383	0.669142	-0.118076	-0.730174	-0.071777
24074		9.738304	-0.534440	-0.900428	0.029704	0.020191	-0.033781	-0.746582	0.139160	-0.320312	0.669332	-0.117708	-0.730064	-0.071736
24075		9.777267	-0.486732	-0.861101	0.013075	0.020815	-0.034613	-0.741455	0.132324	-0.317383	0.669495	-0.117523	-0.729929	-0.071888
24076		9.778901	-0.483834	-0.825565	0.022485	0.005743	-0.028144	-0.743164	0.136719	-0.320068	0.669541	-0.117252	-0.729936	-0.071831
24077		9.725127	-0.485357	-0.939511	0.025933	0.003512	-0.027053	-0.741211	0.138672	-0.321777	0.669576	-0.117027	-0.729947	-0.071766
24078		9.789917	-0.451377	-0.942545	0.015712	0.002905	-0.024567	-0.740723	0.127197	-0.318848	0.669600	-0.116945	-0.729935	-0.071796
24079		9.754362	-0.532901	-0.758058	-0.006657	0.013390	-0.025528	-0.745850	0.136475	-0.318848	0.669681	-0.116907	-0.729848	-0.071991
24080		9.758662	-0.422951	-0.860472	0.024627	0.005849	-0.020556	-0.750000	0.140381	-0.322021	0.669732	-0.116739	-0.729839	-0.071876
24081		9.760602	-0.432117	-0.879693	0.012360	-0.003515	-0.017907	-0.749512	0.134766	-0.318115	0.669683	-0.116764	-0.729880	-0.071876
24082		9.720851	-0.502127	-0.909090	-0.008320	0.005914	-0.023276	-0.752686	0.140137	-0.312012	0.669677	-0.116826	-0.729856	-0.072074
24083		9.791729	-0.498691	-0.942219	0.006236	0.011418	-0.030795	-0.746826	0.137695	-0.324219	0.669711	-0.116687	-0.729837	-0.072174
24084		9.793501	-0.522627	-0.899916	0.012400	0.002982	-0.025815	-0.749023	0.137451	-0.318848	0.669726	-0.116634	-0.729823	-0.072264
24085		9.756349	-0.553104	-0.847982	0.005747	0.012925	-0.015609	-0.750977	0.134766	-0.317383	0.669813	-0.116675	-0.729734	-0.072296
24086		9.753231	-0.541089	-0.885913	-0.005017	0.006543	-0.009875	-0.744385	0.129150	-0.315186	0.669823	-0.116824	-0.729695	-0.072346
24087		9.734880	-0.510788	-0.886573	-0.002953	0.001655	-0.006283	-0.750732	0.146240	-0.322510	0.669801	-0.116925	-0.729703	-0.072300
24088		9.747852	-0.475382	-0.917235	0.013706	0.004899	-0.009294	-0.746338	0.135986	-0.317139	0.669837	-0.117067	-0.729653	-0.072254
24089		9.779627	-0.461764	-0.861566	0.007136	0.008183	-0.020145	-0.745605	0.137451	-0.325928	0.669877	-0.117026	-0.729619	-0.072283
24090		9.739521	-0.466279	-0.909684	0.005341	0.011484	-0.020459	-0.740723	0.134766	-0.314453	0.669970	-0.117083	-0.729512	-0.072416
24091		9.738062	-0.509916	-0.899264	-0.006611	0.004456	-0.015664	-0.743652	0.139893	-0.322998	0.669961	-0.117166	-0.729499	-0.072495
24092		9.765660	-0.509884	-0.908398	-0.012311	0.004320	-0.006063	-0.745117	0.135742	-0.322021	0.669969	-0.117505	-0.729422	-0.072640
24093		9.737324	-0.469360	-0.853012	0.007702	0.011334	-0.011661	-0.753418	0.136475	-0.324463	0.670061	-0.117570	-0.729328	-0.072637
24094		9.745480	-0.436257	-0.895021	0.022629	0.001982	-0.019159	-0.744873	0.132324	-0.328369	0.670076	-0.117472	-0.729336	-0.072572
24095		9.765852	-0.447156	-0.920398	0.004321	0.005136	-0.019803	-0.744873	0.141602	-0.316650	0.670117	-0.117523	-0.729278	-0.072703
24096		9.739540	-0.479551	-0.894859	-0.010378	0.019126	-0.014830	-0.744141	0.136963	-0.317139	0.670234	-0.117703	-0.729124	-0.072872
24097		9.771956	-0.448529	-0.897135	-0.001890	0.013150	-0.012808	-0.752197	0.136475	-0.318359	0.670314	-0.117796	-0.729031	-0.072923
24098		9.757855	-0.479453	-0.839629	-0.012801	0.004964	-0.005787	-0.741455	0.134766	-0.316406	0.670299	-0.118053	-0.728993	-0.073015
24099		9.729242	-0.493091	-0.884576	-0.021211	0.003616	-0.002121	-0.743164	0.134766	-0.315674	0.670276	-0.118383	-0.728951	-0.073122
24100		9.778081	-0.527584	-0.882676	-0.015404	0.015224	-0.003032	-0.749268	0.131348	-0.323730	0.670361	-0.118636	-0.728823	-0.073196
24101		9.765277	-0.485112	-0.841756	-0.002386	0.004965	-0.007642	-0.741211	0.144287	-0.324463	0.670381	-0.118780	-0.728778	-0.073231
24102		9.756918	-0.569598	-0.840431	0.004971	0.002400	-0.012568	-0.747314	0.138916	-0.326416	0.670394	-0.118948	-0.728733	-0.073288
24103		9.727334	-0.468737	-0.891225	0.031046	-0.000683	-0.004148	-0.744629	0.138428	-0.317139	0.670423	-0.118943	-0.728733	-0.073032
24104		9.773141	-0.433080	-0.803841	0.010855	0.004147	-0.001000	-0.739502	0.136963	-0.319580	0.670448	-0.119040	-0.728711	-0.072855
24105		9.758328	-0.431015	-0.844373	0.001179	-0.000540	-0.006897	-0.750488	0.143066	-0.312988	0.670426	-0.119178	-0.728713	-0.072822
24106		9.796530	-0.530299	-0.912646	0.014356	-0.002785	-0.005964	-0.747070	0.128174	-0.323242	0.670367	-0.119208	-0.728781	-0.072633
24107		9.740795	-0.562685	-0.855966	-0.011575	0.004501	-0.004972	-0.749756	0.140625	-0.322754	0.670375	-0.119412	-0.728733	-0.072709
24108		9.715096	-0.545285	-0.872629	0.006877	0.006939	-0.009515	-0.744141	0.136475	-0.317627	0.670419	-0.119528	-0.728674	-0.072705
24109		9.782912	-0.522881	-0.834640	0.014181	0.004122	-0.012317	-0.739990	0.133545	-0.323975	0.670441	-0.119473	-0.728674	-0.072590
24110		9.747180	-0.556496	-0.808587	0.001311	-0.003821	-0.007227	-0.743652	0.136230	-0.315430	0.670401	-0.119610	-0.728690	-0.072573
24111		9.777864	-0.593385	-0.885862	0.007556	0.003177	-0.007323	-0.747559	0.133545	-0.319092	0.670405	-0.119636	-0.728693	-0.072456
24112		9.738065	-0.579588	-0.912076	0.010617	0.002040	-0.005276	-0.748047	0.138672	-0.323975	0.670410	-0.119660	-0.728699	-0.072314
24113		9.719774	-0.479459	-0.874927	0.013178	-0.004678	-0.009789	-0.746826	0.139893	-0.323730	0.670364	-0.119715	-0.728741	-0.072233
24114		9.802188	-0.541596	-0.832376	0.012598	0.001955	-0.013180	-0.745605	0.143311	-0.314941	0.670375	-0.119749	-0.728728	-0.072199
24115		9.759858	-0.513982	-0.954671	0.027295	0.004090	-0.011134	-0.747803	0.135498	-0.321533	0.670407	-0.119636	-0.728741	-0.071965
24116		9.722848	-0.517661	-0.968549	0.010596	-0.000568	-0.006173	-0.746826	0.134521	-0.320068	0.670392	-0.119692	-0.728756	-0.071852
24117		9.738924	-0.534849	-0.890942	-0.001138	0.002055	-0.004933	-0.749023	0.139893	-0.324951	0.670383	-0.119833	-0.728744	-0.071824
24118		9.807222	-0.503798	-0.825777	0.005180	0.004341	-0.011064	-0.750732	0.137695	-0.315430	0.670407	-0.119952	-0.728700	-0.071853
24119		9.729414	-0.490648	-0.898591	0.011918	0.001850	-0.006556	-0.751953	0.131836	-0.321533	0.670395	-0.119957	-0.728725	-0.071702
24120		9.725502	-0.581514	-0.912996	-0.011290	0.001793	-0.001836	-0.740234	0.142334	-0.320068	0.670368	-0.120192	-0.728707	-0.071742
24121		9.773120	-0.558764	-0.845083	-0.003957	0.006573	0.000204	-0.749268	0.138672	-0.322510	0.670408	-0.120469	-0.728625	-0.071729
24122		9.721880	-0.552538	-0.871909	0.010525	0.000440	-0.013761	-0.750000	0.140137	-0.326416	0.670396	-0.120481	-0.728638	-0.071698
24123		9.725532	-0.549271	-0.919453	0.023260	-0.000956	-0.022338	-0.747070	0.140137	-0.324463	0.670391	-0.120354	-0.728667	-0.071655
24124		9.801023	-0.537197	-0.857840	0.019279	0.001739	-0.025936	-0.753174	0.141602	-0.319580	0.670401	-0.120213	-0.728680	-0.071668
24125		9.822255	-0.538444	-0.854950	0.012310	0.007093	-0.018188	-0.746582	0.135986	-0.319824	0.670433	-0.120172	-0.728658	-0.071669
24126		9.742383	-0.556548	-0.839360	0.013071	-0.000174	0.010993	-0.750244	0.135986	-0.333740	0.670438	-0.120346	-0.728653	-0.071376
24127		9.739748	-0.612243	-0.775317	-0.003167	-0.005590	0.020558	-0.740723	0.138672	-0.312500	0.670410	-0.120858	-0.728608	-0.071240
24128		9.733329	-0.546603	-0.896916	-0.001550	0.005510	0.011647	-0.752686	0.143066	-0.319336	0.670435	-0.121109	-0.728563	-0.071031
24129		9.743709	-0.523564	-0.930919	0.015097	0.007401	0.003017	-0.751709	0.144287	-0.321777	0.670493	-0.121234	-0.728509	-0.070828
24130		9.760619	-0.545910	-0.820196	0.003061	0.001390	-0.004746	-0.745117	0.143555	-0.317383	0.670478	-0.121423	-0.728493	-0.070809
24131		9.790576	-0.621850	-0.860528	0.000877	-0.000484	-0.010936	-0.742188	0.144531	-0.318848	0.670436	-0.121531	-0.728513	-0.070818
24132		9.772198	-0.640530	-0.876205	0.006862	0.010576	-0.003576	-0.741699	0.142822	-0.318359	0.670519	-0.121668	-0.728421	-0.070738
24133		9.708204	-0.621228	-0.854397	0.006119	0.011566	0.003140	-0.749268	0.139648	-0.320557	0.670616	-0.121847	-0.728316	-0.070597
24134		9.760930	-0.635734	-0.875887	0.013375	0.007242	-0.000425	-0.750000	0.145508	-0.312012	0.670675	-0.121918	-0.728266	-0.070419
24135		9.764849	-0.614435	-0.898344	0.024903	0.003781	-0.003000	-0.744873	0.148193	-0.319336	0.670692	-0.121857	-0.728289	-0.070125
24136		9.755364	-0.678055	-0.849348	0.025467	-0.002944	-0.007290	-0.749023	0.152588	-0.315674	0.670671	-0.121844	-0.728332	-0.069906
24137		9.734494	-0.579727	-0.904438	0.045035	0.000967	-0.003690	-0.745361	0.145752	-0.320312	0.670701	-0.121710	-0.728367	-0.069488
24138		9.743474	-0.531194	-0.892619	0.028915	-0.003976	-0.010961	-0.737549	0.142090	-0.321289	0.670676	-0.121619	-0.728427	-0.069261
24139		9.782718	-0.615090	-0.846754	0.029440	0.010539	-0.014213	-0.741211	0.141602	-0.322754	0.670797	-0.121456	-0.728362	-0.069059
24140		9.737722	-0.578794	-0.892404	0.053295	0.003961	-0.010502	-0.745605	0.140869	-0.326416	0.670894	-0.121138	-0.728367	-0.068609
24141		9.742464	-0.560367	-0.883350	0.015831	0.001199	-0.005450	-0.744141	0.141113	-0.320068	0.670917	-0.121207	-0.728347	-0.068480
24142		9.749408	-0.569192	-0.890140	-0.002499	0.001987	-0.001545	-0.745605	0.152588	-0.322754	0.670908	-0.121411	-0.728325	-0.068443
24143		9.744032	-0.588632	-0.841554	0.008944	0.001886	-0.008668	-0.753174	0.139648	-0.321045	0.670909	-0.121590	-0.728295	-0.068439
24144		9.761055	-0.599567	-0.820093	0.020075	-0.004492	-0.021735	-0.754639	0.145996	-0.320801	0.670847	-0.121416	-0.728388	-0.068366
24145		9.722991	-0.583206	-0.872799	0.015236	-0.011288	-0.022232	-0.744141	0.140137	-0.322510	0.670710	-0.121348	-0.728525	-0.068366
24146		9.760970	-0.670138	-0.888998	0.016058	-0.000603	-0.017556	-0.748779	0.146729	-0.322021	0.670700	-0.121268	-0.728553	-0.068305
24147		9.810034	-0.667085	-0.868874	0.012728	0.003423	-0.007397	-0.744873	0.136230	-0.322510	0.670719	-0.121368	-0.728526	-0.068233
24148		9.723002	-0.569308	-0.790080	-0.000977	-0.007461	0.000549	-0.743896	0.145996	-0.322754	0.670636	-0.121561	-0.728579	-0.068145
24149		9.716595	-0.543686	-0.844468	0.006145	-0.003500	0.001235	-0.747803	0.140869	-0.319580	0.670599	-0.121797	-0.728582	-0.068043
24150		9.763778	-0.570268	-0.909162	-0.008594	-0.003221	-0.007669	-0.745850	0.141602	-0.320801	0.670524	-0.121992	-0.728613	-0.068107
24151		9.752317	-0.676112	-0.884006	-0.013120	-0.001246	-0.009028	-0.748047	0.148438	-0.318115	0.670464	-0.122228	-0.728616	-0.068235
24152		9.743560	-0.721459	-0.897271	-0.007605	-0.012194	-0.008091	-0.740234	0.150146	-0.320801	0.670302	-0.122480	-0.728717	-0.068310
24153		9.771150	-0.664335	-0.866085	-0.000061	0.000974	-0.007581	-0.741699	0.144531	-0.329346	0.670291	-0.122704	-0.728686	-0.068349
24154		9.751050	-0.682324	-0.859096	-0.012891	-0.000386	-0.007656	-0.740234	0.144043	-0.326172	0.670269	-0.123056	-0.728628	-0.068535
24155		9.753496	-0.707111	-0.874861	0.014964	-0.004645	-0.009003	-0.751709	0.138916	-0.320557	0.670245	-0.123131	-0.728646	-0.068445
24156		9.702573	-0.648956	-0.944860	0.024032	-0.006088	-0.013075	-0.742188	0.135986	-0.318604	0.670189	-0.122989	-0.728740	-0.068253
24157		9.759268	-0.658813	-0.901630	0.001392	-0.005061	-0.014957	-0.750488	0.140869	-0.319580	0.670117	-0.122969	-0.728811	-0.068238
24158		9.782536	-0.652802	-0.897113	-0.001635	-0.003767	-0.014229	-0.742920	0.152832	-0.316162	0.670040	-0.123042	-0.728864	-0.068296
24159		9.691085	-0.598294	-0.933583	0.011313	-0.001964	-0.013469	-0.744873	0.150879	-0.313965	0.670000	-0.123101	-0.728894	-0.068259
24160		9.726936	-0.659935	-0.933579	0.014523	-0.001299	-0.012723	-0.734863	0.147461	-0.318848	0.669964	-0.123100	-0.728936	-0.068167
24161		9.774585	-0.603956	-0.931706	0.014032	-0.001924	-0.015340	-0.735596	0.145752	-0.316162	0.669948	-0.123090	-0.728959	-0.068099
24162		9.760811	-0.604308	-0.940369	0.004817	0.002794	-0.010958	-0.744873	0.143066	-0.324951	0.669958	-0.123152	-0.728943	-0.068060
24163		9.756046	-0.577761	-0.844913	-0.001740	0.000971	-0.008233	-0.743652	0.143555	-0.314209	0.669952	-0.123349	-0.728909	-0.068117
24164		9.731789	-0.618708	-0.930027	0.000995	-0.005319	-0.011988	-0.745850	0.146729	-0.319580	0.669865	-0.123396	-0.728984	-0.068095
24165		9.730946	-0.612005	-0.963548	-0.003511	-0.005789	-0.011449	-0.747803	0.144775	-0.322754	0.669777	-0.123571	-0.729029	-0.068169
24166		9.768618	-0.507013	-0.945175	0.000066	-0.007543	-0.009654	-0.745117	0.138672	-0.319824	0.669685	-0.123743	-0.729079	-0.068208
24167		9.827990	-0.470370	-0.936172	-0.015957	-0.010755	-0.005684	-0.744629	0.140137	-0.315674	0.669544	-0.123999	-0.729158	-0.068296
24168		9.807036	-0.470072	-0.852468	-0.067498	-0.008096	0.003126	-0.746094	0.153320	-0.309326	0.669344	-0.124739	-0.729171	-0.068765
24169		9.809057	-0.351679	-0.851767	-0.114330	-0.022447	0.011539	-0.735352	0.144531	-0.315918	0.668924	-0.126038	-0.729253	-0.069605
24170		9.756401	-0.504491	-0.762996	-0.163961	-0.019844	0.018547	-0.739990	0.152344	-0.316895	0.668493	-0.127771	-0.729230	-0.070813
24171		9.659717	-0.509795	-0.662068	-0.217836	-0.029128	0.022717	-0.741943	0.149902	-0.314453	0.667887	-0.130080	-0.729210	-0.072518
24172		9.685330	-0.510882	-0.713566	-0.257355	-0.023054	0.035454	-0.746826	0.159180	-0.310303	0.667274	-0.132767	-0.729092	-0.074455
24173		9.637694	-0.612187	-0.800013	-0.351476	-0.039188	0.050781	-0.745605	0.162109	-0.315918	0.666343	-0.136438	-0.728988	-0.077126
24174		9.719932	-0.771821	-0.781684	-0.422683	-0.060060	0.070569	-0.750000	0.171387	-0.311523	0.665125	-0.140952	-0.728901	-0.080279
24175		9.861782	-0.942633	-0.829707	-0.402498	-0.058407	0.070997	-0.752441	0.174072	-0.306152	0.663925	-0.145332	-0.728800	-0.083270
24176		9.806430	-1.089105	-0.904381	-0.312759	-0.031034	0.058550	-0.744629	0.180176	-0.302734	0.663100	-0.148779	-0.728589	-0.085572
24177		9.747792	-1.112066	-0.898561	-0.251809	-0.019949	0.039491	-0.738525	0.186768	-0.299316	0.662466	-0.151544	-0.728368	-0.087484
24178		9.639298	-0.988507	-0.832687	-0.279416	-0.022047	0.022698	-0.739990	0.186523	-0.295166	0.661737	-0.154407	-0.728150	-0.089777
24179		9.969769	-1.041508	-0.952696	-0.290336	-0.003026	-0.002523	-0.739990	0.180664	-0.295166	0.661117	-0.157049	-0.727823	-0.092380
24180		9.911882	-0.567483	-1.110404	-0.399634	0.103799	-0.009554	-0.750732	0.190918	-0.294922	0.661242	-0.160323	-0.726500	-0.096200
24181		9.682320	-1.045265	-1.031367	-0.672811	0.197391	-0.021308	-0.743408	0.196777	-0.285400	0.661595	-0.165710	-0.724054	-0.102850
24182		9.501357	-1.869710	-1.791896	-0.714435	0.163607	-0.013312	-0.738525	0.195312	-0.290039	0.661500	-0.171464	-0.721798	-0.109663
24183		9.348991	-1.673047	-2.156118	-0.567506	0.196508	-0.027382	-0.736084	0.205078	-0.288574	0.661973	-0.175786	-0.719441	-0.115306
24184		10.016722	-1.598981	-1.705664	-0.326712	0.148354	-0.049533	-0.739258	0.198975	-0.293213	0.662476	-0.178034	-0.717843	-0.118877
24185		9.708568	-0.439045	-1.685855	-0.314580	0.167514	-0.037596	-0.739014	0.207275	-0.291504	0.663191	-0.180186	-0.716077	-0.122251
24186		9.702438	-0.615833	-1.400966	-0.331122	0.171333	-0.020760	-0.738037	0.216309	-0.294189	0.663899	-0.182676	-0.714195	-0.125674
24187		9.787926	-0.909644	-1.314923	-0.222757	0.136923	-0.048256	-0.738281	0.215576	-0.297363	0.664488	-0.184166	-0.712790	-0.128330
24188		9.780286	-0.662545	-1.344249	-0.021691	0.151234	-0.077215	-0.734863	0.208252	-0.308105	0.665620	-0.183693	-0.711651	-0.129463
24189		9.744988	-0.259279	-1.162097	0.145905	0.157279	-0.087044	-0.736328	0.204834	-0.305176	0.667201	-0.181699	-0.710733	-0.129178
24190		9.705395	0.259736	-1.052793	0.173649	0.206052	-0.114276	-0.729004	0.208252	-0.308105	0.669210	-0.179094	-0.709544	-0.128958
24191		9.643259	0.296920	-1.174109	0.189769	0.218646	-0.133615	-0.742188	0.194336	-0.309326	0.671326	-0.176237	-0.708286	-0.128814
24192		9.670250	0.051051	-1.445559	0.159020	0.194414	-0.118926	-0.734131	0.197998	-0.320557	0.673153	-0.173644	-0.707210	-0.128713
24193		9.727571	-0.444764	-1.456444	0.139625	0.169230	-0.067068	-0.730957	0.192139	-0.328857	0.674812	-0.171851	-0.706131	-0.128352
24194		9.807460	-0.227859	-1.589042	0.246438	0.162633	0.005506	-0.725342	0.201660	-0.329590	0.676771	-0.169783	-0.705108	-0.126401
24195		9.725086	-0.173944	-1.807183	0.335382	0.149715	0.020704	-0.733398	0.197266	-0.338867	0.678805	-0.167239	-0.704262	-0.123570
24196		9.994691	-0.299455	-1.867963	0.431118	0.119594	-0.090489	-0.728516	0.191406	-0.341064	0.680583	-0.162945	-0.704034	-0.120798
24197		9.894884	-0.077575	-1.296385	0.639786	0.127662	-0.324222	-0.730469	0.174072	-0.347168	0.682470	-0.154775	-0.704498	-0.118164
24198		9.364276	0.848128	-0.487359	0.878632	0.200938	-0.661852	-0.731689	0.144287	-0.356445	0.684880	-0.141391	-0.705266	-0.116394
24199		8.609553	1.712834	0.685054	0.856644	0.173037	-1.061104	-0.729248	0.123535	-0.352783	0.686275	-0.124568	-0.706797	-0.118095
24200		9.380201	2.650235	0.856266	0.734656	-0.005629	-1.353570	-0.740479	0.083984	-0.365479	0.685227	-0.106430	-0.709924	-0.123062
24201		10.563982	3.332274	0.457724	0.497600	-0.251485	-1.287357	-0.737061	0.061523	-0.365479	0.681575	-0.091243	-0.714444	-0.129228
24202		10.734856	1.746235	0.274729	-0.126693	-0.265581	-1.067962	-0.749268	0.039551	-0.344238	0.677293	-0.083433	-0.717609	-0.139105
24203		10.369854	-0.500627	-0.364663	-0.342856	-0.285549	-0.876530	-0.756348	0.026855	-0.346680	0.672769	-0.079027	-0.720334	-0.149184
24204		9.824698	-0.512779	-0.643710	-0.065424	-0.485007	-0.583795	-0.756592	0.016357	-0.336914	0.667202	-0.075363	-0.724847	-0.154137
24205		9.338049	0.258921	-0.062771	-0.146123	-0.569963	-0.272179	-0.763184	0.019775	-0.318848	0.661349	-0.075333	-0.729562	-0.157104
24206		9.174717	0.095609	-1.211587	-0.528042	-0.608925	-0.043935	-0.768311	0.013672	-0.322266	0.655144	-0.080654	-0.733591	-0.161636
24207		9.161344	-0.618180	-2.087009	-0.730705	-0.792679	0.131486	-0.769043	0.023926	-0.303711	0.647364	-0.089579	-0.738387	-0.166375
24208		9.690730	-1.300785	-0.942586	-0.592085	-0.823668	0.273935	-0.780029	0.029297	-0.278076	0.639637	-0.098730	-0.743434	-0.168590
24209		9.608335	-1.234151	0.003964	-0.391639	-0.694531	0.387054	-0.792969	0.053955	-0.269531	0.633463	-0.106939	-0.747678	-0.168126
24210		9.726157	-0.461505	0.394032	-0.197946	-0.513761	0.441072	-0.782959	0.057861	-0.261230	0.629275	-0.113955	-0.750701	-0.165757
24211		9.580535	-0.081328	0.246813	0.235675	-0.369635	0.432192	-0.792480	0.071289	-0.255615	0.627035	-0.117068	-0.753443	-0.159514
24212		9.813467	-0.894658	0.034792	0.792609	-0.233566	0.348723	-0.791260	0.076416	-0.250977	0.626653	-0.114849	-0.756267	-0.148919
24213		9.953910	-0.677680	-1.287410	1.283049	-0.174889	0.261211	-0.785400	0.059570	-0.247559	0.627241	-0.107850	-0.759517	-0.134427
24214		11.436336	0.770652	-0.871475	1.346454	0.017773	0.100370	-0.795166	0.059814	-0.251953	0.629311	-0.098274	-0.761403	-0.120729
24215		11.399807	3.323728	-0.626950	1.162334	0.191249	0.000470	-0.796387	0.047363	-0.261230	0.632482	-0.089021	-0.761566	-0.109816
24216		9.891301	3.145104	-0.769150	0.625703	0.215598	-0.072940	-0.786865	0.046143	-0.252197	0.635108	-0.083243	-0.760764	-0.104625
24217		8.228579	0.557687	-1.473392	0.426419	0.117138	-0.076268	-0.795654	0.042969	-0.253906	0.636510	-0.079092	-0.760497	-0.101206
24218		8.518312	-0.351615	-2.506301	0.512827	-0.040671	0.006555	-0.789307	0.040771	-0.268066	0.636557	-0.075266	-0.761499	-0.096175
24219		10.379755	3.082449	-2.202024	0.011683	0.143609	0.044636	-0.786865	0.036865	-0.276611	0.637993	-0.075634	-0.760307	-0.095802
24220		10.170828	4.215565	-0.890926	-0.922537	0.066538	0.023444	-0.786377	0.050537	-0.273438	0.637769	-0.083324	-0.758555	-0.104417
24221		9.324524	1.099121	-1.944666	-1.189348	-0.020422	0.051022	-0.782715	0.053467	-0.265625	0.636346	-0.093558	-0.756985	-0.115256
24222		9.539930	-0.093607	-3.250275	-0.544275	-0.041753	-0.019611	-0.788574	0.059814	-0.262207	0.635270	-0.097917	-0.756524	-0.120480
24223		9.945197	0.502234	-2.544858	-0.210577	-0.024702	-0.017333	-0.781982	0.058105	-0.263428	0.634731	-0.099648	-0.756417	-0.122556
24224		10.173118	-0.128870	-2.559992	-0.096149	-0.001389	0.033997	-0.777344	0.063721	-0.260010	0.634652	-0.100888	-0.756222	-0.123154
24225		9.779526	-0.481980	-1.899715	0.111357	0.027753	0.115488	-0.791504	0.059814	-0.257812	0.635231	-0.101218	-0.756014	-0.121158
24226		9.466922	-0.106957	-1.864416	0.234067	0.029298	0.158339	-0.778809	0.069824	-0.260742	0.635998	-0.100942	-0.755955	-0.117683
24227		9.471445	-0.083241	-1.665236	0.303120	0.088746	0.184046	-0.783691	0.075195	-0.266357	0.637474	-0.100325	-0.755448	-0.113400
24228		9.486892	0.348335	-2.102853	0.305953	0.096693	0.217688	-0.780762	0.072754	-0.269287	0.639065	-0.100041	-0.754810	-0.108852
24229		9.371054	0.985287	-1.720807	0.254403	0.079574	0.193860	-0.782471	0.072998	-0.273926	0.640390	-0.099923	-0.754256	-0.104951
24230		9.617108	1.024744	-1.886419	0.148756	0.093405	0.119535	-0.781250	0.071045	-0.278076	0.641612	-0.099930	-0.753529	-0.102675
24231		9.659403	0.627341	-1.680916	0.035364	0.106088	0.086070	-0.783691	0.076904	-0.273193	0.642773	-0.100498	-0.752587	-0.101760
24232		9.717662	0.696464	-1.525420	-0.048107	0.123526	0.054749	-0.783447	0.082031	-0.282227	0.643918	-0.101431	-0.751465	-0.101894
24233		9.890451	0.396280	-1.365632	-0.090872	0.114362	0.038953	-0.779785	0.078613	-0.278076	0.644925	-0.102625	-0.750347	-0.102567
24234		9.586585	0.403645	-0.858458	-0.175659	0.101571	0.001650	-0.774414	0.084473	-0.281250	0.645632	-0.104105	-0.749295	-0.104299
24235		9.942311	-0.236907	-1.092365	-0.161075	0.078984	-0.020961	-0.780029	0.082275	-0.284912	0.646129	-0.105314	-0.748453	-0.106038
24236		9.644536	0.017723	-0.990776	-0.127794	0.069470	0.012370	-0.780518	0.092773	-0.286133	0.646620	-0.106575	-0.747684	-0.107207
24237		9.937926	-0.133582	-1.095661	-0.075996	0.086090	-0.008893	-0.781494	0.088867	-0.287354	0.647305	-0.107259	-0.746867	-0.108081
24238		9.700011	0.157217	-1.280742	0.059224	0.079369	-0.018459	-0.769775	0.085205	-0.290771	0.648089	-0.106740	-0.746307	-0.107769
24239		9.690464	0.541766	-1.418856	0.080209	0.092117	-0.035825	-0.770508	0.081787	-0.290283	0.649021	-0.105842	-0.745677	-0.107401
24240		9.598339	0.327466	-1.465657	-0.095074	0.082937	-0.053322	-0.776611	0.086182	-0.296387	0.649599	-0.106194	-0.744921	-0.108796
24241		9.878137	0.447618	-1.792962	-0.021697	0.116928	-0.012699	-0.775391	0.090332	-0.295898	0.650649	-0.106340	-0.743917	-0.109251
24242		9.815304	0.658866	-1.679091	-0.042128	0.136572	0.027710	-0.776123	0.091309	-0.300293	0.651899	-0.107012	-0.742676	-0.109578
24243		9.434206	0.895280	-1.673905	-0.089463	0.156125	0.007771	-0.771484	0.084717	-0.307373	0.653240	-0.107870	-0.741229	-0.110549
24244		9.709519	-0.018724	-1.533823	0.037043	0.132935	-0.041674	-0.773682	0.081299	-0.308350	0.654481	-0.107246	-0.740195	-0.110748
24245		9.575358	0.105523	-1.092113	0.135510	0.139777	-0.088143	-0.777100	0.084473	-0.310791	0.655836	-0.105362	-0.739312	-0.110431
24246		10.023640	-0.178118	-1.423217	0.131509	0.196834	-0.109203	-0.761963	0.078613	-0.310303	0.657671	-0.103272	-0.737981	-0.110396
24247		9.820587	0.002695	-1.835904	0.152811	0.178700	-0.047118	-0.766357	0.074463	-0.302490	0.659457	-0.101542	-0.736748	-0.109581
24248		9.880036	0.466618	-1.470301	0.032930	0.177969	-0.000166	-0.760254	0.076416	-0.312988	0.661098	-0.101166	-0.735349	-0.109438
24249		9.735619	-0.109015	-1.096564	-0.052722	0.171226	-0.002400	-0.766602	0.077393	-0.322754	0.662593	-0.101526	-0.733852	-0.110112
24250		9.543194	-0.550771	-0.838224	0.111711	0.154701	-0.013263	-0.761230	0.079346	-0.316650	0.664131	-0.100494	-0.732710	-0.109392
24251		9.766529	-0.334068	-0.715499	0.145450	0.156028	-0.029303	-0.763428	0.075439	-0.329834	0.665681	-0.098991	-0.731650	-0.108433
24252		9.858056	0.691257	-0.945978	0.101150	0.161031	-0.045337	-0.760498	0.082031	-0.333740	0.667217	-0.097745	-0.730470	-0.108076
24253		10.236813	-0.208013	-1.036445	0.285825	0.255797	-0.078736	-0.761475	0.074219	-0.340088	0.669797	-0.094565	-0.728770	-0.106413
24254		9.532452	0.196208	-1.323258	0.409761	0.273833	-0.102084	-0.758789	0.060791	-0.337646	0.672631	-0.090099	-0.727093	-0.103855
24255		9.316974	0.921197	-1.278344	0.205657	0.211236	-0.168393	-0.758057	0.064697	-0.349854	0.674537	-0.086742	-0.725770	-0.103606
24256		9.420218	0.284561	-1.508271	-0.126061	0.098380	-0.273623	-0.757324	0.058105	-0.349121	0.674935	-0.085456	-0.725036	-0.107160
24257		10.808555	-1.080691	-1.898311	0.597859	0.180434	-0.356862	-0.754639	0.041992	-0.357178	0.676698	-0.077169	-0.724647	-0.104931
24258		10.509329	-0.903165	-0.798876	1.399375	0.325634	-0.373184	-0.754883	0.026611	-0.366455	0.680399	-0.061750	-0.723935	-0.095720
24259		9.925461	0.616224	-1.150474	1.346689	0.332555	-0.327858	-0.750488	0.010498	-0.380371	0.683958	-0.047191	-0.722827	-0.086580
24260		10.731893	-0.273400	-1.073657	0.574645	0.233250	-0.283695	-0.750000	-0.005371	-0.376465	0.686104	-0.039785	-0.721540	-0.084009
24261		11.830507	-0.835342	0.074666	0.408567	0.104395	-0.074177	-0.748291	-0.005615	-0.377197	0.687163	-0.035758	-0.721084	-0.081034
24262		11.153498	1.320864	2.076352	0.342302	0.189412	0.316302	-0.754883	-0.002930	-0.386230	0.689333	-0.035736	-0.719633	-0.075309
24263		10.130346	0.226217	2.568117	-0.444421	0.201653	0.396853	-0.748047	0.004883	-0.394287	0.691300	-0.043262	-0.717253	-0.076031
24264		8.570958	0.733083	0.101752	0.274049	0.150461	0.156415	-0.749512	0.001953	-0.391846	0.692960	-0.042491	-0.716071	-0.072410
24265		7.819906	1.462193	-1.199470	1.113474	-0.002786	-0.088428	-0.747559	-0.010742	-0.390381	0.693377	-0.032351	-0.717061	-0.063285
24266		8.090996	4.164107	-1.185316	0.804787	-0.055507	-0.119356	-0.753174	-0.010010	-0.390869	0.693072	-0.024634	-0.718177	-0.057159
24267		7.566540	4.117601	-0.591039	-0.144396	-0.168306	-0.055421	-0.749023	-0.014404	-0.392334	0.691467	-0.025849	-0.719534	-0.058964
24268		7.802293	0.827333	-0.545331	-1.139026	-0.279086	0.296911	-0.749023	-0.007324	-0.382324	0.688737	-0.038944	-0.720885	-0.066707
24269		7.978764	-0.366447	0.144616	-1.055343	-0.284070	0.493008	-0.754883	0.015625	-0.367188	0.685993	-0.053010	-0.722097	-0.071969
24270		8.164702	-0.880545	0.810232	-0.587173	-0.294601	0.428995	-0.758789	0.037354	-0.368408	0.683266	-0.062399	-0.723785	-0.073412
24271		8.073654	-0.986537	-0.406455	0.145777	-0.383603	0.299271	-0.762695	0.040771	-0.352051	0.680158	-0.064522	-0.726925	-0.069302
24272		11.801290	-0.971321	0.399036	0.614268	-0.395514	0.037532	-0.769043	0.039551	-0.364014	0.677027	-0.060193	-0.730778	-0.063042
24273		14.151700	3.360260	1.624516	1.158974	0.007497	-0.125522	-0.760254	0.020508	-0.364502	0.677807	-0.049633	-0.731597	-0.053666
24274		12.703496	3.055769	2.277925	0.006489	0.217863	-0.152078	-0.763428	0.023926	-0.368408	0.679715	-0.048422	-0.729792	-0.055201
24275		8.949728	-1.238691	-1.481495	-0.252342	-0.009448	-0.155132	-0.764160	0.017334	-0.352051	0.679371	-0.049559	-0.729740	-0.058982
24276		9.404300	-3.551645	-2.431471	0.071890	-0.298133	0.048739	-0.763672	0.021729	-0.355225	0.676695	-0.049826	-0.732305	-0.057717
24277		9.770105	-0.970732	0.864591	0.590277	-0.077148	0.066824	-0.762695	0.017578	-0.353027	0.676380	-0.045802	-0.733304	-0.051752
24278		9.684404	0.533183	1.172448	0.345016	-0.006864	0.081815	-0.769775	0.007324	-0.358643	0.676555	-0.043921	-0.733518	-0.047926
24279		9.554196	0.374180	-0.565230	0.485542	0.073920	0.031945	-0.758057	0.006836	-0.359131	0.677500	-0.040399	-0.733131	-0.043369
24280		9.211228	0.279444	-1.415170	0.467844	0.025427	-0.066949	-0.769043	0.003662	-0.354004	0.677927	-0.036121	-0.733164	-0.039753
24281		9.566804	0.984842	-1.493700	0.379516	-0.059239	-0.079395	-0.771484	-0.000244	-0.349365	0.677487	-0.032470	-0.733888	-0.036943
24282		10.483858	0.819186	-0.910177	0.146301	-0.041346	-0.096372	-0.768555	-0.000488	-0.357422	0.677090	-0.030594	-0.734364	-0.036381
24283		10.263911	0.676328	-1.330529	0.074519	0.013034	-0.126933	-0.766357	-0.004395	-0.356445	0.677171	-0.029109	-0.734326	-0.036845
24284		9.632594	-0.394880	-1.892591	0.045255	-0.020967	-0.136454	-0.756836	-0.003906	-0.354492	0.676922	-0.027781	-0.734567	-0.037634
24285		9.518142	-0.474335	-1.746216	0.085348	-0.101141	-0.091461	-0.764404	-0.012451	-0.351807	0.675978	-0.026537	-0.735483	-0.037607
24286		10.063125	0.133672	-1.103249	0.114559	-0.021990	-0.071785	-0.759033	-0.014160	-0.355713	0.675767	-0.025180	-0.735746	-0.037178
24287		9.927956	0.114688	-1.011431	0.099710	0.041111	-0.090743	-0.769043	-0.015381	-0.357910	0.676135	-0.023782	-0.735458	-0.037107
24288		9.810517	-0.196608	-1.481196	0.096884	0.053304	-0.089744	-0.769043	-0.016113	-0.350098	0.676604	-0.022435	-0.735072	-0.037069
24289		9.703171	0.145103	-1.259468	0.191399	0.061047	-0.068900	-0.768555	-0.020752	-0.350342	0.677160	-0.020383	-0.734678	-0.035877
24290		9.677018	0.497677	-1.253409	0.137269	0.061229	-0.048410	-0.766846	-0.022461	-0.358154	0.677708	-0.018965	-0.734252	-0.035002
24291		9.801392	0.209712	-1.501144	-0.027439	0.085804	-0.045525	-0.764404	-0.022705	-0.355469	0.678456	-0.019024	-0.733527	-0.035694
24292		9.709064	-0.053348	-1.321997	-0.122324	0.073575	-0.016862	-0.767090	-0.020752	-0.355713	0.679074	-0.020109	-0.732863	-0.036958
24293		9.950965	-0.249470	-1.036997	-0.209165	0.097893	0.007814	-0.765869	-0.019043	-0.366211	0.679894	-0.022135	-0.731949	-0.038794
24294		9.742532	-0.486928	-0.834144	-0.284409	0.095282	0.014870	-0.757080	-0.014160	-0.369385	0.680679	-0.024945	-0.730988	-0.041349
24295		9.534531	-0.545759	-0.891792	-0.232185	0.070588	-0.041301	-0.762695	-0.015625	-0.371094	0.681226	-0.026816	-0.730263	-0.043903
24296		9.693950	-0.383296	-0.964873	0.009612	0.070592	-0.063641	-0.762939	-0.012695	-0.373535	0.681831	-0.026426	-0.729680	-0.044442
24297		9.674594	0.555928	-0.897937	-0.057727	0.126042	-0.052313	-0.761719	-0.017090	-0.359863	0.682925	-0.026695	-0.728581	-0.045517
24298		9.921812	0.929952	-1.413691	-0.063348	0.215022	-0.081895	-0.766846	-0.013672	-0.375000	0.684783	-0.026520	-0.726763	-0.046741
24299		9.818385	0.938730	-1.512043	-0.155342	0.178088	-0.111502	-0.765381	-0.020508	-0.376221	0.686259	-0.027006	-0.725191	-0.049163
24300		9.781032	0.305278	-1.241812	-0.229355	0.171362	-0.137399	-0.760254	-0.016113	-0.388184	0.687619	-0.027866	-0.723637	-0.052461
24301		9.911682	0.295654	-1.014866	-0.160247	0.199503	-0.145163	-0.751709	-0.021484	-0.380615	0.689257	-0.028127	-0.721855	-0.055301
24302		10.257567	0.166428	-0.710971	-0.123573	0.204292	-0.157938	-0.750000	-0.016846	-0.388184	0.690925	-0.027832	-0.720075	-0.057796
24303		10.598350	-0.353497	-0.822231	-0.026816	0.232333	-0.070255	-0.757080	-0.017090	-0.390869	0.692940	-0.027511	-0.718075	-0.058703
24304		10.839085	-0.298071	-0.602408	0.128015	0.257039	0.033502	-0.747314	-0.012451	-0.402832	0.695288	-0.026744	-0.715944	-0.057294
24305		10.888332	0.430222	-0.432559	0.203061	0.256736	0.020083	-0.743896	-0.024170	-0.410645	0.697655	-0.025275	-0.713841	-0.055409
24306		11.632952	0.633374	-0.118309	0.447918	0.238789	-0.076182	-0.739258	-0.027588	-0.406982	0.699853	-0.020837	-0.712070	-0.052219
24307		12.607239	1.529652	0.583127	0.544841	0.232845	-0.114729	-0.742432	-0.035156	-0.416260	0.701961	-0.015137	-0.710407	-0.048406
24308		12.885385	2.538951	0.519095	0.372239	0.230760	-0.211529	-0.737793	-0.043701	-0.424316	0.703929	-0.010142	-0.708639	-0.047030
24309		11.509822	3.035166	0.449960	0.059808	0.287045	-0.398347	-0.742676	-0.051758	-0.415283	0.706225	-0.006246	-0.706183	-0.050132
24310		10.742068	1.843207	0.413813	-0.087786	0.259719	-0.489860	-0.733398	-0.061768	-0.429688	0.708160	-0.002724	-0.703889	-0.055162
24311		10.727029	1.778627	-0.229155	-0.151768	0.188215	-0.496963	-0.737793	-0.066162	-0.433105	0.709438	0.000157	-0.702128	-0.060943
24312		9.824996	1.947143	-0.586073	-0.314427	0.064463	-0.492796	-0.731689	-0.080566	-0.429932	0.709590	0.001469	-0.701315	-0.068093
24313		9.906443	1.335310	-0.380664	-0.369585	0.020808	-0.478914	-0.734375	-0.081543	-0.430420	0.709333	0.002189	-0.700809	-0.075556
24314		9.783833	0.628197	0.031601	-0.314371	-0.040618	-0.456353	-0.734863	-0.073242	-0.433838	0.708517	0.003148	-0.700869	-0.082314
24315		9.202058	0.237814	0.072820	-0.016458	-0.034985	-0.427929	-0.733887	-0.089844	-0.425293	0.707746	0.006456	-0.701154	-0.086237
24316		8.862221	0.219795	0.470398	0.208834	0.012311	-0.461217	-0.732178	-0.098877	-0.427490	0.707310	0.012183	-0.701251	-0.088381
24317		9.390321	0.286754	0.002750	0.386974	-0.031642	-0.406333	-0.729004	-0.111328	-0.420654	0.706494	0.018934	-0.701908	-0.088506
24318		9.667630	0.491814	-0.295887	0.222626	-0.069128	-0.221639	-0.736572	-0.119141	-0.422119	0.705572	0.022612	-0.702740	-0.088395
24319		9.320775	1.010409	0.243909	-0.066983	-0.019955	-0.125341	-0.732666	-0.115234	-0.424072	0.705261	0.022923	-0.702840	-0.089981
24320		9.064875	1.060773	0.890347	-0.337021	-0.027998	-0.147366	-0.735840	-0.116699	-0.425781	0.704928	0.021013	-0.702686	-0.094164
24321		9.639979	1.076494	0.619176	-0.171931	-0.122234	-0.155443	-0.743164	-0.117432	-0.417480	0.703703	0.020515	-0.703544	-0.096993
24322		9.775691	0.246799	0.162862	0.290674	-0.053563	-0.052332	-0.738281	-0.125732	-0.422607	0.703074	0.023307	-0.704390	-0.094758
24323		9.476661	0.733267	0.248483	0.395408	0.028059	0.056827	-0.744385	-0.123291	-0.413818	0.703256	0.026119	-0.704646	-0.090678
24324		8.822392	1.796654	0.568565	0.225944	0.003779	0.087103	-0.737549	-0.122559	-0.410889	0.703297	0.027182	-0.704935	-0.087759
24325		8.944399	2.052362	0.235575	-0.060503	-0.076886	0.096191	-0.734375	-0.123779	-0.410156	0.702734	0.025560	-0.705611	-0.087319
24326		9.617532	2.000785	0.077194	-0.164388	-0.086150	0.119465	-0.740723	-0.118164	-0.416748	0.702146	0.022807	-0.706254	-0.087613
24327		9.427690	1.219571	0.934766	-0.247024	-0.009591	0.164027	-0.735107	-0.108398	-0.406738	0.702299	0.018981	-0.706134	-0.088270
24328		8.916194	0.798845	0.873088	-0.170223	-0.005828	0.197553	-0.745850	-0.103027	-0.408936	0.702493	0.015570	-0.706069	-0.087904
24329		8.771686	0.783240	0.851702	-0.029357	-0.075285	0.221917	-0.749023	-0.103027	-0.416748	0.702063	0.013095	-0.706770	-0.086095
24330		8.759923	1.157818	0.111662	0.075199	-0.069835	0.264423	-0.745605	-0.108643	-0.405518	0.701706	0.011146	-0.707524	-0.083029
24331		8.404297	1.424851	0.165930	0.057724	0.010897	0.289916	-0.752930	-0.087158	-0.406250	0.702079	0.008945	-0.707553	-0.079831
24332		7.913494	0.888052	0.412652	-0.235919	0.083483	0.302825	-0.753418	-0.072998	-0.410889	0.703124	0.004091	-0.706638	-0.079130
24333		7.761517	1.235648	-0.250916	-0.258695	0.085871	0.290013	-0.751709	-0.070312	-0.414551	0.704163	-0.000861	-0.705656	-0.078762
24334		8.337434	1.793220	-0.280420	-0.424172	0.075004	0.204306	-0.746338	-0.061523	-0.409424	0.704998	-0.006520	-0.704583	-0.080610
24335		8.718093	1.123784	0.077699	-0.607343	0.177839	0.117751	-0.743896	-0.056152	-0.419922	0.706599	-0.012918	-0.702392	-0.084828
24336		9.481105	0.075352	0.189759	-0.700588	0.114557	0.158698	-0.742676	-0.042969	-0.425781	0.707622	-0.020571	-0.700597	-0.089505
24337		9.603017	0.455001	0.381543	-0.561557	0.072256	0.173154	-0.747803	-0.028076	-0.416992	0.708278	-0.027173	-0.699276	-0.092825
24338		10.278790	0.626050	0.530408	-0.521095	0.029116	0.102944	-0.741699	-0.028809	-0.423584	0.708448	-0.032844	-0.698381	-0.096368
24339		9.773799	0.407448	0.499863	-0.316226	0.035153	0.077899	-0.740967	-0.019531	-0.420898	0.708706	-0.036471	-0.697662	-0.098354
24340		9.502622	0.050524	0.240990	-0.005415	0.024509	0.038572	-0.742432	-0.014893	-0.419189	0.708958	-0.037016	-0.697432	-0.097968
24341		9.753993	0.522550	0.469641	0.194602	-0.026220	-0.006156	-0.739258	-0.024902	-0.422607	0.708802	-0.035463	-0.697916	-0.096208
24342		9.912412	0.609347	0.211699	0.420467	-0.026556	-0.042343	-0.742676	-0.030029	-0.428955	0.708690	-0.031587	-0.698677	-0.092797
24343		9.985320	1.220672	0.038548	0.499789	-0.004538	-0.052793	-0.732910	-0.041504	-0.423096	0.708768	-0.026895	-0.699313	-0.088802
24344		9.808809	1.231691	0.362545	0.281552	0.019850	-0.074652	-0.737793	-0.045654	-0.421387	0.708944	-0.023910	-0.699481	-0.086907
24345		9.763551	0.991774	0.382007	0.173168	-0.003080	-0.077929	-0.745605	-0.039307	-0.418945	0.708876	-0.021881	-0.699731	-0.085976
24346		9.526096	0.988711	0.486026	0.151188	0.029774	-0.077825	-0.737061	-0.045654	-0.424561	0.709084	-0.020020	-0.699666	-0.085248
24347		9.329677	0.743122	0.378893	0.118033	0.055705	-0.096983	-0.739746	-0.048584	-0.419678	0.709490	-0.018258	-0.699333	-0.084997
24348		9.352112	0.592333	0.292839	0.196317	0.024129	-0.116062	-0.741943	-0.049805	-0.426025	0.709612	-0.015665	-0.699367	-0.084210
24349		9.093774	1.125694	0.600989	0.281308	-0.010610	-0.175632	-0.738281	-0.052246	-0.420898	0.709377	-0.011839	-0.699799	-0.083213
24350		8.344223	0.929789	0.493538	0.224565	-0.000284	-0.226647	-0.741211	-0.064209	-0.421875	0.709160	-0.008061	-0.700079	-0.083164
24351		8.799830	0.470937	0.176210	0.185509	0.028652	-0.211896	-0.732178	-0.060059	-0.428223	0.709199	-0.004723	-0.700051	-0.083321
24352		9.320942	1.004405	1.144463	0.314876	0.013452	-0.163350	-0.743896	-0.083496	-0.426270	0.709156	-0.000692	-0.700274	-0.081943
24353		8.799255	1.402564	1.154754	0.181940	0.020257	-0.089560	-0.740723	-0.081299	-0.425537	0.709236	0.001543	-0.700296	-0.081038
24354		8.458963	1.890878	0.555832	0.049265	0.003415	-0.069681	-0.739990	-0.084473	-0.428223	0.709190	0.002404	-0.700330	-0.081128
24355		8.408731	1.936021	0.240950	-0.087115	0.048187	-0.077227	-0.738770	-0.073975	-0.427490	0.709531	0.002166	-0.699826	-0.082485
24356		8.602702	1.319841	0.252692	-0.205802	0.089706	-0.050178	-0.735107	-0.076904	-0.424561	0.710262	0.000670	-0.698828	-0.084654
24357		9.047044	1.226732	0.203305	-0.224329	0.128264	0.012540	-0.729492	-0.068359	-0.427734	0.711389	-0.001490	-0.697464	-0.086413
24358		9.727186	1.324879	0.230571	-0.208077	0.134308	0.018012	-0.738525	-0.072266	-0.427979	0.712568	-0.003554	-0.696054	-0.087996
24359		9.686299	1.197094	0.581133	-0.111903	0.161118	-0.031595	-0.733887	-0.068115	-0.436523	0.713921	-0.004289	-0.694513	-0.089158
24360		9.212981	0.769020	0.686415	-0.103640	0.180554	-0.058885	-0.724121	-0.067139	-0.441406	0.715411	-0.004700	-0.692800	-0.090513
24361		9.133581	0.701043	0.122790	-0.182097	0.171759	-0.020497	-0.726074	-0.061279	-0.447510	0.716859	-0.006157	-0.691065	-0.092215
24362		10.384225	0.739611	0.220329	-0.151241	0.113397	-0.003774	-0.725586	-0.064209	-0.452637	0.717819	-0.007556	-0.689881	-0.093503
24363		10.274682	1.131971	1.151298	-0.067161	0.106757	-0.040857	-0.724365	-0.066650	-0.456055	0.718684	-0.007883	-0.688855	-0.094392
24364		8.920705	0.638958	1.042625	-0.156095	0.114085	-0.053579	-0.729004	-0.064941	-0.452881	0.719586	-0.008888	-0.687655	-0.096160
24365		9.994473	0.125099	-0.747902	-0.195792	0.108497	-0.000832	-0.718506	-0.063721	-0.452881	0.720491	-0.010704	-0.686454	-0.097770
24366		12.442379	1.083837	-0.406250	0.173550	0.054001	0.010325	-0.727539	-0.063721	-0.454834	0.720989	-0.009355	-0.686187	-0.096102
24367		11.862954	1.020073	0.890239	0.391000	0.037695	-0.073676	-0.720459	-0.068359	-0.456543	0.721258	-0.005344	-0.686331	-0.093314
24368		10.199397	1.209343	1.246916	0.541702	-0.007452	-0.121330	-0.721191	-0.079346	-0.463135	0.721071	0.000378	-0.687034	-0.089670
24369		9.222102	2.022061	0.657250	0.216792	-0.003041	0.004841	-0.717773	-0.075928	-0.458008	0.721049	0.002090	-0.687309	-0.087692
24370		9.968146	1.457651	-0.881716	-0.258026	-0.008448	0.134378	-0.717529	-0.065674	-0.461670	0.721126	-0.001602	-0.687109	-0.088632
24371		10.855742	1.157709	-0.555500	0.005748	0.021332	0.085880	-0.718994	-0.069824	-0.462158	0.721405	-0.002477	-0.686925	-0.087764
24372		9.695831	1.089364	1.245728	0.298687	0.003203	0.016678	-0.727051	-0.068115	-0.458252	0.721455	-0.000127	-0.687226	-0.084989
24373		9.394939	1.422847	1.421108	0.298322	-0.020683	0.017545	-0.720215	-0.082764	-0.458252	0.721288	0.002186	-0.687738	-0.082193
24374		9.365872	1.504605	0.101091	0.012698	-0.017204	0.095514	-0.717773	-0.070068	-0.463867	0.721236	0.001271	-0.687919	-0.081140
24375		9.981143	0.756763	-0.103502	-0.015225	-0.099684	0.141648	-0.716309	-0.074707	-0.455078	0.720522	-0.000400	-0.688806	-0.079962
24376		9.613649	1.009278	1.342575	0.180694	-0.124831	0.096208	-0.720947	-0.069580	-0.455322	0.719540	0.000077	-0.690116	-0.077469
24377		8.978093	1.504861	0.911616	0.168030	-0.123273	0.064340	-0.727539	-0.072510	-0.457520	0.718535	0.000707	-0.691392	-0.075387
24378		9.071195	1.201502	-0.449219	0.098599	-0.086046	0.073822	-0.725830	-0.068359	-0.458740	0.717858	0.000666	-0.692264	-0.073823
24379		9.170612	0.812570	-0.366845	0.174927	-0.113718	0.101901	-0.731934	-0.070801	-0.449951	0.716964	0.001030	-0.693446	-0.071371
24380		8.991860	0.723686	0.631392	0.234253	-0.094117	0.051285	-0.727051	-0.077637	-0.451660	0.716183	0.002397	-0.694507	-0.068818
24381		9.387534	0.906382	0.509920	0.212297	-0.098097	0.025402	-0.733398	-0.077637	-0.440674	0.715343	0.003788	-0.695572	-0.066702
24382		10.768991	1.494481	0.473792	0.190432	-0.106702	0.051936	-0.729736	-0.075439	-0.443848	0.714440	0.004759	-0.696702	-0.064495
24383		11.972237	3.506977	1.171866	0.317022	-0.007000	-0.115330	-0.730469	-0.074219	-0.441162	0.714258	0.008381	-0.697017	-0.062714
24384		13.310740	3.354934	1.218613	0.108605	0.038557	-0.340656	-0.733398	-0.093018	-0.452393	0.714304	0.012133	-0.696727	-0.064767
24385		12.132948	1.443304	0.251444	-0.088668	-0.063188	-0.336587	-0.728516	-0.097168	-0.449463	0.713488	0.014006	-0.697167	-0.068535
24386		9.958734	-0.128043	-0.639757	-0.060182	-0.118540	-0.107873	-0.735840	-0.091309	-0.442871	0.712371	0.014091	-0.698158	-0.070028
24387		10.150286	0.045275	-0.038267	-0.194465	-0.144256	0.120275	-0.725586	-0.088379	-0.444824	0.711244	0.010969	-0.699301	-0.070639
24388		10.482979	-0.359650	0.514534	-0.500279	-0.130155	0.205661	-0.731445	-0.086426	-0.443848	0.710340	0.004381	-0.700029	-0.073195
24389		9.575967	-0.464612	0.368761	-0.163940	-0.105825	0.196435	-0.732666	-0.071777	-0.442383	0.709599	0.000898	-0.700829	-0.072854
24390		8.939688	0.831002	0.394723	0.137482	-0.072178	0.131620	-0.743652	-0.076172	-0.437744	0.709083	0.000677	-0.701596	-0.070457
24391		9.255668	2.426251	0.059596	0.052877	-0.023923	0.074121	-0.739014	-0.070801	-0.434570	0.708933	0.000274	-0.701867	-0.069262
24392		9.316996	2.047070	-0.229702	-0.203116	-0.006201	0.032085	-0.735352	-0.062012	-0.435059	0.708900	-0.002018	-0.701754	-0.070697
24393		9.431795	1.947489	-0.683334	-0.205103	-0.042290	-0.007514	-0.738037	-0.068115	-0.433105	0.708510	-0.004024	-0.701953	-0.072520
24394		9.987848	1.557454	-0.619718	-0.177622	-0.051311	-0.029512	-0.738281	-0.057129	-0.434082	0.708015	-0.005587	-0.702258	-0.074272
24395		10.152560	1.014710	-0.748490	-0.212467	-0.021932	-0.040996	-0.743408	-0.063965	-0.429932	0.707761	-0.007345	-0.702264	-0.076457
24396		10.130322	0.480998	-0.600374	-0.192971	-0.003842	-0.020558	-0.739990	-0.054932	-0.428467	0.707679	-0.009070	-0.702129	-0.078250
24397		10.016663	0.235335	-0.416139	-0.250683	0.010707	0.026677	-0.737061	-0.054443	-0.431885	0.707758	-0.011715	-0.701797	-0.080142
24398		10.074525	0.276412	-0.443877	-0.162492	0.030377	0.069901	-0.729492	-0.047363	-0.428955	0.708062	-0.013940	-0.701364	-0.080889
24399		9.831965	0.424567	-0.672621	-0.078786	0.056582	0.092311	-0.734619	-0.051270	-0.436523	0.708630	-0.015598	-0.700776	-0.080711
24400		9.763399	0.355234	-0.543678	-0.003763	0.098292	0.072997	-0.727783	-0.046875	-0.431152	0.709556	-0.016377	-0.699895	-0.080053
24401		10.071451	0.183491	-0.293741	0.095644	0.169593	0.023302	-0.731934	-0.048828	-0.439697	0.711073	-0.015763	-0.698492	-0.078966
24402		10.098117	0.120771	-0.431197	0.202449	0.199935	0.021746	-0.730469	-0.052979	-0.443604	0.712868	-0.014158	-0.696918	-0.076969
24403		10.094004	0.017837	-0.450958	0.330620	0.207467	0.023898	-0.729004	-0.050049	-0.443604	0.714741	-0.011418	-0.695388	-0.073829
24404		10.584813	0.431867	-0.320536	0.377076	0.203994	0.035780	-0.735840	-0.055908	-0.443115	0.716581	-0.008370	-0.693914	-0.070170
24405		10.829072	1.052806	-0.034130	0.338254	0.216115	0.021193	-0.734619	-0.055908	-0.460205	0.718487	-0.005516	-0.692290	-0.066941
24406		10.493630	1.098939	0.405380	0.206210	0.209286	0.046969	-0.730957	-0.063965	-0.456299	0.720338	-0.004102	-0.690589	-0.064675
24407		10.601522	1.485485	0.717284	0.183731	0.186931	0.079248	-0.721924	-0.062012	-0.468506	0.722008	-0.003168	-0.689069	-0.062274
24408		10.902747	1.901917	1.060483	0.033602	0.160572	0.060452	-0.721680	-0.060303	-0.465576	0.723431	-0.003468	-0.687653	-0.061386
24409		10.999920	1.752772	1.034296	-0.059237	0.118004	0.059043	-0.722900	-0.064941	-0.465576	0.724477	-0.004621	-0.686553	-0.061288
24410		11.151673	1.601870	0.970518	-0.089985	0.093550	0.049468	-0.720215	-0.055908	-0.472656	0.725299	-0.005975	-0.685654	-0.061516
24411		11.124704	1.096703	0.303389	-0.135766	-0.004838	0.089250	-0.717529	-0.051758	-0.470215	0.725306	-0.008180	-0.685598	-0.061806
24412		11.361997	1.365514	1.220066	-0.100878	0.013075	0.083034	-0.725098	-0.045654	-0.468506	0.725461	-0.010000	-0.685406	-0.061853
24413		11.363346	0.509177	1.154552	-0.254626	0.006512	0.044091	-0.719727	-0.038086	-0.462646	0.725502	-0.012883	-0.685158	-0.063556
24414		11.286097	0.748021	1.163174	-0.138897	-0.010173	0.032572	-0.722656	-0.044922	-0.471680	0.725403	-0.014630	-0.685152	-0.064364
24415		11.056707	1.127665	1.209042	-0.121102	-0.006461	0.025786	-0.721191	-0.038330	-0.466797	0.725335	-0.016152	-0.685121	-0.065087
24416		10.719319	1.451748	0.974407	-0.250784	-0.000325	-0.019873	-0.715332	-0.031494	-0.469971	0.725250	-0.018454	-0.684936	-0.067333
24417		10.601205	1.094739	1.012463	-0.314003	0.018652	-0.060149	-0.718750	-0.034424	-0.466064	0.725273	-0.020983	-0.684519	-0.070523
24418		10.367681	0.852954	1.067750	-0.330014	0.028177	-0.059094	-0.718750	-0.027588	-0.460205	0.725357	-0.023639	-0.683996	-0.073805
24419		9.929691	0.976690	0.981855	-0.385629	0.020913	-0.063110	-0.719482	-0.022217	-0.459961	0.725341	-0.026769	-0.683480	-0.077581
24420		9.484139	0.900838	0.982143	-0.472334	0.015227	-0.102804	-0.725342	-0.019531	-0.468262	0.725186	-0.030352	-0.682924	-0.082456
24421		9.228848	0.601791	0.810882	-0.511189	0.013384	-0.141796	-0.722412	-0.018066	-0.457275	0.724933	-0.033960	-0.682327	-0.088025
24422		9.087613	0.072408	0.854888	-0.397538	0.030927	-0.154939	-0.722656	-0.017090	-0.466797	0.724832	-0.036388	-0.681689	-0.092709
24423		8.623500	-0.106425	0.940975	-0.233854	0.049737	-0.183057	-0.715820	-0.017090	-0.458740	0.724922	-0.037079	-0.681060	-0.096283
24424		8.557691	0.096895	0.792895	-0.126783	0.038904	-0.212672	-0.718506	-0.012939	-0.457764	0.724924	-0.036553	-0.680669	-0.099189
24425		8.642614	0.917713	0.438619	-0.033766	0.062778	-0.202180	-0.718994	-0.027832	-0.455566	0.725177	-0.035254	-0.680168	-0.101227
24426		8.413906	1.017938	0.481162	-0.149377	0.118510	-0.183560	-0.723633	-0.025146	-0.459717	0.725869	-0.035061	-0.679013	-0.104053
24427		8.314949	1.068633	0.567750	-0.376386	0.119675	-0.167808	-0.729736	-0.024414	-0.463623	0.726476	-0.037070	-0.677531	-0.108675
24428		8.522578	0.726499	0.823449	-0.441937	0.124541	-0.166223	-0.718750	-0.018311	-0.462646	0.727071	-0.039678	-0.675896	-0.113831
24429		8.556098	0.370776	0.897148	-0.437841	0.119075	-0.159582	-0.713623	-0.011719	-0.465576	0.727607	-0.042324	-0.674283	-0.118910
24430		8.438846	0.101487	0.624068	-0.296527	0.110101	-0.123034	-0.711426	-0.013916	-0.474121	0.728178	-0.044017	-0.672918	-0.122481
24431		8.397808	0.064279	0.591788	-0.178066	0.081540	-0.109755	-0.716797	-0.010010	-0.464844	0.728590	-0.044780	-0.671972	-0.124919
24432		8.516847	0.272000	0.532010	-0.045133	0.085789	-0.125636	-0.716064	-0.015381	-0.464355	0.729076	-0.044194	-0.671213	-0.126366
24433		8.521284	0.627549	0.533321	-0.001653	0.094199	-0.123796	-0.704346	-0.021973	-0.480469	0.729657	-0.043203	-0.670447	-0.127421
24434		8.709704	0.502216	0.538302	0.017917	0.080865	-0.119798	-0.704834	-0.025635	-0.468994	0.730154	-0.042087	-0.669809	-0.128295
24435		8.972360	0.609048	0.759295	0.128282	0.065571	-0.093797	-0.699951	-0.012451	-0.474121	0.730614	-0.040200	-0.669485	-0.127972
24436		9.278240	0.364452	0.888635	0.099086	0.063846	-0.067189	-0.707031	-0.017578	-0.471191	0.731086	-0.038841	-0.669100	-0.127710
24437		9.695420	0.493651	0.891687	0.073570	0.065521	-0.042499	-0.707275	-0.020508	-0.468506	0.731595	-0.037908	-0.668654	-0.127410
24438		9.896287	0.426208	0.828626	0.138307	0.023642	-0.011251	-0.713135	-0.026611	-0.479736	0.731833	-0.036705	-0.668681	-0.126251
24439		9.622263	0.847551	0.783187	0.299741	0.009090	0.027152	-0.711670	-0.031494	-0.474121	0.732081	-0.034362	-0.669069	-0.123382
24440		9.459813	1.268643	0.887450	0.350751	0.034322	0.032819	-0.703857	-0.025879	-0.468994	0.732559	-0.031557	-0.669293	-0.120034
24441		9.540128	1.359213	0.988092	0.294239	0.019000	0.019011	-0.701172	-0.041260	-0.476807	0.732853	-0.029191	-0.669564	-0.117300
24442		9.735046	0.947152	1.055363	0.286186	0.010071	0.045490	-0.707520	-0.041748	-0.487061	0.733103	-0.027114	-0.669883	-0.114370
24443		9.695731	1.066687	1.114458	0.258455	0.000138	0.099215	-0.702881	-0.040527	-0.483643	0.733331	-0.025762	-0.670223	-0.111188
24444		9.811525	1.411421	0.949751	0.175587	-0.016846	0.119505	-0.701172	-0.045410	-0.479004	0.733410	-0.025365	-0.670590	-0.108512
24445		9.763293	1.505205	1.043690	0.025247	-0.029300	0.095764	-0.708252	-0.043213	-0.471680	0.733301	-0.026158	-0.670875	-0.107299
24446		9.773872	1.235972	1.039639	-0.036162	-0.037974	0.095181	-0.703125	-0.036621	-0.475586	0.733092	-0.027522	-0.671160	-0.106597
24447		9.604469	0.759575	1.041972	-0.046761	-0.045487	0.112870	-0.709717	-0.035645	-0.476318	0.732840	-0.029148	-0.671487	-0.105836
24448		9.602292	0.795642	0.915613	-0.009882	-0.052453	0.112033	-0.710938	-0.029785	-0.479004	0.732539	-0.030435	-0.671926	-0.104764
24449		9.574872	0.873226	0.722357	-0.008085	-0.039251	0.086772	-0.716553	-0.020752	-0.471680	0.732316	-0.031482	-0.672252	-0.103922
24450		9.611029	0.875038	0.824039	0.028653	-0.052049	0.076149	-0.713379	-0.019775	-0.466553	0.731981	-0.032127	-0.672748	-0.102868
24451		9.571447	0.844119	0.918750	0.003570	-0.044257	0.063148	-0.714355	-0.031250	-0.463867	0.731683	-0.032881	-0.673146	-0.102144
24452		9.690967	0.675154	0.821927	0.015215	-0.044188	0.026128	-0.707275	-0.024902	-0.465088	0.731343	-0.033200	-0.673577	-0.101636
24453		9.656718	0.445929	0.911328	0.054767	-0.028573	0.008100	-0.714111	-0.029541	-0.468750	0.731129	-0.032994	-0.673917	-0.100983
24454		9.495831	0.437820	0.877913	0.123699	-0.047615	0.015036	-0.710938	-0.023193	-0.476074	0.730791	-0.032235	-0.674515	-0.099669
24455		9.512035	0.851587	0.920404	0.109275	-0.065338	-0.000260	-0.712158	-0.026855	-0.465332	0.730281	-0.031511	-0.675255	-0.098630
24456		9.381585	0.821919	0.795675	0.047841	-0.070873	-0.003400	-0.719971	-0.030762	-0.458740	0.729691	-0.031323	-0.675975	-0.098123
24457		9.157153	0.905541	0.740239	-0.018920	-0.080779	0.000812	-0.715088	-0.026855	-0.463135	0.728993	-0.031787	-0.676706	-0.098124
24458		8.902830	0.905167	1.183402	-0.186023	-0.095308	-0.021915	-0.713135	-0.027100	-0.457520	0.728077	-0.033604	-0.677365	-0.099754
24459		8.781562	0.425845	1.057388	-0.239319	-0.111422	-0.032947	-0.717285	-0.021240	-0.457031	0.726982	-0.035829	-0.678104	-0.101922
24460		8.609848	0.286582	0.461416	-0.098779	-0.117180	-0.022242	-0.719238	-0.018311	-0.459473	0.725909	-0.036879	-0.679064	-0.102805
24461		8.950666	0.763792	0.460100	-0.008384	-0.107794	-0.031557	-0.719971	-0.021729	-0.462646	0.724944	-0.037020	-0.680054	-0.103014
24462		9.722670	0.926764	0.693585	0.024580	-0.091701	-0.059138	-0.719727	-0.022949	-0.454590	0.724097	-0.036603	-0.680951	-0.103198
24463		9.381439	0.748619	1.157278	0.066933	-0.054154	-0.062025	-0.721924	-0.020996	-0.454346	0.723581	-0.035729	-0.681566	-0.103060
24464		8.506730	0.844580	0.949231	-0.021319	-0.047832	-0.030234	-0.718262	-0.028320	-0.458496	0.723121	-0.035920	-0.681994	-0.103396
24465		8.486751	0.700546	0.244480	-0.219318	-0.014468	-0.043432	-0.718018	-0.022705	-0.459717	0.722839	-0.037735	-0.681865	-0.105546
24466		9.763564	0.556970	0.044118	-0.107501	-0.003566	-0.053796	-0.725342	-0.014893	-0.461670	0.722685	-0.038443	-0.681785	-0.106849
24467		9.683951	0.757999	1.256638	0.084501	0.016527	-0.067058	-0.724365	-0.017334	-0.461670	0.722775	-0.037285	-0.681785	-0.106656
24468		8.477028	0.796513	1.495832	-0.027120	0.052893	-0.050554	-0.723145	-0.013428	-0.457764	0.723143	-0.037228	-0.681299	-0.107281
24469		9.330953	0.072981	0.441719	-0.145636	0.036936	-0.048390	-0.719727	-0.015625	-0.458496	0.723320	-0.038286	-0.680797	-0.108892
24470		10.429343	0.682172	0.132366	0.073260	0.032050	-0.013827	-0.718994	-0.014893	-0.461182	0.723607	-0.037661	-0.680619	-0.108317
24471		10.410386	0.458591	0.546327	0.387831	0.061053	-0.004070	-0.718994	-0.027832	-0.462646	0.724294	-0.034235	-0.680590	-0.104994
24472		9.880773	0.925974	0.777104	0.583707	0.048567	-0.025157	-0.711670	-0.028564	-0.468506	0.724904	-0.028859	-0.680917	-0.100168
24473		9.869299	1.638153	1.171958	0.573568	-0.006966	-0.046482	-0.720459	-0.045654	-0.460693	0.724977	-0.023472	-0.681700	-0.095617
24474		9.662530	1.292791	0.996316	0.328460	0.014806	0.002628	-0.718018	-0.041748	-0.471191	0.725194	-0.020682	-0.681965	-0.092683
24475		9.272409	1.239397	0.541906	0.094906	0.020167	0.123314	-0.720703	-0.026367	-0.462402	0.725533	-0.021045	-0.681863	-0.090676
24476		9.558237	1.201757	0.434363	0.006048	0.015304	0.147816	-0.724365	-0.039551	-0.460449	0.725827	-0.022446	-0.681698	-0.089220
24477		10.318698	1.035109	0.444117	0.024762	0.072372	0.118249	-0.722412	-0.037109	-0.466309	0.726574	-0.023338	-0.681049	-0.087850
24478		10.629022	1.024393	0.823434	0.058703	0.074571	0.096461	-0.718750	-0.034668	-0.466309	0.727326	-0.023735	-0.680418	-0.086398
24479		10.171146	0.621337	1.270036	0.074920	0.057625	0.098249	-0.717285	-0.035156	-0.476318	0.727939	-0.024019	-0.679955	-0.084789
24480		10.048277	0.631633	0.922972	0.070882	0.013387	0.133898	-0.712158	-0.022461	-0.477051	0.728214	-0.024690	-0.679871	-0.082884
24481		10.303509	1.016874	0.766428	-0.069417	-0.023792	0.153803	-0.720215	-0.023926	-0.479004	0.728149	-0.026863	-0.679965	-0.082007
24482		10.374541	0.656950	0.936220	-0.086629	-0.045538	0.130997	-0.714844	-0.019775	-0.465576	0.727864	-0.029014	-0.680247	-0.081462
24483		9.770482	0.492017	0.603915	0.069030	-0.034828	0.105069	-0.718262	-0.021484	-0.472168	0.727693	-0.029513	-0.680603	-0.079820
24484		10.157933	0.898612	-0.089967	0.147953	-0.067477	0.069699	-0.724121	-0.013672	-0.476562	0.727238	-0.029023	-0.681342	-0.077816
24485		10.865788	1.249344	0.819001	0.062723	-0.043002	0.040244	-0.718994	-0.027588	-0.467041	0.726931	-0.029047	-0.681780	-0.076837
24486		10.288053	0.125849	0.972152	-0.004441	-0.022726	0.025786	-0.715576	-0.025146	-0.466309	0.726754	-0.029514	-0.681982	-0.076531
24487		10.085593	0.803222	0.496144	0.100356	-0.054027	0.033163	-0.721924	-0.021484	-0.467041	0.726357	-0.029124	-0.682564	-0.075257
24488		10.439663	1.153213	0.601005	0.014806	-0.080872	0.013024	-0.717041	-0.022949	-0.467041	0.725678	-0.029371	-0.683315	-0.074893
24489		10.051334	0.624794	0.490105	-0.005275	-0.057550	0.009910	-0.717773	-0.016602	-0.469482	0.725190	-0.029750	-0.683833	-0.074741
24490		9.092681	0.414910	0.513445	0.083599	-0.022141	0.001121	-0.719482	-0.014160	-0.470215	0.725030	-0.029226	-0.684112	-0.073940
24491		9.418185	1.304659	0.669706	0.043296	-0.046215	-0.024392	-0.724365	-0.022217	-0.467285	0.724626	-0.028877	-0.684580	-0.073713
24492		9.430293	0.925024	0.724872	-0.058422	-0.024975	-0.034936	-0.716553	-0.013916	-0.466553	0.724354	-0.029326	-0.684771	-0.074438
24493		9.152532	0.473450	0.456971	0.027648	-0.035585	-0.024008	-0.729248	-0.019531	-0.462646	0.724034	-0.029113	-0.685127	-0.074348
24494		9.664406	0.677681	0.305038	0.114656	-0.036619	-0.028445	-0.722656	-0.020996	-0.464111	0.723727	-0.028063	-0.685585	-0.073524
24495		10.158386	1.000653	0.505435	0.053466	-0.048640	-0.042280	-0.724854	-0.017090	-0.463623	0.723284	-0.027462	-0.686094	-0.073356
24496		9.818820	0.777574	0.571628	-0.024965	-0.063213	-0.027271	-0.724121	-0.023193	-0.460938	0.722702	-0.027720	-0.686656	-0.073730
24497		10.030476	0.292072	0.378478	0.035788	-0.100646	0.003827	-0.731201	-0.015625	-0.456299	0.721847	-0.027721	-0.687604	-0.073275
