// Start Time: Unknown
// Update Rate: 40.0Hz
// Filter Profile: human (46.1)
// Firmware Version: 4.6.0
PacketCounter	SampleTimeFine	Acc_X	Acc_Y	Acc_Z	Gyr_X	Gyr_Y	Gyr_Z	Mag_X	Mag_Y	Mag_Z	Quat_q0	Quat_q1	Quat_q2	Quat_q3
23592		9.493025	-2.315253	0.818420	0.002831	0.009452	-0.002222	-0.554688	0.246826	-0.455078	0.735816	-0.174425	-0.654144	-0.015701
23593		9.510187	-2.317535	0.795100	-0.001684	0.008625	-0.005455	-0.552979	0.249023	-0.449707	0.735882	-0.174394	-0.654076	-0.015784
23594		9.497819	-2.276938	0.821112	0.007334	0.006414	-0.003976	-0.556641	0.248779	-0.452881	0.735946	-0.174298	-0.654030	-0.015774
23595		9.505256	-2.255365	0.833062	0.007951	0.007596	-0.003607	-0.544922	0.256348	-0.467285	0.736024	-0.174193	-0.653970	-0.015760
23596		9.505308	-2.270605	0.830159	0.004933	0.010423	-0.001878	-0.553223	0.249268	-0.448242	0.736120	-0.174125	-0.653880	-0.015764
23597		9.509989	-2.265946	0.820710	0.000322	0.011977	-0.001847	-0.553223	0.252686	-0.450439	0.736220	-0.174097	-0.653775	-0.015812
23598		9.506803	-2.341544	0.819540	-0.000911	0.009615	-0.002583	-0.551758	0.248779	-0.447998	0.736296	-0.174070	-0.653695	-0.015876
23599		9.498384	-2.324859	0.862470	0.004516	0.005926	-0.003868	-0.550049	0.248779	-0.451172	0.736352	-0.173987	-0.653653	-0.015895
23600		9.499124	-2.280185	0.840057	0.004257	0.003657	-0.003274	-0.543457	0.245361	-0.452393	0.736393	-0.173913	-0.653626	-0.015905
23601		9.495801	-2.307503	0.854113	0.003135	0.007626	-0.002116	-0.554932	0.248047	-0.452637	0.736465	-0.173854	-0.653560	-0.015925
23602		9.493089	-2.290960	0.845001	0.003136	0.009325	-0.004484	-0.554932	0.248535	-0.455566	0.736553	-0.173774	-0.653481	-0.015971
23603		9.484661	-2.318393	0.825656	-0.000971	0.003304	-0.006067	-0.550049	0.250244	-0.455078	0.736583	-0.173718	-0.653460	-0.016054
23604		9.509881	-2.303049	0.856631	0.008253	0.002624	-0.006034	-0.549561	0.248535	-0.456055	0.736626	-0.173585	-0.653447	-0.016055
23605		9.495122	-2.278365	0.859245	0.004510	0.000360	-0.006486	-0.558350	0.246582	-0.447998	0.736645	-0.173481	-0.653452	-0.016085
23606		9.500260	-2.272741	0.847344	0.005945	0.000129	-0.004921	-0.548584	0.251221	-0.461182	0.736661	-0.173369	-0.653464	-0.016097
23607		9.486629	-2.240423	0.860810	0.004563	0.001828	-0.003171	-0.552734	0.239258	-0.453613	0.736701	-0.173286	-0.653440	-0.016104
23608		9.486862	-2.255734	0.855972	0.003434	0.000951	-0.002183	-0.550293	0.249756	-0.455322	0.736728	-0.173195	-0.653433	-0.016124
23609		9.477103	-2.292306	0.824206	-0.004663	0.000806	-0.000838	-0.546143	0.248779	-0.463379	0.736738	-0.173204	-0.653417	-0.016197
23610		9.527035	-2.324963	0.817292	0.002717	0.001429	-0.001740	-0.548584	0.255859	-0.458984	0.736781	-0.173137	-0.653387	-0.016209
23611		9.499166	-2.337244	0.856684	0.007226	0.000091	-0.005856	-0.546875	0.250732	-0.458252	0.736804	-0.173023	-0.653391	-0.016212
23612		9.461922	-2.310459	0.850896	0.007994	-0.001341	-0.003069	-0.554443	0.248047	-0.447266	0.736822	-0.172925	-0.653398	-0.016175
23613		9.479007	-2.264649	0.841283	0.003944	-0.004199	-0.003706	-0.551025	0.255127	-0.457031	0.736778	-0.172862	-0.653464	-0.016181
23614		9.494522	-2.302754	0.833382	-0.002051	-0.001677	-0.004385	-0.542725	0.251953	-0.458740	0.736764	-0.172863	-0.653479	-0.016237
23615		9.489044	-2.345810	0.823697	0.001793	0.000630	-0.007112	-0.552979	0.242432	-0.449951	0.736793	-0.172809	-0.653458	-0.016283
23616		9.495301	-2.299505	0.833474	0.004253	-0.000210	-0.008256	-0.547363	0.256592	-0.456543	0.736781	-0.172687	-0.653503	-0.016329
23617		9.507534	-2.241122	0.842027	0.003433	0.000229	-0.004634	-0.548096	0.238770	-0.453613	0.736793	-0.172676	-0.653493	-0.016331
23618		9.505419	-2.272621	0.814263	-0.002717	-0.002879	-0.003163	-0.553223	0.245850	-0.455566	0.736766	-0.172629	-0.653534	-0.016380
23619		9.511335	-2.319090	0.830727	-0.005075	-0.002000	-0.005196	-0.550537	0.249512	-0.452148	0.736727	-0.172617	-0.653579	-0.016470
23620		9.491868	-2.315050	0.838973	-0.000924	-0.000799	-0.005371	-0.558350	0.251465	-0.460938	0.736698	-0.172607	-0.653613	-0.016525
23621		9.473080	-2.283228	0.818292	0.003535	-0.001429	-0.005444	-0.549072	0.246582	-0.455078	0.736685	-0.172539	-0.653646	-0.016536
23622		9.499811	-2.291852	0.848739	0.003996	0.000670	-0.005126	-0.545654	0.249756	-0.465088	0.736696	-0.172466	-0.653652	-0.016545
23623		9.501672	-2.314343	0.848906	-0.002769	-0.001924	-0.006391	-0.544922	0.242188	-0.449463	0.736725	-0.172457	-0.653620	-0.016601
23624		9.497939	-2.289375	0.831303	-0.002769	-0.001924	-0.006390	-0.556641	0.249023	-0.456299	0.736693	-0.172423	-0.653664	-0.016671
23625		9.453297	-2.267080	0.820417	-0.002103	0.000003	-0.005161	-0.552246	0.245361	-0.462402	0.736663	-0.172412	-0.653698	-0.016730
23626		9.559673	-2.290531	0.861443	-0.001693	0.001358	-0.005704	-0.548340	0.241943	-0.457764	0.736696	-0.172350	-0.653676	-0.016783
23627		9.490374	-2.269632	0.871907	-0.000462	-0.001122	-0.005135	-0.546143	0.249023	-0.453125	0.736709	-0.172265	-0.653683	-0.016818
23628		9.457667	-2.343139	0.808981	-0.006149	-0.007704	-0.005962	-0.558594	0.243408	-0.460449	0.736635	-0.172327	-0.653748	-0.016898
23629		9.493582	-2.279377	0.834379	0.000155	-0.007206	-0.005016	-0.551514	0.256836	-0.457031	0.736572	-0.172220	-0.653847	-0.016916
23630		9.507391	-2.261363	0.836734	-0.002821	0.000480	-0.004716	-0.553467	0.254883	-0.454590	0.736563	-0.172337	-0.653824	-0.016968
23631		9.501457	-2.301318	0.781408	-0.003846	0.000365	-0.004456	-0.555908	0.246338	-0.458496	0.736529	-0.172444	-0.653833	-0.017034
23632		9.499806	-2.319761	0.804697	0.002971	-0.002585	-0.007399	-0.551758	0.249512	-0.450195	0.736505	-0.172337	-0.653888	-0.017064
23633		9.489342	-2.318467	0.822600	0.003743	-0.007162	-0.007147	-0.551270	0.249512	-0.465576	0.736403	-0.172312	-0.654008	-0.017076
23634		9.500665	-2.300158	0.808334	0.005071	-0.001610	-0.007056	-0.555176	0.252197	-0.463379	0.736464	-0.172232	-0.653961	-0.017073
23635		9.502733	-2.321902	0.808691	0.003838	0.000147	-0.010073	-0.553711	0.241943	-0.449463	0.736494	-0.172176	-0.653941	-0.017117
23636		9.500503	-2.379153	0.810935	0.005577	0.001488	-0.013140	-0.546875	0.251465	-0.460938	0.736454	-0.171975	-0.654037	-0.017184
23637		9.495190	-2.296224	0.805093	0.009779	0.000295	-0.014984	-0.554688	0.252930	-0.451416	0.736530	-0.171866	-0.653980	-0.017209
23638		9.502067	-2.280138	0.804262	0.005168	-0.000587	-0.015040	-0.554199	0.234131	-0.463135	0.736459	-0.171834	-0.654066	-0.017287
23639		9.518935	-2.259434	0.824243	0.003068	-0.000839	-0.012933	-0.553467	0.246094	-0.456787	0.736511	-0.171492	-0.654096	-0.017356
23640		9.504469	-2.233370	0.825943	-0.003185	-0.000602	-0.013015	-0.554932	0.248779	-0.458984	0.736484	-0.171437	-0.654137	-0.017482
23641		9.507693	-2.258740	0.786269	-0.001190	0.002034	-0.011863	-0.553955	0.248535	-0.447266	0.736489	-0.171407	-0.654136	-0.017590
23642		9.509160	-2.291527	0.821801	-0.001296	0.003693	-0.011052	-0.551758	0.240234	-0.451172	0.736408	-0.171429	-0.654219	-0.017704
23643		9.514293	-2.268610	0.816035	-0.005405	0.007349	-0.012298	-0.554932	0.243408	-0.455078	0.736413	-0.171314	-0.654239	-0.017856
23644		9.509739	-2.282851	0.778696	-0.000327	0.006214	-0.009639	-0.549561	0.257812	-0.448242	0.736427	-0.171213	-0.654247	-0.017947
23645		9.504745	-2.236745	0.808139	0.001990	0.002175	-0.008551	-0.555176	0.248779	-0.454346	0.736361	-0.171453	-0.654257	-0.018022
23646		9.508076	-2.250229	0.819709	-0.001489	-0.000255	-0.009677	-0.558594	0.248291	-0.448486	0.736299	-0.171476	-0.654317	-0.018119
23647		9.496338	-2.257147	0.827300	-0.000204	-0.001268	-0.005802	-0.548340	0.242920	-0.456787	0.736150	-0.171515	-0.654474	-0.018173
23648		9.564008	-2.291329	0.794666	-0.005083	0.002117	-0.007465	-0.547852	0.252686	-0.447021	0.736196	-0.171478	-0.654429	-0.018261
23649		9.516903	-2.256596	0.818896	0.004144	0.001476	-0.007429	-0.552979	0.243652	-0.456299	0.736140	-0.171629	-0.654452	-0.018305
23650		9.503865	-2.271735	0.816719	0.000850	0.006140	-0.007397	-0.545410	0.243408	-0.456787	0.736188	-0.171532	-0.654421	-0.018360
23651		9.491912	-2.279022	0.825898	0.007009	0.003445	-0.004222	-0.547852	0.249268	-0.457764	0.736297	-0.171438	-0.654324	-0.018320
23652		9.515999	-2.228325	0.821923	0.000145	0.002489	-0.004675	-0.555908	0.252197	-0.460205	0.736359	-0.171539	-0.654227	-0.018364
23653		9.511445	-2.260127	0.778280	-0.003854	0.002781	-0.004368	-0.554932	0.249512	-0.456787	0.736366	-0.171702	-0.654174	-0.018458
23654		9.523269	-2.278075	0.800753	0.004952	0.005633	-0.003621	-0.547363	0.250977	-0.455566	0.736389	-0.171734	-0.654138	-0.018466
23655		9.501618	-2.294196	0.834645	0.008083	0.004308	-0.003618	-0.553467	0.242188	-0.464600	0.736456	-0.171819	-0.654041	-0.018443
23656		9.503753	-2.273001	0.812506	0.005211	0.004762	-0.006740	-0.549072	0.244629	-0.450928	0.736585	-0.171635	-0.653944	-0.018470
23657		9.489235	-2.280475	0.805101	0.004030	0.005560	-0.006532	-0.551270	0.250732	-0.452881	0.736594	-0.171577	-0.653949	-0.018479
23658		9.482372	-2.299398	0.796800	0.004749	0.005087	-0.006973	-0.552246	0.244873	-0.461426	0.736588	-0.171656	-0.653934	-0.018510
23659		9.516745	-2.259212	0.809280	0.006284	0.005626	-0.006136	-0.554688	0.249756	-0.451904	0.736692	-0.171554	-0.653844	-0.018522
23660		9.510751	-2.254018	0.817526	0.003310	0.006035	-0.006089	-0.548584	0.248047	-0.454346	0.736646	-0.171614	-0.653879	-0.018554
23661		9.509780	-2.260825	0.808105	0.001566	0.006390	-0.005390	-0.559570	0.252441	-0.452148	0.736688	-0.171681	-0.653813	-0.018592
23662		9.502000	-2.232142	0.816042	0.004026	0.006283	-0.004084	-0.553467	0.251221	-0.452393	0.736597	-0.171791	-0.653886	-0.018613
23663		9.510010	-2.258790	0.811077	0.002654	0.003126	-0.002508	-0.555908	0.250732	-0.459717	0.736540	-0.171929	-0.653913	-0.018620
23664		9.505116	-2.305626	0.848441	0.006647	0.004541	-0.005172	-0.553223	0.249512	-0.454102	0.736569	-0.171970	-0.653869	-0.018645
23665		9.495370	-2.309249	0.828449	0.001271	0.003374	-0.005655	-0.553711	0.246826	-0.449463	0.736537	-0.172044	-0.653884	-0.018687
23666		9.503929	-2.278834	0.850271	0.001165	0.004312	-0.007290	-0.549072	0.252441	-0.459229	0.736461	-0.172028	-0.653974	-0.018715
23667		9.521200	-2.263989	0.832053	0.003294	0.010165	-0.008363	-0.546143	0.242432	-0.459473	0.736583	-0.172170	-0.653795	-0.018818
23668		9.505289	-2.263388	0.819576	-0.000075	0.006790	-0.007859	-0.555664	0.244873	-0.462891	0.736721	-0.172084	-0.653661	-0.018889
23669		9.515726	-2.213210	0.817933	-0.000316	0.002814	-0.004905	-0.551270	0.244873	-0.459473	0.736769	-0.172038	-0.653617	-0.018956
23670		9.530429	-2.246733	0.851517	-0.002013	0.003910	-0.003349	-0.542969	0.248779	-0.453125	0.736821	-0.172046	-0.653555	-0.019007
23671		9.510937	-2.259486	0.855718	-0.001041	0.004008	-0.002021	-0.555420	0.244873	-0.453857	0.736868	-0.172215	-0.653457	-0.019022
23672		9.486547	-2.289173	0.821463	-0.004694	0.007333	-0.003037	-0.552490	0.249756	-0.454102	0.736835	-0.172215	-0.653493	-0.019073
23673		9.511451	-2.230865	0.829006	0.002285	0.004939	-0.001021	-0.553711	0.249512	-0.462158	0.736817	-0.172324	-0.653484	-0.019065
23674		9.494160	-2.227524	0.855173	0.001587	0.000563	-0.000747	-0.552002	0.252686	-0.451416	0.736847	-0.172424	-0.653423	-0.019088
23675		9.498104	-2.247513	0.827032	-0.000169	0.003340	0.000033	-0.554688	0.250732	-0.461914	0.736778	-0.172636	-0.653446	-0.019083
23676		9.520142	-2.306220	0.809253	0.004633	0.006493	0.001095	-0.554932	0.249268	-0.452881	0.736850	-0.172741	-0.653337	-0.019084
23677		9.508148	-2.330832	0.813502	0.008638	0.005487	-0.001646	-0.551270	0.250732	-0.457764	0.736814	-0.172733	-0.653382	-0.019015
23678		9.488869	-2.287171	0.845324	0.007115	0.002523	-0.002567	-0.555420	0.251221	-0.454590	0.736837	-0.172803	-0.653337	-0.018996
23679		9.487546	-2.278509	0.840745	0.005266	0.003814	-0.003505	-0.547607	0.245850	-0.456787	0.736791	-0.172862	-0.653374	-0.018983
23680		9.486199	-2.269886	0.836322	0.007724	0.003710	-0.002197	-0.548096	0.250000	-0.458496	0.736859	-0.172816	-0.653311	-0.018931
23681		9.502103	-2.264717	0.806138	0.002916	0.001277	-0.000817	-0.555664	0.246826	-0.460449	0.736901	-0.172941	-0.653230	-0.018929
23682		9.521951	-2.297415	0.872522	0.002017	-0.001946	-0.006256	-0.548828	0.249023	-0.458984	0.736873	-0.172894	-0.653273	-0.018974
23683		9.525209	-2.311295	0.884173	-0.004265	0.004822	-0.008551	-0.556396	0.241211	-0.459717	0.736927	-0.172988	-0.653183	-0.019106
23684		9.486718	-2.305143	0.816785	-0.003240	0.004943	-0.008806	-0.549805	0.248535	-0.458496	0.736942	-0.172816	-0.653210	-0.019208
23685		9.496903	-2.238323	0.820804	-0.001361	0.008527	-0.009283	-0.550293	0.250732	-0.455322	0.737017	-0.172857	-0.653110	-0.019322
23686		9.511177	-2.251375	0.814944	-0.003656	0.006011	-0.008180	-0.558594	0.240479	-0.460205	0.737020	-0.172978	-0.653072	-0.019428
23687		9.518678	-2.288702	0.844334	-0.006110	0.004410	-0.007128	-0.550293	0.240479	-0.456299	0.737008	-0.172820	-0.653123	-0.019539
23688		9.493777	-2.269104	0.825308	-0.000193	0.000437	-0.008152	-0.557129	0.250732	-0.458496	0.737006	-0.172648	-0.653170	-0.019573
23689		9.497513	-2.255430	0.807894	0.004247	0.002979	-0.005687	-0.554688	0.242188	-0.457764	0.736978	-0.172687	-0.653191	-0.019608
23690		9.499512	-2.264979	0.860268	0.005068	0.003273	-0.006850	-0.549072	0.248047	-0.459473	0.736986	-0.172505	-0.653230	-0.019614
23691		9.503198	-2.251075	0.843985	0.008532	0.007423	-0.008070	-0.544678	0.252197	-0.462891	0.737090	-0.172464	-0.653123	-0.019632
23692		9.525120	-2.275733	0.837547	0.006442	0.004733	-0.006060	-0.543457	0.249268	-0.461914	0.737232	-0.172589	-0.652928	-0.019667
23693		9.512107	-2.235058	0.862759	0.005826	0.004267	-0.003987	-0.551758	0.247559	-0.454590	0.737371	-0.172669	-0.652750	-0.019674
23694		9.501844	-2.266834	0.871729	-0.004672	0.002479	-0.003208	-0.551514	0.244385	-0.455566	0.737320	-0.172754	-0.652784	-0.019715
23695		9.479625	-2.263779	0.863792	-0.000862	-0.000053	-0.004494	-0.557617	0.248779	-0.459473	0.737277	-0.172717	-0.652841	-0.019730
23696		9.493797	-2.277932	0.856446	-0.000050	0.000962	-0.003216	-0.555664	0.245117	-0.459717	0.737228	-0.172765	-0.652883	-0.019771
23697		9.487080	-2.254333	0.822732	0.002726	-0.000971	-0.001806	-0.553955	0.249268	-0.458252	0.737198	-0.172721	-0.652929	-0.019762
23698		9.508484	-2.264247	0.820237	0.003418	0.003408	-0.002078	-0.552002	0.250244	-0.463867	0.737196	-0.172775	-0.652917	-0.019760
23699		9.493962	-2.319728	0.881910	0.004860	0.002465	-0.002956	-0.541992	0.251221	-0.459229	0.737263	-0.172846	-0.652822	-0.019781
23700		9.492786	-2.267427	0.853148	0.007372	0.002387	-0.003229	-0.555420	0.253906	-0.459473	0.737365	-0.172956	-0.652678	-0.019747
23701		9.496693	-2.270589	0.830351	0.004268	-0.001148	-0.003407	-0.559814	0.246826	-0.462402	0.737315	-0.173084	-0.652701	-0.019752
23702		9.518251	-2.280178	0.827014	0.003721	-0.004018	-0.003001	-0.552734	0.244141	-0.458740	0.737249	-0.173049	-0.652784	-0.019769
23703		9.505944	-2.315373	0.863413	-0.007409	-0.001164	-0.007226	-0.552979	0.245361	-0.454590	0.737209	-0.173047	-0.652827	-0.019883
23704		9.495181	-2.310593	0.835762	-0.003908	-0.002583	-0.011051	-0.548096	0.251465	-0.461426	0.737117	-0.172999	-0.652940	-0.019974
23705		9.483715	-2.273455	0.819158	0.002017	-0.000234	-0.008604	-0.548340	0.247070	-0.453613	0.737160	-0.173090	-0.652866	-0.020045
23706		9.506248	-2.257363	0.833055	-0.000776	0.004124	-0.009930	-0.547119	0.252686	-0.457031	0.737156	-0.173078	-0.652872	-0.020104
23707		9.522526	-2.293839	0.827205	-0.005922	0.007642	-0.010931	-0.546387	0.244873	-0.456543	0.737204	-0.173244	-0.652769	-0.020254
23708		9.485980	-2.298224	0.811332	0.000722	0.003207	-0.012387	-0.550537	0.245850	-0.452881	0.737244	-0.173163	-0.652743	-0.020333
23709		9.484360	-2.255609	0.816953	0.007142	0.000385	-0.009871	-0.553223	0.246582	-0.451904	0.737202	-0.173041	-0.652823	-0.020314
23710		9.528848	-2.225747	0.844384	0.008102	0.001206	-0.006103	-0.550049	0.249268	-0.457031	0.737138	-0.172949	-0.652921	-0.020257
23711		9.529984	-2.256097	0.834312	-0.001535	0.002147	-0.007990	-0.564941	0.250732	-0.456787	0.737134	-0.173019	-0.652905	-0.020335
23712		9.503181	-2.256080	0.839216	-0.000011	0.004399	-0.009506	-0.553711	0.249756	-0.461670	0.737030	-0.173023	-0.653018	-0.020439
23713		9.497289	-2.207021	0.822735	-0.002632	0.004427	-0.006070	-0.553467	0.247314	-0.465088	0.737061	-0.173119	-0.652953	-0.020547
23714		9.502631	-2.261526	0.829932	-0.002118	0.003142	-0.002622	-0.553223	0.243896	-0.455078	0.737124	-0.173193	-0.652861	-0.020632
23715		9.555342	-2.276265	0.846043	-0.001404	0.004378	-0.005415	-0.551270	0.252686	-0.459229	0.737105	-0.173141	-0.652894	-0.020666
23716		9.502171	-2.270719	0.866628	-0.004806	0.007546	-0.007109	-0.547607	0.242432	-0.455078	0.737145	-0.173311	-0.652800	-0.020794
23717		9.484713	-2.259298	0.801583	0.000213	0.001804	-0.008678	-0.553467	0.246582	-0.458496	0.737154	-0.173207	-0.652817	-0.020826
23718		9.497844	-2.224477	0.810899	0.003523	0.003465	-0.005234	-0.550781	0.247803	-0.459961	0.737165	-0.173176	-0.652812	-0.020844
23719		9.490790	-2.231655	0.853310	0.006938	0.004187	-0.000159	-0.547119	0.249512	-0.458496	0.737222	-0.173194	-0.652745	-0.020797
23720		9.535357	-2.275747	0.849438	-0.006263	0.009206	-0.003794	-0.556152	0.247070	-0.458008	0.737299	-0.173350	-0.652613	-0.020892
23721		9.520108	-2.308687	0.825434	0.000135	0.003218	-0.002220	-0.554199	0.243408	-0.462646	0.737272	-0.173369	-0.652638	-0.020911
23722		9.497024	-2.273580	0.828666	0.007747	0.000596	-0.004698	-0.555420	0.245117	-0.448486	0.737305	-0.173240	-0.652635	-0.020901
23723		9.479695	-2.309547	0.833006	0.007845	0.001364	-0.005421	-0.552246	0.242432	-0.456543	0.737198	-0.173113	-0.652792	-0.020823
23724		9.509329	-2.289358	0.851636	0.010778	0.000228	-0.006313	-0.553467	0.248047	-0.456787	0.737193	-0.172925	-0.652849	-0.020759
23725		9.495697	-2.272316	0.859926	0.008356	0.002775	-0.009119	-0.545654	0.242432	-0.457275	0.737188	-0.172854	-0.652874	-0.020768
23726		9.505336	-2.245592	0.842138	0.003409	0.006114	-0.009216	-0.552979	0.249756	-0.454102	0.737269	-0.172740	-0.652811	-0.020793
23727		9.503624	-2.260100	0.821484	0.004603	0.003617	-0.007063	-0.554688	0.249023	-0.459473	0.737237	-0.172763	-0.652841	-0.020810
23728		9.506013	-2.241901	0.844329	-0.000563	0.002249	-0.006657	-0.549561	0.252930	-0.458252	0.737222	-0.172818	-0.652842	-0.020886
23729		9.511209	-2.235991	0.832456	-0.005273	0.002267	-0.008369	-0.554688	0.249512	-0.461182	0.737215	-0.172999	-0.652797	-0.021015
23730		9.497880	-2.275469	0.813287	-0.004873	0.003630	-0.008906	-0.547363	0.256104	-0.455322	0.737216	-0.173083	-0.652768	-0.021160
23731		9.498773	-2.249578	0.830333	0.003424	0.002703	-0.004506	-0.543701	0.242188	-0.458008	0.737217	-0.173278	-0.652715	-0.021174
23732		9.504743	-2.236251	0.830052	0.002947	0.003743	-0.002304	-0.552002	0.245605	-0.462402	0.737299	-0.173225	-0.652639	-0.021136
23733		9.522344	-2.241912	0.851751	-0.000514	0.006883	-0.002421	-0.550781	0.244141	-0.459473	0.737371	-0.173250	-0.652548	-0.021182
23734		9.493182	-2.303280	0.859540	-0.006979	0.008952	-0.005797	-0.547607	0.245605	-0.453369	0.737429	-0.173275	-0.652473	-0.021293
23735		9.472463	-2.307560	0.858683	-0.000184	0.006042	-0.007107	-0.552002	0.252197	-0.450928	0.737442	-0.173257	-0.652462	-0.021320
23736		9.494071	-2.272675	0.833086	0.009011	0.003013	-0.005528	-0.546631	0.245361	-0.456787	0.737389	-0.173284	-0.652517	-0.021272
23737		9.559188	-2.237409	0.862953	0.011169	-0.003274	-0.005426	-0.555664	0.246338	-0.461426	0.737388	-0.173181	-0.652547	-0.021187
23738		9.508887	-2.204238	0.869689	0.003228	0.001170	-0.003058	-0.549805	0.255859	-0.459961	0.737384	-0.173167	-0.652555	-0.021195
23739		9.474480	-2.334305	0.850504	-0.002611	0.001999	-0.006150	-0.548096	0.248779	-0.448486	0.737386	-0.173391	-0.652490	-0.021303
23740		9.474290	-2.233194	0.853268	0.000135	-0.002378	-0.003242	-0.547363	0.248047	-0.461914	0.737284	-0.173454	-0.652590	-0.021260
23741		9.531826	-2.200205	0.831928	-0.001311	-0.001440	-0.002369	-0.541016	0.246582	-0.447266	0.737308	-0.173550	-0.652536	-0.021293
23742		9.532826	-2.231881	0.821778	-0.003591	0.006506	-0.001664	-0.553467	0.241211	-0.460938	0.737313	-0.173637	-0.652509	-0.021265
23743		9.492112	-2.362084	0.855554	-0.003414	0.004871	-0.004049	-0.547607	0.244385	-0.452881	0.737345	-0.173565	-0.652490	-0.021311
23744		9.462714	-2.322994	0.865445	0.005952	0.001920	-0.007205	-0.549805	0.252197	-0.456299	0.737338	-0.173460	-0.652527	-0.021273
23745		9.491185	-2.307499	0.827577	0.005790	0.002837	-0.007255	-0.552490	0.245850	-0.457275	0.737340	-0.173516	-0.652509	-0.021301
23746		9.495025	-2.293212	0.810448	0.006024	0.001228	-0.011217	-0.554688	0.244141	-0.450928	0.737329	-0.173397	-0.652552	-0.021330
23747		9.514807	-2.263899	0.858146	0.011422	-0.005593	-0.011817	-0.558350	0.251953	-0.457764	0.737209	-0.173181	-0.652747	-0.021273
23748		9.511714	-2.212971	0.856356	0.002207	-0.005743	-0.014337	-0.553467	0.251221	-0.456543	0.737092	-0.173189	-0.652873	-0.021394
23749		9.521084	-2.250445	0.798504	0.006820	-0.002630	-0.008526	-0.549316	0.246094	-0.458008	0.737037	-0.173205	-0.652931	-0.021418
23750		9.514424	-2.256085	0.840049	0.005078	0.002591	-0.009250	-0.554688	0.250977	-0.456055	0.737067	-0.173142	-0.652912	-0.021445
23751		9.520698	-2.241322	0.839702	0.001638	0.003299	-0.009453	-0.560547	0.242432	-0.458496	0.737038	-0.173188	-0.652930	-0.021530
23752		9.497246	-2.229327	0.826773	0.002402	0.003574	-0.009032	-0.552734	0.239502	-0.451904	0.737009	-0.173038	-0.653001	-0.021569
23753		9.517021	-2.213932	0.824258	0.000664	0.002206	-0.005993	-0.542725	0.251465	-0.455078	0.736967	-0.172896	-0.653087	-0.021540
23754		9.534597	-2.286650	0.852818	-0.008567	0.002767	-0.006083	-0.558594	0.246338	-0.462158	0.736981	-0.173126	-0.653006	-0.021673
23755		9.495117	-2.320584	0.848810	-0.004372	0.004047	-0.007808	-0.547852	0.240234	-0.453857	0.736978	-0.173138	-0.653002	-0.021793
23756		9.508507	-2.257599	0.828597	-0.002347	0.002842	-0.011599	-0.550781	0.249268	-0.459717	0.736979	-0.173010	-0.653033	-0.021847
23757		9.484531	-2.188990	0.842177	0.006634	0.000723	-0.008487	-0.550293	0.246582	-0.464111	0.736999	-0.173003	-0.653012	-0.021877
23758		9.497956	-2.170130	0.845957	-0.004526	0.003253	-0.005508	-0.554688	0.251709	-0.458740	0.737056	-0.173071	-0.652926	-0.021972
23759		9.600282	-2.292237	0.852345	-0.010807	0.005854	-0.005545	-0.552002	0.245361	-0.462891	0.737044	-0.173280	-0.652878	-0.022143
23760		9.474287	-2.225941	0.840867	-0.007679	0.001384	-0.006465	-0.559082	0.242920	-0.457031	0.737059	-0.173339	-0.652841	-0.022262
23761		9.481877	-2.327998	0.831050	-0.012524	-0.000121	-0.008312	-0.543945	0.245605	-0.456543	0.736967	-0.173354	-0.652936	-0.022408
23762		9.482379	-2.326233	0.830272	0.004844	-0.004556	-0.007246	-0.549805	0.250977	-0.455566	0.736962	-0.173316	-0.652953	-0.022385
23763		9.512258	-2.129268	0.854100	0.000380	0.000901	-0.008605	-0.556885	0.249268	-0.459717	0.736942	-0.173392	-0.652953	-0.022459
23764		9.513925	-2.240440	0.800951	0.005304	0.003893	-0.005046	-0.544922	0.243652	-0.459961	0.736951	-0.173398	-0.652941	-0.022480
23765		9.530708	-2.253755	0.811533	0.011105	0.002333	-0.002811	-0.549072	0.236572	-0.457764	0.737039	-0.173300	-0.652871	-0.022383
23766		9.500384	-2.270333	0.880522	0.011404	0.002929	-0.002625	-0.555420	0.248291	-0.453613	0.737099	-0.173054	-0.652873	-0.022238
23767		9.507111	-2.312812	0.853499	-0.002065	0.004159	-0.008976	-0.558350	0.244873	-0.455078	0.737053	-0.173088	-0.652912	-0.022331
23768		9.484439	-2.248875	0.826843	0.003704	-0.002030	-0.010965	-0.560791	0.247070	-0.457520	0.736969	-0.172982	-0.653035	-0.022371
23769		9.496789	-2.261429	0.803216	0.012374	0.001856	-0.011794	-0.552246	0.243408	-0.457275	0.736937	-0.172826	-0.653111	-0.022380
23770		9.515929	-2.188811	0.827877	0.013392	0.000993	-0.007263	-0.552979	0.241455	-0.452148	0.736954	-0.172657	-0.653139	-0.022301
23771		9.536155	-2.189656	0.820218	0.003418	0.002722	-0.004491	-0.557373	0.246094	-0.456299	0.736926	-0.172571	-0.653196	-0.022262
23772		9.507852	-2.226809	0.843621	-0.000245	0.004312	-0.003171	-0.552002	0.241211	-0.467529	0.736902	-0.172604	-0.653213	-0.022290
23773		9.489379	-2.228480	0.812977	0.000491	0.002134	-0.001258	-0.551025	0.253174	-0.458252	0.736981	-0.172557	-0.653137	-0.022265
23774		9.502973	-2.227144	0.811637	0.002782	0.002964	0.000002	-0.556152	0.253174	-0.458496	0.736994	-0.172728	-0.653077	-0.022268
23775		9.519915	-2.284794	0.845886	0.000288	0.002307	-0.002163	-0.547852	0.249756	-0.457764	0.736968	-0.172887	-0.653062	-0.022319
23776		9.496209	-2.277634	0.878098	0.003391	0.000268	-0.002996	-0.550537	0.248779	-0.457031	0.736978	-0.172969	-0.653029	-0.022313
23777		9.494180	-2.249605	0.833107	-0.000752	0.008771	-0.005672	-0.557373	0.250732	-0.456055	0.737029	-0.173040	-0.652951	-0.022379
23778		9.515170	-2.242548	0.837533	0.002333	0.007450	-0.004073	-0.543213	0.243896	-0.456787	0.737028	-0.173110	-0.652932	-0.022420
23779		9.499252	-2.242975	0.824601	0.003281	0.006094	-0.006032	-0.556641	0.250000	-0.458252	0.737109	-0.173070	-0.652851	-0.022410
23780		9.496780	-2.201839	0.830396	0.001236	0.000951	-0.004122	-0.555420	0.241455	-0.461182	0.737072	-0.173141	-0.652874	-0.022447
23781		9.568601	-2.230156	0.872786	0.001389	0.003924	-0.000703	-0.548340	0.249512	-0.459961	0.737097	-0.173092	-0.652859	-0.022415
23782		9.491929	-2.205580	0.844128	-0.006673	0.004396	0.001428	-0.552490	0.242432	-0.457031	0.737130	-0.173291	-0.652767	-0.022463
23783		9.489908	-2.290448	0.830354	-0.002939	0.001122	0.000883	-0.555908	0.244629	-0.463379	0.737109	-0.173314	-0.652786	-0.022433
23784		9.495147	-2.264884	0.880370	0.001477	0.001522	-0.002361	-0.551758	0.249756	-0.456299	0.737123	-0.173303	-0.652773	-0.022434
23785		9.498728	-2.225315	0.833507	-0.002042	0.002912	0.001437	-0.554688	0.241455	-0.462646	0.737110	-0.173447	-0.652750	-0.022433
23786		9.516713	-2.244464	0.803884	0.004404	0.004289	0.000125	-0.549561	0.242432	-0.458740	0.737158	-0.173376	-0.652717	-0.022371
23787		9.507525	-2.268996	0.824204	0.005237	0.002881	0.001317	-0.545410	0.250488	-0.452637	0.737195	-0.173332	-0.652689	-0.022273
23788		9.498639	-2.269251	0.860918	0.005931	0.004844	0.000967	-0.558105	0.245605	-0.457764	0.737221	-0.173420	-0.652638	-0.022199
23789		9.480022	-2.271604	0.830635	0.002985	0.002794	0.000911	-0.551514	0.247803	-0.450684	0.737197	-0.173428	-0.652666	-0.022152
23790		9.477504	-2.272295	0.814440	0.006921	-0.000653	0.001273	-0.560059	0.250488	-0.454590	0.737139	-0.173452	-0.652729	-0.022047
23791		9.506265	-2.280664	0.862453	0.005353	0.002933	-0.001833	-0.550781	0.249023	-0.460205	0.737084	-0.173492	-0.652780	-0.022030
23792		9.496039	-2.269177	0.847655	0.000615	0.005359	-0.003470	-0.559326	0.249023	-0.455566	0.737127	-0.173555	-0.652715	-0.022061
23793		9.507022	-2.224118	0.806221	0.002963	0.006217	-0.003783	-0.556396	0.245117	-0.457031	0.737106	-0.173573	-0.652732	-0.022078
23794		9.504354	-2.251477	0.819942	0.005587	0.000332	-0.001008	-0.550293	0.252686	-0.461670	0.737073	-0.173533	-0.652783	-0.022010
23795		9.502902	-2.246528	0.860230	-0.002321	0.001597	-0.001180	-0.557129	0.249268	-0.447510	0.737086	-0.173703	-0.652721	-0.022061
23796		9.515269	-2.277960	0.831229	-0.004796	0.002400	-0.000063	-0.542969	0.240479	-0.455811	0.736979	-0.173825	-0.652809	-0.022074
23797		9.480456	-2.309140	0.815150	0.001447	0.003951	-0.002277	-0.548584	0.249756	-0.457520	0.737033	-0.173754	-0.652769	-0.021999
23798		9.502610	-2.269991	0.846039	0.004724	0.004170	-0.002117	-0.550293	0.253174	-0.448242	0.737068	-0.173801	-0.652718	-0.021976
23799		9.508392	-2.256856	0.846198	0.000189	0.006423	-0.002851	-0.549561	0.246338	-0.452881	0.737040	-0.173937	-0.652713	-0.022011
23800		9.497278	-2.256776	0.865898	0.000251	0.001564	-0.003017	-0.549072	0.250732	-0.452881	0.737012	-0.173955	-0.652740	-0.021991
23801		9.496429	-2.264708	0.855202	-0.002118	0.001425	-0.000274	-0.552246	0.244873	-0.455811	0.736978	-0.174095	-0.652741	-0.022002
23802		9.499160	-2.236525	0.842979	0.000326	0.003052	-0.001307	-0.547363	0.250000	-0.460693	0.736971	-0.174089	-0.652751	-0.021965
23803		9.539405	-2.284429	0.851011	0.005353	0.002936	-0.001829	-0.551514	0.251221	-0.457275	0.737023	-0.174134	-0.652681	-0.021939
23804		9.492231	-2.283878	0.864551	-0.000767	0.004607	-0.001830	-0.551025	0.248047	-0.455566	0.737032	-0.174245	-0.652640	-0.021974
23805		9.475050	-2.253009	0.860941	0.002572	-0.000032	-0.001836	-0.553223	0.245850	-0.459961	0.737005	-0.174270	-0.652665	-0.021939
23806		9.490243	-2.256314	0.818884	0.003046	-0.002063	0.000747	-0.548096	0.242432	-0.460693	0.736982	-0.174269	-0.652694	-0.021865
23807		9.492662	-2.255735	0.835659	0.007278	-0.000027	-0.000112	-0.550781	0.240234	-0.452637	0.737018	-0.174174	-0.652683	-0.021737
23808		9.517742	-2.297306	0.839805	0.007247	0.002403	-0.000029	-0.558350	0.249756	-0.461182	0.737013	-0.174037	-0.652730	-0.021582
23809		9.514401	-2.308961	0.858604	0.004958	0.001570	-0.001292	-0.542969	0.251221	-0.451172	0.737002	-0.174057	-0.652738	-0.021557
23810		9.491779	-2.263076	0.827044	0.006377	0.003068	-0.002076	-0.553955	0.246094	-0.468018	0.737018	-0.174122	-0.652705	-0.021516
23811		9.492370	-2.278762	0.823017	0.005427	0.004426	-0.000118	-0.555176	0.245605	-0.458984	0.737097	-0.174089	-0.652627	-0.021455
23812		9.512423	-2.283658	0.860551	0.003555	-0.003820	-0.003874	-0.550049	0.251221	-0.450684	0.737042	-0.174040	-0.652702	-0.021413
23813		9.485664	-2.257989	0.834909	0.000395	0.001366	-0.000536	-0.545898	0.243408	-0.458984	0.736994	-0.174156	-0.652726	-0.021409
23814		9.506218	-2.276409	0.821616	-0.005426	0.003633	-0.000356	-0.547607	0.252441	-0.455811	0.737029	-0.174195	-0.652676	-0.021391
23815		9.484995	-2.309545	0.849509	0.000556	0.005335	-0.001894	-0.552490	0.251465	-0.455811	0.737055	-0.174315	-0.652615	-0.021417
23816		9.499565	-2.299302	0.859923	0.000247	0.006449	-0.004426	-0.550537	0.254639	-0.460205	0.737066	-0.174387	-0.652581	-0.021467
23817		9.496467	-2.306966	0.833212	-0.002308	0.002588	-0.005958	-0.548096	0.243896	-0.456299	0.737071	-0.174525	-0.652535	-0.021573
23818		9.491410	-2.290541	0.804907	0.001461	-0.003114	-0.006579	-0.544922	0.243896	-0.455566	0.737036	-0.174451	-0.652595	-0.021541
23819		9.497679	-2.252643	0.819822	0.004659	0.000975	-0.001475	-0.551270	0.243652	-0.457275	0.737054	-0.174395	-0.652593	-0.021441
23820		9.501687	-2.259171	0.843026	0.005876	0.002646	-0.003163	-0.545654	0.245850	-0.450684	0.737068	-0.174297	-0.652606	-0.021356
23821		9.507860	-2.289220	0.867149	0.002365	0.005026	-0.004149	-0.551270	0.246094	-0.454102	0.737079	-0.174278	-0.652600	-0.021325
23822		9.499871	-2.301099	0.853148	-0.004326	0.007954	-0.006018	-0.557617	0.239014	-0.458740	0.737093	-0.174295	-0.652578	-0.021383
23823		9.479456	-2.278439	0.822816	0.001009	0.006729	-0.004003	-0.550049	0.248291	-0.464355	0.737112	-0.174143	-0.652599	-0.021318
23824		9.487691	-2.264478	0.839578	0.000945	0.003529	-0.003365	-0.545410	0.246094	-0.454590	0.737163	-0.174155	-0.652538	-0.021309
23825		9.528228	-2.311616	0.846996	0.004643	-0.003661	-0.005693	-0.549805	0.251221	-0.459473	0.737130	-0.174107	-0.652591	-0.021259
23826		9.500979	-2.272164	0.872040	0.002561	-0.001494	-0.005115	-0.550537	0.252686	-0.456299	0.737113	-0.174150	-0.652597	-0.021273
23827		9.490970	-2.260287	0.856081	-0.004155	0.002151	-0.004557	-0.550781	0.246826	-0.452148	0.737090	-0.174288	-0.652584	-0.021362
23828		9.490225	-2.267908	0.845447	-0.002225	0.002364	-0.001902	-0.546875	0.247314	-0.461670	0.737054	-0.174338	-0.652611	-0.021360
23829		9.487457	-2.227679	0.850857	0.000623	0.003651	-0.001121	-0.551514	0.247803	-0.458740	0.737107	-0.174363	-0.652546	-0.021322
23830		9.505132	-2.298314	0.834263	0.002347	0.000861	-0.000309	-0.550781	0.247559	-0.455078	0.737102	-0.174385	-0.652548	-0.021270
23831		9.504683	-2.349759	0.847424	0.003334	-0.002926	-0.002347	-0.554932	0.248535	-0.456299	0.737051	-0.174386	-0.652607	-0.021219
23832		9.472678	-2.287792	0.855438	0.002836	-0.000176	-0.002501	-0.553955	0.249268	-0.466309	0.737009	-0.174397	-0.652651	-0.021193
23833		9.487586	-2.342052	0.826926	0.000074	0.001018	-0.006348	-0.546387	0.254883	-0.459717	0.737030	-0.174393	-0.652628	-0.021222
23834		9.489723	-2.323688	0.849292	0.006852	0.000576	-0.007542	-0.545898	0.250244	-0.460449	0.737054	-0.174430	-0.652590	-0.021248
23835		9.493257	-2.337026	0.861155	0.000920	0.000604	-0.009927	-0.553467	0.240967	-0.455078	0.737073	-0.174431	-0.652566	-0.021306
23836		9.499270	-2.278383	0.835556	0.005183	-0.002957	-0.011799	-0.549072	0.242920	-0.456787	0.737018	-0.174230	-0.652683	-0.021270
23837		9.502628	-2.247655	0.822396	0.003170	-0.002477	-0.010450	-0.552002	0.242920	-0.450684	0.736990	-0.174096	-0.652751	-0.021250
23838		9.515079	-2.263500	0.844013	0.003397	-0.000192	-0.011036	-0.551514	0.243896	-0.452148	0.736936	-0.173968	-0.652847	-0.021254
23839		9.495542	-2.282766	0.836414	0.001705	0.000167	-0.011929	-0.549072	0.244385	-0.460205	0.736891	-0.173864	-0.652924	-0.021288
23840		9.485243	-2.250387	0.780062	-0.000106	0.000473	-0.009676	-0.550781	0.248291	-0.459473	0.736899	-0.173784	-0.652936	-0.021299
23841		9.502911	-2.305598	0.814307	-0.001476	0.003886	-0.011876	-0.553955	0.249512	-0.450195	0.736917	-0.173761	-0.652918	-0.021391
23842		9.483387	-2.303682	0.869619	0.003824	0.005099	-0.009778	-0.551514	0.247070	-0.454834	0.736893	-0.173753	-0.652945	-0.021465
23843		9.509740	-2.290617	0.860241	-0.000745	-0.002927	-0.014175	-0.547852	0.250000	-0.453613	0.736830	-0.173703	-0.653027	-0.021559
23844		9.487339	-2.294029	0.840287	0.006081	-0.004326	-0.012169	-0.550293	0.246826	-0.459229	0.736778	-0.173663	-0.653095	-0.021602
23845		9.496436	-2.250438	0.825543	0.001411	-0.003600	-0.013041	-0.560059	0.245117	-0.462891	0.736744	-0.173589	-0.653150	-0.021652
23846		9.488499	-2.220194	0.831461	-0.000085	0.002934	-0.011161	-0.551025	0.248291	-0.457520	0.736742	-0.173497	-0.653176	-0.021706
23847		9.545804	-2.212282	0.841111	-0.003721	0.005254	-0.009003	-0.554443	0.245361	-0.453369	0.736758	-0.173532	-0.653145	-0.021800
23848		9.537776	-2.275216	0.839985	-0.000540	0.004715	-0.008118	-0.550293	0.254395	-0.453125	0.736743	-0.173508	-0.653167	-0.021849
23849		9.459099	-2.252848	0.839542	-0.004000	-0.000231	-0.007778	-0.546143	0.246094	-0.458252	0.736690	-0.173666	-0.653180	-0.021993
23850		9.497887	-2.248321	0.816647	-0.005777	0.000815	-0.004675	-0.555908	0.250244	-0.459961	0.736693	-0.173725	-0.653160	-0.022025
23851		9.504290	-2.278212	0.840212	0.005034	0.004075	-0.004345	-0.547607	0.255371	-0.455811	0.736712	-0.173733	-0.653136	-0.022023
23852		9.493679	-2.198665	0.817438	0.002554	0.004867	-0.003236	-0.550781	0.249268	-0.451904	0.736741	-0.173872	-0.653065	-0.022078
23853		9.505437	-2.241038	0.824172	0.000648	0.004398	-0.000267	-0.550537	0.251465	-0.461426	0.736734	-0.173960	-0.653050	-0.022070
23854		9.556957	-2.318303	0.889077	-0.012184	0.007497	-0.005427	-0.553467	0.252686	-0.449219	0.736770	-0.174139	-0.652955	-0.022232
23855		9.524839	-2.441881	0.780138	-0.019982	0.014677	-0.014925	-0.549805	0.247314	-0.456299	0.736771	-0.174340	-0.652889	-0.022582
23856		9.462881	-2.339667	0.798774	0.002338	0.004842	-0.017795	-0.546143	0.245361	-0.456787	0.736794	-0.174224	-0.652891	-0.022691
23857		9.455366	-2.259012	0.838223	0.013499	-0.000072	-0.019228	-0.551025	0.247803	-0.461182	0.736818	-0.173973	-0.652930	-0.022689
23858		9.498622	-2.261316	0.885187	0.013186	0.005682	-0.017537	-0.558105	0.250488	-0.460693	0.736890	-0.173766	-0.652903	-0.022717
23859		9.523505	-2.290261	0.884726	0.006165	0.004075	-0.021378	-0.551758	0.244629	-0.458740	0.736899	-0.173629	-0.652924	-0.022870
23860		9.489588	-2.273199	0.845165	0.004862	0.005803	-0.022801	-0.548828	0.250488	-0.462158	0.736939	-0.173419	-0.652931	-0.022991
23861		9.509534	-2.158565	0.805730	0.003416	0.003556	-0.022870	-0.558350	0.243408	-0.454590	0.736980	-0.173316	-0.652905	-0.023174
23862		9.564985	-2.124261	0.814605	0.001338	-0.000176	-0.016128	-0.559082	0.238525	-0.462402	0.736919	-0.173179	-0.653008	-0.023249
23863		9.560890	-2.149555	0.810651	-0.000800	0.000237	-0.011645	-0.555176	0.241455	-0.459717	0.736897	-0.173021	-0.653074	-0.023258
23864		9.522742	-2.202650	0.847103	0.003505	0.003529	-0.005176	-0.541992	0.243652	-0.457520	0.736914	-0.172930	-0.653081	-0.023205
23865		9.469227	-2.223014	0.850881	0.004703	0.004208	-0.002097	-0.552246	0.245605	-0.456787	0.736979	-0.172904	-0.653018	-0.023119
23866		9.490044	-2.292238	0.851785	0.008937	0.003099	-0.003877	-0.546387	0.240234	-0.461426	0.736997	-0.172844	-0.653015	-0.023048
23867		9.547053	-2.260435	0.878148	-0.000717	0.005640	-0.008155	-0.554443	0.242676	-0.453125	0.737063	-0.172756	-0.652965	-0.023033
23868		9.489867	-2.299740	0.888604	-0.004118	0.002428	-0.011728	-0.554688	0.248291	-0.460693	0.737021	-0.172720	-0.653019	-0.023125
23869		9.475540	-2.184237	0.812516	-0.000223	-0.001025	-0.009784	-0.556152	0.242432	-0.456055	0.736991	-0.172727	-0.653048	-0.023195
23870		9.582215	-2.175792	0.826118	0.008488	0.001704	-0.001773	-0.554443	0.248291	-0.460693	0.736982	-0.172645	-0.653084	-0.023085
23871		9.478064	-2.133080	0.863129	0.009343	0.004216	0.001203	-0.559570	0.242920	-0.458984	0.737021	-0.172653	-0.653041	-0.022988
23872		9.525052	-2.236564	0.878174	-0.005260	0.000969	0.002023	-0.548828	0.234131	-0.452637	0.736977	-0.172729	-0.653072	-0.022960
23873		9.492236	-2.276590	0.866506	0.000760	-0.005353	0.000975	-0.555176	0.250732	-0.456787	0.736910	-0.172639	-0.653176	-0.022791
23874		9.499558	-2.217633	0.810977	0.001523	-0.003613	0.004668	-0.556885	0.242676	-0.457031	0.736847	-0.172792	-0.653209	-0.022741
23875		9.526588	-2.188906	0.777336	0.008725	-0.000445	0.007079	-0.548828	0.242920	-0.457520	0.736827	-0.172780	-0.653242	-0.022543
23876		9.557118	-2.198255	0.842043	0.009364	-0.000218	0.010640	-0.554443	0.256104	-0.460938	0.736843	-0.172796	-0.653229	-0.022291
23877		9.505889	-2.088497	0.908339	0.001050	0.004259	0.015182	-0.549316	0.246582	-0.452148	0.736865	-0.173091	-0.653128	-0.022196
23878		9.476995	-2.250272	0.804519	-0.014405	0.001427	0.019573	-0.550293	0.244385	-0.457275	0.736816	-0.173459	-0.653090	-0.022108
23879		9.433232	-2.205950	0.882079	0.018411	-0.007675	0.026421	-0.557861	0.247314	-0.459961	0.736786	-0.173529	-0.653120	-0.021631
23880		9.401755	-2.467358	0.946739	0.021588	-0.004812	0.041904	-0.542236	0.249023	-0.456055	0.736774	-0.173720	-0.653102	-0.021024
23881		9.510725	-2.037165	0.700136	0.160882	-0.015171	0.068494	-0.553955	0.245850	-0.458008	0.737023	-0.172888	-0.653104	-0.019007
23882		9.444132	-1.684268	0.510628	0.213339	-0.012476	0.126208	-0.552246	0.245361	-0.458008	0.737378	-0.171997	-0.653018	-0.016032
23883		9.746347	-0.895350	0.427733	0.238745	-0.006832	0.209141	-0.551758	0.249756	-0.453369	0.737840	-0.171552	-0.652699	-0.012104
23884		9.951858	-0.318516	0.499939	0.148527	0.057248	0.300500	-0.540771	0.247803	-0.462402	0.738601	-0.172748	-0.651581	-0.008276
23885		9.936788	0.300715	0.491044	0.102255	0.118309	0.442868	-0.534424	0.261963	-0.469971	0.739822	-0.175448	-0.649514	-0.003584
23886		10.102728	0.821535	0.401644	0.095684	0.146480	0.654363	-0.529785	0.268066	-0.468262	0.741256	-0.180036	-0.646621	0.002848
23887		10.146505	1.801738	0.651152	0.153699	0.191393	0.924605	-0.525879	0.274902	-0.475098	0.743074	-0.186244	-0.642657	0.012126
23888		9.968757	1.916904	1.407204	0.126272	0.145696	1.268820	-0.505371	0.300781	-0.476318	0.744264	-0.195369	-0.638203	0.024483
23889		9.264853	1.002729	2.603281	0.204679	0.051726	1.644007	-0.491699	0.329590	-0.483887	0.744561	-0.206837	-0.633375	0.041024
23890		7.835485	-1.524465	1.069939	-0.296084	0.084810	1.769016	-0.479004	0.347900	-0.480225	0.743454	-0.224013	-0.627791	0.054520
23891		7.780669	-4.823787	-0.422833	-0.458308	0.085233	1.795476	-0.455566	0.384277	-0.472412	0.741484	-0.242690	-0.621942	0.067011
23892		6.017127	-5.329843	-0.511069	-0.198732	0.149471	1.721687	-0.444092	0.406982	-0.477783	0.740493	-0.258446	-0.615134	0.080536
23893		6.535781	-8.215842	0.209277	-0.030892	0.214390	1.570409	-0.414307	0.441895	-0.475098	0.740378	-0.271381	-0.607788	0.093741
23894		9.956330	-0.847232	1.723139	-0.139520	0.326339	1.564212	-0.395752	0.466797	-0.485596	0.740433	-0.285221	-0.599357	0.105737
23895		7.487286	-8.527476	-0.590381	-0.928739	0.211639	1.484423	-0.367432	0.501221	-0.469238	0.736573	-0.305248	-0.593155	0.111582
23896		7.163412	-8.355488	1.709122	0.100597	0.019926	1.474608	-0.358643	0.500244	-0.466553	0.734920	-0.315307	-0.587089	0.125700
23897		6.823797	-9.352845	3.182948	-0.479136	0.026697	1.215848	-0.337646	0.521240	-0.459229	0.731213	-0.328703	-0.582715	0.133140
23898		1.831200	-11.575913	1.877050	-0.368433	0.067913	0.927034	-0.321777	0.532715	-0.460938	0.728584	-0.338980	-0.578841	0.138570
23899		-0.524314	-18.239782	1.590429	-0.082384	-0.257884	0.119947	-0.325928	0.539551	-0.451660	0.726131	-0.340212	-0.580817	0.140144
23900		9.894472	-12.737584	4.386185	-0.289110	-0.200534	-0.721173	-0.333252	0.538818	-0.447998	0.724621	-0.337282	-0.586196	0.132437
23901		10.560917	-19.424591	1.864983	-0.406058	-0.481416	-1.268010	-0.356689	0.531494	-0.432617	0.721315	-0.330867	-0.596497	0.120094
23902		9.379016	-22.025554	3.193218	0.368612	-0.659294	-2.029650	-0.393311	0.503906	-0.436768	0.720645	-0.311338	-0.610086	0.107397
23903		19.555258	-16.357513	1.980672	0.879511	-0.483549	-2.618997	-0.440430	0.453613	-0.438721	0.723383	-0.282631	-0.623108	0.092588
23904		20.853736	-2.740946	-1.036086	0.851087	0.019715	-2.457202	-0.479736	0.411865	-0.454834	0.728940	-0.255696	-0.630327	0.077158
23905		9.417940	1.124778	-1.891364	1.129211	0.564850	-2.782721	-0.504883	0.348877	-0.468750	0.739103	-0.223879	-0.632548	0.059059
23906		5.271739	4.622148	-2.024631	1.164492	0.377677	-2.937560	-0.536133	0.303467	-0.481934	0.746894	-0.190041	-0.635938	0.040207
23907		4.043548	5.074687	-1.694922	0.547804	0.201936	-2.297723	-0.567383	0.262207	-0.490479	0.750597	-0.166731	-0.638973	0.022743
23908		2.507155	1.423639	1.453418	0.337070	0.043927	-0.771072	-0.569092	0.238281	-0.489990	0.751803	-0.157467	-0.640051	0.018194
23909		1.825874	2.764405	-1.105255	0.696838	-0.130644	0.415130	-0.574951	0.236084	-0.494873	0.751973	-0.154259	-0.640279	0.027994
23910		0.482107	3.076556	0.434639	-0.210150	0.020379	0.549499	-0.561279	0.252197	-0.495605	0.751496	-0.160695	-0.639093	0.031480
23911		0.073074	0.823440	-0.884789	-0.831519	0.129915	0.531758	-0.563965	0.265625	-0.496338	0.750575	-0.172857	-0.637089	0.029587
23912		0.637703	0.407646	-0.927865	-0.636368	0.206985	0.507190	-0.551514	0.285645	-0.487793	0.750598	-0.182998	-0.634257	0.028842
23913		0.513992	1.483344	-0.362581	-0.899350	0.243290	0.562806	-0.543945	0.306641	-0.490967	0.750175	-0.196034	-0.630959	0.026443
23914		0.435620	0.438174	-0.855780	-1.045038	0.091867	0.799059	-0.530029	0.326660	-0.468506	0.747951	-0.212205	-0.628403	0.025464
23915		1.743454	0.161215	1.310122	-0.354677	-0.175711	1.325978	-0.517334	0.354736	-0.475098	0.745073	-0.225915	-0.626550	0.035533
23916		6.206201	1.472970	-0.880540	-1.983066	-0.086173	2.767146	-0.475586	0.415771	-0.440186	0.736875	-0.265868	-0.619852	0.045971
23917		13.024326	4.375468	-0.150029	-1.084895	-0.445287	2.699518	-0.439453	0.464111	-0.430908	0.727751	-0.296410	-0.615178	0.063836
23918		11.245139	-20.854118	-2.023113	-2.712783	0.611055	1.492095	-0.396240	0.513428	-0.399902	0.720636	-0.332894	-0.605752	0.054140
23919		10.905910	-28.899382	-2.756177	-0.640773	0.290414	0.438919	-0.391357	0.533936	-0.388428	0.719805	-0.342238	-0.601704	0.052023
23920		34.707636	-19.148159	6.291795	-0.413184	0.258615	-0.513573	-0.393066	0.526855	-0.393555	0.720234	-0.342294	-0.601848	0.043311
23921		20.019011	-27.712517	8.722115	0.850546	-0.186634	-0.667115	-0.410400	0.505127	-0.404053	0.722720	-0.329535	-0.605883	0.044590
23922		18.035002	-13.415266	2.653774	1.764530	-0.360094	-1.493363	-0.436768	0.465820	-0.420898	0.727740	-0.301987	-0.614064	0.046085
23923		10.492752	-2.471645	-2.729438	1.882208	-0.098432	-2.026556	-0.474609	0.425537	-0.445312	0.734781	-0.269117	-0.621174	0.042610
23924		5.732781	5.887062	-4.391713	1.420015	0.215232	-2.308810	-0.504639	0.379639	-0.470459	0.741997	-0.238155	-0.625867	0.031834
23925		4.291647	3.079361	-0.491078	0.496434	0.077530	-1.922719	-0.530762	0.341064	-0.470459	0.744586	-0.218513	-0.630499	0.017751
23926		4.394657	2.302970	0.094939	0.111684	0.085638	-0.772522	-0.542236	0.333740	-0.474854	0.745673	-0.211448	-0.631771	0.011270
23927		1.544782	0.667584	-0.663374	-0.027827	0.093396	0.433936	-0.543701	0.335205	-0.468262	0.746238	-0.215204	-0.629758	0.014889
23928		0.200626	1.795371	0.827821	-0.472323	0.153508	0.652932	-0.534180	0.344482	-0.470703	0.745988	-0.224828	-0.626633	0.016884
23929		-1.127174	-1.531898	-0.692907	-0.854378	0.078354	0.419787	-0.533936	0.361084	-0.460693	0.744034	-0.236145	-0.624864	0.013910
23930		-0.653468	-1.695792	0.175124	-0.372521	-0.005171	0.121024	-0.520752	0.368652	-0.456543	0.742838	-0.240611	-0.624620	0.012181
23931		0.093024	0.444335	0.843646	-0.462538	0.062671	0.001226	-0.524170	0.378662	-0.456787	0.741896	-0.244979	-0.624103	0.008446
23932		1.201820	0.721751	0.641401	-0.670489	0.048348	0.200633	-0.500244	0.389404	-0.450684	0.740143	-0.252817	-0.623094	0.004975
23933		6.696506	2.745089	3.519040	-0.530731	0.118200	1.391270	-0.493408	0.407227	-0.442383	0.739145	-0.268585	-0.617534	0.013383
23934		8.521972	1.468230	3.180020	-0.731717	0.174795	2.943475	-0.442383	0.456543	-0.440430	0.736992	-0.297961	-0.605709	0.034321
23935		10.611272	2.518030	-0.977792	-3.170547	0.603083	2.162668	-0.398926	0.519043	-0.399902	0.727943	-0.343505	-0.592725	0.027927
23936		22.752291	-19.537076	-6.558428	-0.888701	-0.186910	1.464988	-0.373047	0.544922	-0.388672	0.722055	-0.362396	-0.588263	0.035395
23937		18.675834	-19.934008	-0.088032	0.941541	-1.012516	1.016824	-0.360596	0.552246	-0.392090	0.718237	-0.360927	-0.592219	0.056059
23938		9.670497	-26.122252	9.308283	-0.079211	0.068250	0.143409	-0.364014	0.557373	-0.392334	0.718253	-0.362814	-0.591009	0.056458
23939		10.665312	-32.189596	0.691270	0.912391	-0.419255	-1.178264	-0.391602	0.530518	-0.391357	0.719955	-0.345607	-0.599368	0.054590
23940		19.289581	-15.435503	2.823767	1.867369	-0.705654	-1.909238	-0.423828	0.489990	-0.412842	0.723554	-0.313847	-0.612360	0.054627
23941		16.753171	-3.453567	-0.328230	1.705342	-0.230436	-2.144549	-0.467529	0.442871	-0.436035	0.729468	-0.281698	-0.621356	0.049387
23942		9.493189	6.843360	-5.386262	2.087715	0.375515	-2.567795	-0.504150	0.374756	-0.455811	0.740648	-0.242750	-0.625164	0.041012
23943		6.036888	5.481192	-0.009614	0.729885	0.029033	-2.091816	-0.519531	0.340088	-0.480957	0.743844	-0.219614	-0.630649	0.027352
23944		3.795846	0.576767	-0.141047	0.353366	0.039291	-1.026878	-0.542725	0.323730	-0.473877	0.745384	-0.208267	-0.632934	0.020566
23945		-0.220035	-1.947184	-0.798800	0.159918	0.171403	-0.380790	-0.537842	0.311523	-0.478516	0.747216	-0.203863	-0.632289	0.017883
23946		-1.453506	-0.223071	-1.071483	-0.238804	0.082935	-0.627713	-0.541504	0.302246	-0.480713	0.747351	-0.201195	-0.633157	0.009996
23947		-0.735944	-1.092128	-1.124882	-0.102232	-0.091662	-0.674626	-0.553467	0.293213	-0.481201	0.746400	-0.196843	-0.635712	0.003200
23948		0.090880	-1.582885	-0.222618	0.530437	-0.260722	-0.441113	-0.562988	0.284180	-0.475586	0.745594	-0.188421	-0.639196	0.004033
23949		0.917503	0.375421	0.831496	0.743916	-0.339945	-0.277642	-0.570312	0.267090	-0.471191	0.744574	-0.179293	-0.642957	0.008290
23950		1.720317	4.221668	-0.041741	0.738257	-0.392503	-0.106265	-0.574219	0.250977	-0.482422	0.743019	-0.171569	-0.646750	0.014209
23951		4.240840	7.364974	4.503137	0.009942	-0.282178	0.579591	-0.559570	0.270508	-0.476318	0.740608	-0.176163	-0.648115	0.020339
23952		5.104022	-9.795671	-4.397466	-2.039530	-0.102586	2.555891	-0.531006	0.333252	-0.458008	0.733999	-0.215634	-0.643413	0.027682
23953		12.275622	-1.967921	4.109801	0.407667	0.312876	1.976989	-0.493164	0.349121	-0.461670	0.736663	-0.227893	-0.634869	0.048305
23954		21.130934	2.963477	-7.355809	0.876131	-0.176613	1.373711	-0.474854	0.360596	-0.462646	0.736750	-0.230635	-0.631920	0.068441
23955		44.020758	2.759133	7.035038	-0.397084	0.224983	1.459673	-0.443848	0.383545	-0.471924	0.735977	-0.246048	-0.625864	0.078057
23956		0.026800	-27.043184	2.139090	-2.916496	0.408435	0.932665	-0.446777	0.440186	-0.444336	0.728747	-0.280478	-0.621590	0.062327
23957		-9.742939	-30.753490	2.148594	1.198672	-0.272581	-0.126630	-0.451660	0.416748	-0.462646	0.730822	-0.268402	-0.623508	0.071406
23958		15.638766	-7.679676	6.205779	0.238266	-0.119528	-1.350667	-0.460938	0.399170	-0.453369	0.731738	-0.255584	-0.628850	0.061509
23959		10.760195	-5.093553	-2.199091	0.056211	-0.119233	-1.254590	-0.469238	0.372070	-0.448486	0.731814	-0.245122	-0.633845	0.051025
23960		5.563106	-2.893474	-1.783360	0.434048	-0.039134	-1.310291	-0.486084	0.349609	-0.451660	0.733522	-0.230744	-0.637867	0.042771
23961		6.577054	-5.337973	0.781810	0.168947	-0.068853	-1.499049	-0.510742	0.325195	-0.453125	0.734093	-0.217200	-0.642639	0.030748
23962		9.241834	-0.150463	2.410879	0.675403	-0.169066	-1.267517	-0.523926	0.298096	-0.458008	0.734901	-0.200754	-0.647289	0.025193
23963		10.100381	5.679421	1.588211	0.413158	-0.168615	-0.948289	-0.530518	0.275635	-0.465820	0.734779	-0.189252	-0.651050	0.020419
23964		10.724268	3.252547	-0.209691	0.016517	-0.046795	-0.550903	-0.530029	0.267578	-0.461670	0.734537	-0.184645	-0.652775	0.015718
23965		10.886841	-0.062234	-1.421886	-0.236566	0.055282	-0.299527	-0.542480	0.264160	-0.456299	0.734471	-0.184436	-0.653005	0.010977
23966		10.203752	-2.198717	-0.707260	0.044512	0.058658	-0.133222	-0.540771	0.260986	-0.453369	0.735047	-0.183008	-0.652774	0.010027
23967		9.810108	-1.602750	1.981241	0.226393	0.038051	-0.051368	-0.543945	0.259766	-0.463623	0.735855	-0.180573	-0.652519	0.011358
23968		9.358583	-2.953367	1.376017	-0.121061	0.162973	-0.031488	-0.532715	0.255127	-0.466797	0.736892	-0.181514	-0.651113	0.009746
23969		9.148403	-4.162315	-0.139315	0.022130	0.143671	-0.089110	-0.540527	0.259766	-0.468750	0.738100	-0.180664	-0.649994	0.008813
23970		9.646335	-1.881362	0.603408	0.102804	0.158241	-0.090731	-0.537598	0.247314	-0.471436	0.739603	-0.179055	-0.648733	0.008498
23971		10.019326	-0.683922	0.992240	0.046553	0.201184	-0.006719	-0.530518	0.248779	-0.472900	0.741314	-0.178652	-0.646889	0.008403
23972		10.118965	-0.923296	0.868041	0.043722	0.192517	0.126268	-0.530029	0.261963	-0.483643	0.742931	-0.179351	-0.644822	0.009520
23973		10.259147	-0.721674	1.803607	0.033633	0.149552	0.274745	-0.527100	0.257812	-0.481201	0.744153	-0.181336	-0.642814	0.012017
23974		10.206035	-0.096204	1.679380	-0.411734	0.185757	0.393747	-0.521240	0.269531	-0.479004	0.744612	-0.188421	-0.640240	0.011944
23975		10.189997	-0.775791	0.546962	-0.716071	0.226139	0.538354	-0.515625	0.289795	-0.479492	0.744587	-0.199487	-0.636931	0.010664
23976		9.861002	-1.469853	1.750253	-0.739672	0.322158	0.584308	-0.494141	0.304443	-0.470703	0.745155	-0.211125	-0.632521	0.009365
23977		7.446880	-5.573382	2.648052	-1.656951	0.590812	0.272529	-0.484375	0.332031	-0.462646	0.745220	-0.228806	-0.626328	-0.002814
23978		5.744965	-8.044333	0.138085	-1.165420	0.447637	-0.223719	-0.486816	0.342529	-0.458008	0.745274	-0.237942	-0.622668	-0.015342
23979		6.281882	-6.265165	0.692027	-0.067137	-0.008566	-0.669726	-0.496582	0.343262	-0.462402	0.744834	-0.233415	-0.624702	-0.022076
23980		9.329007	-6.484469	-1.751870	0.314407	-0.408986	-0.276463	-0.508789	0.338623	-0.458496	0.742442	-0.228501	-0.629386	-0.020974
23981		9.247237	-2.394056	1.507068	0.714611	-0.318343	-0.083955	-0.505859	0.316162	-0.453857	0.741898	-0.221343	-0.632744	-0.015170
23982		10.016485	-2.062341	2.714692	-0.005554	-0.163702	-0.196121	-0.517822	0.315186	-0.456055	0.740525	-0.219930	-0.634808	-0.016528
23983		8.846138	-2.940414	2.689608	-0.395192	-0.071690	-0.207446	-0.515137	0.322754	-0.454346	0.738794	-0.222012	-0.635955	-0.021347
23984		8.810613	-3.598792	1.033668	-0.451502	-0.133292	-0.231514	-0.521484	0.328613	-0.437012	0.736386	-0.224434	-0.637695	-0.026666
23985		9.106974	-4.279231	0.133841	-0.540024	-0.169434	-0.282524	-0.527100	0.324463	-0.439697	0.733382	-0.227271	-0.639848	-0.033072
23986		9.814367	-2.958376	-0.126797	-0.420864	-0.114171	-0.321258	-0.526123	0.329102	-0.427490	0.731105	-0.228659	-0.641623	-0.039007
23987		9.512820	-2.363521	0.299417	-0.311166	-0.099497	-0.320561	-0.534912	0.319092	-0.419434	0.729228	-0.229041	-0.643289	-0.044105
23988		10.362712	-1.899137	0.161316	-0.245837	-0.051600	-0.238183	-0.539062	0.324463	-0.418213	0.727949	-0.229454	-0.644306	-0.048072
23989		10.621724	-2.359000	-0.947902	-0.097673	0.021245	-0.155554	-0.534424	0.323486	-0.424561	0.727722	-0.229142	-0.644502	-0.050310
23990		9.993063	-1.939701	-0.573489	0.193666	0.107613	-0.069007	-0.539307	0.317627	-0.425537	0.729078	-0.226816	-0.643844	-0.049640
23991		9.288555	-1.063854	2.005264	0.355571	0.111162	0.004530	-0.533936	0.316162	-0.426758	0.730953	-0.223601	-0.643039	-0.047020
23992		9.210254	-2.141972	1.936832	0.198127	0.084724	0.049144	-0.531494	0.312012	-0.433838	0.732192	-0.222202	-0.642244	-0.045197
23993		9.696290	-4.031486	-0.243132	0.147548	0.083637	0.043182	-0.536865	0.312500	-0.441650	0.733278	-0.221211	-0.641442	-0.043823
23994		9.541087	-4.260466	-1.311253	0.371961	0.119385	0.011018	-0.531006	0.308350	-0.443848	0.735242	-0.217878	-0.640519	-0.041029
23995		9.634749	-3.045845	-0.900625	0.533684	0.161517	-0.014348	-0.527344	0.301758	-0.447266	0.737944	-0.212826	-0.639340	-0.037271
23996		9.179341	-1.664874	1.550080	0.759366	0.058693	0.004829	-0.536377	0.288818	-0.456543	0.740379	-0.205879	-0.639121	-0.031253
23997		9.427573	-1.119929	3.354300	0.474677	0.021728	0.007124	-0.530029	0.284668	-0.462158	0.741741	-0.201580	-0.639089	-0.027404
23998		9.256929	-2.470916	1.915658	0.114046	0.072706	-0.005339	-0.534424	0.274170	-0.462158	0.742588	-0.200505	-0.638474	-0.026677
23999		9.313891	-4.034180	-0.202828	0.136351	0.047021	-0.030455	-0.527344	0.283936	-0.459961	0.743274	-0.199021	-0.638170	-0.025947
24000		8.911384	-3.844513	-0.180532	0.527178	-0.054232	-0.046521	-0.537598	0.272461	-0.477783	0.744100	-0.193824	-0.638955	-0.021996
24001		8.399009	-2.871221	0.918807	0.754409	-0.224179	-0.104458	-0.539307	0.260742	-0.474609	0.744054	-0.186058	-0.641482	-0.016309
24002		9.419651	-1.430120	1.043362	0.937991	-0.332757	-0.076585	-0.536865	0.251953	-0.479004	0.743474	-0.176809	-0.644911	-0.008643
24003		9.965903	-0.748225	2.588894	0.454274	-0.140394	-0.058777	-0.537842	0.246582	-0.472168	0.743310	-0.172165	-0.646392	-0.005129
24004		9.289166	-2.049138	2.681304	-0.028921	0.060675	-0.042709	-0.538086	0.244385	-0.480957	0.743716	-0.172138	-0.645926	-0.005842
24005		9.317192	-1.865357	1.062195	-0.124022	0.043015	-0.032104	-0.547852	0.248047	-0.478027	0.743780	-0.173068	-0.645590	-0.007165
24006		9.617422	-1.343792	0.592393	-0.184337	0.058931	0.009005	-0.534912	0.244141	-0.477295	0.743836	-0.174898	-0.645015	-0.008658
24007		9.675176	-2.007791	0.853015	-0.235549	0.051661	0.036915	-0.535645	0.256592	-0.469727	0.743724	-0.177420	-0.644430	-0.010271
24008		9.556091	-2.444775	1.268820	-0.240950	0.034789	0.053949	-0.539551	0.255615	-0.473389	0.743454	-0.180158	-0.643957	-0.011773
24009		9.305945	-2.440004	1.384351	-0.178115	0.002067	0.077683	-0.538574	0.259033	-0.469482	0.743060	-0.182490	-0.643742	-0.012459
24010		9.506492	-2.268687	1.016867	-0.213340	0.007413	0.093425	-0.536621	0.262939	-0.470703	0.742625	-0.185278	-0.643431	-0.013302
24011		9.538195	-2.669148	0.714685	-0.215583	0.003006	0.089185	-0.535645	0.269531	-0.468750	0.742144	-0.188049	-0.643163	-0.014186
24012		9.206765	-3.397039	0.949473	-0.101218	-0.037758	0.080651	-0.529785	0.267822	-0.459473	0.741597	-0.189703	-0.643309	-0.014139
24013		9.117735	-3.159104	1.376453	-0.064513	-0.057839	0.051504	-0.531250	0.270020	-0.467529	0.740967	-0.190790	-0.643716	-0.014024
24014		9.338394	-3.045731	1.076061	-0.092663	-0.064666	0.017799	-0.536621	0.278564	-0.462646	0.740214	-0.191855	-0.644257	-0.014403
24015		9.394415	-3.015654	0.672124	-0.056087	-0.069584	-0.005952	-0.540283	0.272461	-0.464355	0.739497	-0.192407	-0.644908	-0.014721
24016		9.355610	-2.468978	0.723048	0.016813	-0.077778	-0.002599	-0.538086	0.277100	-0.457031	0.738891	-0.192294	-0.645644	-0.014376
24017		9.399401	-1.970485	0.959392	-0.029559	-0.069703	0.012050	-0.532471	0.276855	-0.454590	0.738236	-0.192746	-0.646260	-0.014317
24018		9.491305	-2.426627	0.837769	-0.091988	-0.067634	0.024970	-0.533447	0.270508	-0.461914	0.737452	-0.193882	-0.646807	-0.014650
24019		9.381613	-2.603315	0.580303	-0.055637	-0.059640	0.038044	-0.534912	0.287598	-0.467773	0.736829	-0.194756	-0.647257	-0.014545
24020		9.540968	-2.386734	0.805865	-0.037604	-0.048002	0.047695	-0.542969	0.291016	-0.449707	0.736349	-0.195566	-0.647566	-0.014251
24021		9.604324	-2.616217	0.847528	-0.125064	-0.003824	0.031385	-0.535889	0.286133	-0.460938	0.735988	-0.197066	-0.647505	-0.014986
24022		9.342601	-3.252757	0.734974	-0.111386	-0.010797	0.018348	-0.541260	0.282959	-0.458496	0.735616	-0.198308	-0.647532	-0.015658
24023		9.339041	-3.060433	0.863040	-0.066549	-0.026782	0.002256	-0.540283	0.285400	-0.448242	0.735217	-0.198996	-0.647765	-0.016067
24024		9.414613	-2.639580	0.916357	-0.052865	-0.026748	-0.006497	-0.543701	0.283936	-0.446777	0.734842	-0.199503	-0.648024	-0.016473
24025		9.483925	-2.479031	0.724819	-0.100985	-0.014896	-0.005947	-0.545410	0.282959	-0.446777	0.734440	-0.200447	-0.648166	-0.017292
24026		9.353092	-2.765537	0.564649	-0.069533	-0.022101	0.000201	-0.534668	0.288330	-0.443115	0.734059	-0.201146	-0.648368	-0.017776
24027		9.397927	-2.491515	0.729155	-0.084213	-0.014257	-0.003196	-0.534912	0.282471	-0.437256	0.733708	-0.201973	-0.648490	-0.018441
24028		9.467727	-2.595638	0.711685	-0.120149	-0.005121	-0.000081	-0.544189	0.292480	-0.446777	0.733336	-0.203140	-0.648519	-0.019389
24029		9.454316	-2.695396	0.756955	-0.085697	-0.005453	0.004731	-0.537354	0.296387	-0.438477	0.733050	-0.204033	-0.648543	-0.020012
24030		9.397036	-2.662851	0.660625	-0.065793	-0.012508	0.017497	-0.537842	0.290527	-0.431641	0.732758	-0.204873	-0.648598	-0.020364
24031		9.435702	-2.696501	0.619234	-0.076187	-0.011681	0.015263	-0.536377	0.294922	-0.445801	0.732439	-0.205773	-0.648658	-0.020821
24032		9.329774	-3.068579	0.659138	-0.045384	-0.015465	0.008872	-0.541992	0.296143	-0.447510	0.732182	-0.206335	-0.648763	-0.021039
24033		9.356145	-2.861443	0.757795	-0.025140	-0.018970	-0.003190	-0.534424	0.296875	-0.447266	0.731943	-0.206608	-0.648940	-0.021191
24034		9.434346	-2.833076	0.668084	-0.032587	-0.009205	-0.013072	-0.536133	0.299805	-0.441650	0.731768	-0.206874	-0.649042	-0.021512
24035		9.354553	-2.688134	0.612891	0.006914	-0.019687	-0.007997	-0.536133	0.302002	-0.439209	0.731604	-0.206836	-0.649241	-0.021463
24036		9.455086	-2.563646	0.640958	-0.015182	-0.015942	-0.005785	-0.543701	0.290771	-0.435059	0.731411	-0.207027	-0.649394	-0.021597
24037		9.438464	-2.771283	0.598855	-0.011769	-0.006231	-0.004205	-0.543213	0.300293	-0.443115	0.731298	-0.207154	-0.649477	-0.021695
24038		9.407522	-2.669438	0.631106	0.022150	-0.005441	-0.001477	-0.531250	0.290527	-0.444092	0.731288	-0.207018	-0.649538	-0.021500
24039		9.425936	-2.607750	0.646336	0.004675	0.000920	-0.001505	-0.544922	0.292725	-0.434570	0.731297	-0.207016	-0.649531	-0.021416
24040		9.408863	-2.737516	0.653648	0.014395	-0.007041	0.006451	-0.533203	0.288086	-0.437012	0.731246	-0.206998	-0.649601	-0.021214
24041		9.407833	-2.727250	0.704377	0.016476	-0.007489	0.003487	-0.542236	0.298096	-0.438477	0.731209	-0.206927	-0.649672	-0.020983
24042		9.403967	-2.699155	0.642503	0.016850	-0.001251	0.003239	-0.534912	0.298096	-0.446533	0.731216	-0.206877	-0.649686	-0.020808
24043		9.422056	-2.698502	0.675373	0.005039	0.005410	0.000567	-0.539307	0.295898	-0.437744	0.731262	-0.206910	-0.649626	-0.020734
24044		9.369792	-2.663221	0.723171	-0.003082	-0.000354	0.000767	-0.541748	0.302490	-0.446289	0.731226	-0.207017	-0.649633	-0.020738
24045		9.414308	-2.548511	0.705598	-0.013435	0.000856	0.005036	-0.540527	0.292725	-0.440918	0.731181	-0.207265	-0.649603	-0.020785
24046		9.436540	-2.822048	0.563708	-0.021061	-0.000322	0.004146	-0.538086	0.293701	-0.447754	0.731103	-0.207544	-0.649598	-0.020882
24047		9.365396	-2.793435	0.624537	0.004398	0.003166	0.004957	-0.531738	0.290527	-0.436523	0.731131	-0.207593	-0.649556	-0.020746
24048		9.394309	-2.776110	0.644706	0.003090	0.005952	0.000371	-0.537842	0.295898	-0.436035	0.731168	-0.207622	-0.649506	-0.020692
24049		9.396632	-2.814960	0.640514	0.008791	0.007316	-0.007041	-0.536621	0.289062	-0.440918	0.731222	-0.207555	-0.649467	-0.020692
24050		9.407631	-2.701184	0.681575	0.016685	0.004175	-0.004631	-0.536865	0.302490	-0.431396	0.731281	-0.207402	-0.649454	-0.020552
24051		9.429730	-2.686494	0.697459	0.013921	0.001981	-0.003800	-0.542236	0.295898	-0.448486	0.731298	-0.207353	-0.649452	-0.020512
24052		9.409000	-2.709696	0.633719	0.006999	0.006940	-0.007206	-0.540771	0.295166	-0.447998	0.731355	-0.207282	-0.649410	-0.020487
24053		9.385943	-2.693262	0.577831	0.011412	0.017460	-0.003433	-0.533203	0.292969	-0.432617	0.731512	-0.207198	-0.649263	-0.020416
24054		9.450484	-2.701047	0.693297	0.016894	0.015199	-0.001442	-0.533447	0.294678	-0.439453	0.731651	-0.207100	-0.649141	-0.020322
24055		9.397981	-2.764712	0.739091	0.001557	0.019399	-0.003722	-0.541992	0.299316	-0.446289	0.731792	-0.207121	-0.648974	-0.020365
24056		9.368889	-2.721421	0.707739	0.006303	0.016188	-0.004607	-0.540039	0.296631	-0.443604	0.731918	-0.207095	-0.648840	-0.020373
24057		9.393162	-2.725639	0.680161	0.004647	0.015901	-0.007938	-0.542725	0.299316	-0.442383	0.732035	-0.207051	-0.648720	-0.020423
24058		9.428416	-2.693304	0.702615	0.008530	0.017254	-0.007398	-0.535400	0.298096	-0.443848	0.732167	-0.206987	-0.648590	-0.020462
24059		9.379520	-2.766946	0.713714	-0.003565	0.020884	-0.010420	-0.539307	0.292480	-0.439941	0.732306	-0.207009	-0.648421	-0.020615
24060		9.411545	-2.662926	0.754078	0.019201	0.013893	-0.005917	-0.538330	0.295654	-0.449951	0.732440	-0.206835	-0.648328	-0.020523
24061		9.386743	-2.742829	0.732959	0.004436	0.014351	-0.006510	-0.541260	0.289062	-0.440186	0.732554	-0.206796	-0.648212	-0.020530
24062		9.398587	-2.759079	0.656174	0.013666	0.017862	-0.008644	-0.533936	0.294189	-0.445068	0.732703	-0.206632	-0.648096	-0.020511
24063		9.384414	-2.743058	0.771396	0.017671	0.017564	-0.008937	-0.534424	0.295654	-0.445801	0.732873	-0.206457	-0.647961	-0.020451
24064		9.382497	-2.740610	0.759747	0.014090	0.016805	-0.009279	-0.539307	0.294922	-0.447021	0.733027	-0.206319	-0.647832	-0.020428
24065		9.325392	-2.729832	0.703461	0.014960	0.012241	-0.010694	-0.539307	0.292725	-0.438477	0.733142	-0.206153	-0.647755	-0.020401
24066		9.414910	-2.676501	0.723598	0.014769	0.008248	-0.009405	-0.536377	0.290039	-0.448975	0.733211	-0.206004	-0.647725	-0.020387
24067		9.429960	-2.724540	0.754342	0.007665	0.020740	-0.014925	-0.535889	0.290039	-0.449463	0.733382	-0.205846	-0.647580	-0.020445
24068		9.370358	-2.777146	0.744981	0.010979	0.020228	-0.017217	-0.533691	0.294189	-0.447754	0.733558	-0.205640	-0.647445	-0.020496
24069		9.364754	-2.709234	0.739832	0.023673	0.016390	-0.017080	-0.539551	0.300781	-0.445312	0.733733	-0.205348	-0.647340	-0.020459
24070		9.431472	-2.596072	0.781559	0.018394	0.014275	-0.015989	-0.539062	0.288086	-0.434570	0.733863	-0.205150	-0.647254	-0.020510
24071		9.389601	-2.671956	0.785365	0.007801	0.010725	-0.011371	-0.536133	0.298584	-0.445801	0.733925	-0.205040	-0.647217	-0.020590
24072		9.396891	-2.628782	0.759355	0.015275	0.011855	-0.007269	-0.546631	0.293213	-0.448242	0.734034	-0.204938	-0.647125	-0.020567
24073		9.373663	-2.740531	0.726574	0.012652	0.011163	-0.006291	-0.530273	0.290527	-0.446533	0.734124	-0.204820	-0.647062	-0.020535
24074		9.373983	-2.671144	0.825933	0.017965	0.005238	-0.008628	-0.535889	0.294922	-0.451416	0.734198	-0.204648	-0.647036	-0.020432
24075		9.404992	-2.698314	0.830601	0.006539	0.011486	-0.009570	-0.533447	0.288330	-0.446533	0.734291	-0.204581	-0.646950	-0.020458
24076		9.376182	-2.761581	0.780870	0.008334	0.010445	-0.012710	-0.533203	0.293457	-0.450684	0.734377	-0.204447	-0.646894	-0.020482
24077		9.426133	-2.638410	0.753905	0.011126	0.006036	-0.011457	-0.531738	0.291504	-0.448242	0.734440	-0.204323	-0.646862	-0.020468
24078		9.414650	-2.704525	0.780667	0.007492	0.006963	-0.012555	-0.528809	0.282471	-0.447510	0.734499	-0.204219	-0.646827	-0.020498
24079		9.373416	-2.649107	0.816103	0.009500	0.004728	-0.011598	-0.534668	0.288818	-0.446045	0.734551	-0.204058	-0.646821	-0.020446
24080		9.399624	-2.680336	0.831318	0.001974	0.002536	-0.010935	-0.539307	0.296875	-0.451660	0.734553	-0.204006	-0.646834	-0.020501
24081		9.371634	-2.676009	0.772894	0.003148	-0.000009	-0.008828	-0.536133	0.289307	-0.445801	0.734539	-0.203992	-0.646852	-0.020543
24082		9.383570	-2.589224	0.754604	0.004603	0.003658	-0.005395	-0.543213	0.297363	-0.438232	0.734555	-0.203963	-0.646843	-0.020536
24083		9.443454	-2.663141	0.737931	0.001636	0.010422	-0.003362	-0.537354	0.291016	-0.450928	0.734591	-0.204032	-0.646777	-0.020657
24084		9.382381	-2.767151	0.794175	0.007304	0.007579	-0.006942	-0.537109	0.293213	-0.448975	0.734653	-0.203962	-0.646729	-0.020635
24085		9.338333	-2.756764	0.835965	0.007581	0.006006	-0.010932	-0.540283	0.291504	-0.445068	0.734697	-0.203877	-0.646704	-0.020669
24086		9.369875	-2.786661	0.783165	0.010318	0.006057	-0.015925	-0.536377	0.289551	-0.444336	0.734736	-0.203719	-0.646708	-0.020745
24087		9.398301	-2.676054	0.741792	0.009739	0.009794	-0.017634	-0.539307	0.299561	-0.451660	0.734807	-0.203548	-0.646678	-0.020836
24088		9.437879	-2.580892	0.777914	0.007290	0.000807	-0.015438	-0.538818	0.288818	-0.446777	0.734807	-0.203470	-0.646700	-0.020935
24089		9.432867	-2.590196	0.779454	0.011270	0.000214	-0.010077	-0.534424	0.294189	-0.455566	0.734807	-0.203337	-0.646742	-0.020909
24090		9.394178	-2.658968	0.809379	0.005435	0.009909	-0.011044	-0.532227	0.293945	-0.447021	0.734894	-0.203278	-0.646660	-0.020946
24091		9.383628	-2.744883	0.774079	-0.015166	0.013612	-0.014696	-0.532959	0.296387	-0.452637	0.734943	-0.203396	-0.646558	-0.021237
24092		9.392036	-2.668698	0.774911	-0.011280	0.013566	-0.017445	-0.533691	0.290527	-0.453125	0.735010	-0.203463	-0.646452	-0.021509
24093		9.411952	-2.567796	0.773772	-0.009000	0.008435	-0.011656	-0.544922	0.289307	-0.454102	0.735045	-0.203514	-0.646392	-0.021656
24094		9.436705	-2.591562	0.783568	-0.010936	0.007955	-0.008684	-0.533936	0.289551	-0.456787	0.735056	-0.203576	-0.646354	-0.021795
24095		9.389179	-2.658390	0.802982	-0.008271	0.011565	-0.004592	-0.536377	0.295410	-0.445312	0.735128	-0.203662	-0.646244	-0.021853
24096		9.390898	-2.621400	0.787409	-0.004874	0.008348	-0.002944	-0.535400	0.288818	-0.444824	0.735152	-0.203785	-0.646174	-0.021966
24097		9.413552	-2.730691	0.780750	-0.018831	0.008285	-0.005652	-0.541748	0.290283	-0.448486	0.735141	-0.203968	-0.646121	-0.022170
24098		9.403221	-2.678593	0.787960	-0.006986	0.003447	-0.005194	-0.531982	0.288574	-0.441650	0.735119	-0.204039	-0.646121	-0.022260
24099		9.364570	-2.681225	0.809884	-0.011202	0.002162	-0.003508	-0.531738	0.287598	-0.445312	0.735079	-0.204178	-0.646119	-0.022374
24100		9.421093	-2.639256	0.786001	0.003277	0.002957	-0.005328	-0.539795	0.286133	-0.451416	0.735090	-0.204155	-0.646114	-0.022360
24101		9.431959	-2.641449	0.813757	-0.007524	0.003730	-0.003847	-0.531738	0.299072	-0.450684	0.735081	-0.204205	-0.646107	-0.022389
24102		9.383916	-2.672855	0.798181	-0.001435	0.007620	-0.002736	-0.537842	0.294678	-0.456543	0.735127	-0.204324	-0.646016	-0.022457
24103		9.375824	-2.681106	0.840750	-0.006724	0.009665	-0.003857	-0.535645	0.291992	-0.444580	0.735179	-0.204424	-0.645922	-0.022527
24104		9.404878	-2.641767	0.821188	-0.004515	0.004064	-0.003005	-0.532471	0.289795	-0.450684	0.735169	-0.204516	-0.645901	-0.022600
24105		9.431239	-2.610545	0.772770	-0.001041	0.000890	-0.002938	-0.538574	0.295410	-0.441162	0.735164	-0.204555	-0.645896	-0.022580
24106		9.423891	-2.682964	0.773825	-0.000237	-0.002301	0.000539	-0.535156	0.281250	-0.456299	0.735100	-0.204664	-0.645933	-0.022619
24107		9.410847	-2.652700	0.803003	0.007853	-0.005578	0.003910	-0.539795	0.293945	-0.446533	0.735079	-0.204592	-0.645989	-0.022349
24108		9.381236	-2.632220	0.806073	0.000235	-0.000466	0.004956	-0.532227	0.292725	-0.447266	0.735044	-0.204708	-0.645994	-0.022308
24109		9.384127	-2.756839	0.800858	0.001576	0.002007	0.002597	-0.530029	0.289307	-0.454102	0.735047	-0.204794	-0.645964	-0.022258
24110		9.386304	-2.689171	0.811959	0.004125	-0.000511	0.002204	-0.535645	0.287598	-0.443604	0.735059	-0.204818	-0.645948	-0.022111
24111		9.418734	-2.706137	0.779622	-0.001443	-0.000489	-0.002431	-0.538086	0.287354	-0.445801	0.735020	-0.204849	-0.645983	-0.022109
24112		9.408207	-2.678706	0.769353	0.003442	-0.000732	0.000201	-0.539062	0.291992	-0.454590	0.734993	-0.204844	-0.646017	-0.022030
24113		9.380883	-2.657010	0.790393	0.007192	0.004062	-0.000708	-0.539795	0.290771	-0.451416	0.735033	-0.204811	-0.645986	-0.021922
24114		9.415280	-2.649878	0.793311	-0.000855	0.007060	-0.000028	-0.534668	0.297119	-0.445068	0.735067	-0.204853	-0.645935	-0.021894
24115		9.417243	-2.697750	0.777094	-0.008806	0.002730	0.000251	-0.537842	0.291748	-0.450195	0.735037	-0.205051	-0.645903	-0.022005
24116		9.374235	-2.725195	0.748709	-0.005080	0.003610	-0.002531	-0.537598	0.291260	-0.449707	0.735032	-0.205125	-0.645884	-0.022035
24117		9.400472	-2.622580	0.751507	0.003646	0.004012	-0.000203	-0.538574	0.292236	-0.454590	0.735053	-0.205133	-0.645860	-0.021972
24118		9.453634	-2.642556	0.831742	-0.002586	0.008140	0.001531	-0.539062	0.291016	-0.444580	0.735101	-0.205204	-0.645783	-0.021930
24119		9.377986	-2.725039	0.786685	-0.003927	0.011614	-0.000599	-0.541016	0.284180	-0.450195	0.735147	-0.205284	-0.645704	-0.021987
24120		9.404007	-2.670762	0.756860	-0.005566	0.008545	0.001561	-0.528320	0.294434	-0.451172	0.735179	-0.205316	-0.645660	-0.021931
24121		9.427360	-2.633250	0.806159	-0.016541	0.008081	-0.001183	-0.543213	0.290039	-0.450195	0.735200	-0.205540	-0.645561	-0.022051
24122		9.384993	-2.561660	0.800636	-0.021811	0.011276	0.005070	-0.538574	0.290527	-0.451660	0.735205	-0.205790	-0.645472	-0.022153
24123		9.398720	-2.674209	0.726596	-0.014802	0.008560	0.011138	-0.536865	0.290527	-0.450195	0.735220	-0.206032	-0.645378	-0.022118
24124		9.412725	-2.716499	0.822967	-0.002723	0.009194	0.012066	-0.542236	0.294922	-0.448242	0.735272	-0.206174	-0.645279	-0.021985
24125		9.390755	-2.896858	0.867248	-0.003379	0.004370	0.005734	-0.533691	0.289795	-0.451660	0.735262	-0.206305	-0.645248	-0.021964
24126		9.312975	-2.895180	0.802442	0.009621	-0.009522	-0.004290	-0.535889	0.288330	-0.462402	0.735200	-0.206196	-0.645359	-0.021803
24127		9.370926	-2.704782	0.833092	0.021753	-0.012758	-0.006816	-0.529785	0.288086	-0.439697	0.735169	-0.205895	-0.645503	-0.021453
24128		9.403581	-2.564351	0.850226	0.012674	-0.006698	-0.004880	-0.542725	0.295166	-0.447510	0.735113	-0.205805	-0.645598	-0.021372
24129		9.418635	-2.629569	0.751498	-0.005746	-0.000803	-0.002360	-0.541016	0.296143	-0.449707	0.735051	-0.205902	-0.645635	-0.021443
24130		9.414807	-2.666218	0.752058	0.004372	0.000772	0.004852	-0.533936	0.292969	-0.444092	0.735039	-0.205964	-0.645632	-0.021353
24131		9.409323	-2.704313	0.855590	-0.002406	0.003023	0.003744	-0.531250	0.297363	-0.448975	0.735028	-0.206091	-0.645604	-0.021346
24132		9.355232	-2.797145	0.806216	0.001623	0.001317	0.000153	-0.531738	0.294189	-0.445068	0.735030	-0.206174	-0.645576	-0.021323
24133		9.347092	-2.725390	0.790359	0.000584	0.002207	-0.002785	-0.538574	0.290283	-0.446533	0.735025	-0.206229	-0.645564	-0.021344
24134		9.386193	-2.721194	0.769076	-0.000175	0.001940	-0.003214	-0.541260	0.295410	-0.443115	0.735007	-0.206227	-0.645585	-0.021333
24135		9.408682	-2.722348	0.777589	0.007012	-0.005291	-0.004624	-0.532715	0.297119	-0.445557	0.734931	-0.206207	-0.645677	-0.021342
24136		9.386808	-2.695329	0.785212	0.007991	-0.004474	-0.002421	-0.538574	0.303711	-0.442383	0.734890	-0.206223	-0.645720	-0.021307
24137		9.384996	-2.694596	0.768454	0.014782	-0.001790	-0.002615	-0.537354	0.297852	-0.447998	0.734864	-0.206236	-0.645746	-0.021326
24138		9.405307	-2.672106	0.777814	0.016926	-0.002505	-0.001493	-0.526855	0.290527	-0.450439	0.734859	-0.206161	-0.645779	-0.021206
24139		9.420340	-2.654711	0.798987	0.013689	-0.002973	0.002391	-0.530762	0.294189	-0.450928	0.734876	-0.206095	-0.645788	-0.020969
24140		9.386062	-2.746077	0.798778	0.007501	0.003645	0.002680	-0.534424	0.289551	-0.453613	0.734922	-0.206111	-0.645735	-0.020836
24141		9.367181	-2.751835	0.813376	0.007553	-0.000227	-0.000770	-0.533447	0.289062	-0.450195	0.734937	-0.206031	-0.645749	-0.020657
24142		9.390764	-2.657281	0.787790	0.003024	0.002085	-0.001468	-0.533936	0.302979	-0.450439	0.734952	-0.205998	-0.645746	-0.020550
24143		9.429196	-2.593947	0.749654	0.003060	0.004989	0.003590	-0.539795	0.291504	-0.448242	0.734984	-0.206142	-0.645664	-0.020545
24144		9.386446	-2.695231	0.789861	0.003743	-0.003913	0.009084	-0.545166	0.294434	-0.451904	0.734933	-0.206202	-0.645708	-0.020369
24145		9.359512	-2.751886	0.821659	0.006747	-0.000398	0.010934	-0.533691	0.292969	-0.450684	0.734916	-0.206247	-0.645720	-0.020162
24146		9.381851	-2.795678	0.807889	-0.005161	0.000801	0.004534	-0.539307	0.296143	-0.449219	0.734900	-0.206369	-0.645702	-0.020094
24147		9.385741	-2.820111	0.824398	0.006210	-0.002701	0.001591	-0.534668	0.288086	-0.450195	0.734865	-0.206384	-0.645739	-0.020002
24148		9.367768	-2.713389	0.808368	-0.003362	-0.002404	-0.002785	-0.533936	0.298340	-0.452148	0.734824	-0.206377	-0.645790	-0.019928
24149		9.370324	-2.668748	0.801628	-0.000028	-0.000738	-0.000871	-0.539062	0.293945	-0.447266	0.734810	-0.206450	-0.645784	-0.019899
24150		9.380352	-2.703824	0.799390	-0.007489	-0.007838	-0.000500	-0.535400	0.290283	-0.447998	0.734694	-0.206561	-0.645880	-0.019916
24151		9.382900	-2.731523	0.740041	-0.001740	-0.010210	0.000860	-0.538330	0.297607	-0.445801	0.734587	-0.206596	-0.645993	-0.019814
24152		9.405131	-2.734089	0.746670	-0.002175	-0.005964	0.002504	-0.529297	0.303467	-0.447510	0.734498	-0.206725	-0.646053	-0.019812
24153		9.372784	-2.845119	0.801403	0.006499	-0.004272	-0.002401	-0.531738	0.292236	-0.458984	0.734468	-0.206810	-0.646060	-0.019822
24154		9.388627	-2.758529	0.815223	0.002394	-0.005193	-0.007926	-0.530273	0.292480	-0.453857	0.734454	-0.206710	-0.646112	-0.019684
24155		9.387433	-2.736791	0.757720	-0.003837	-0.001063	-0.006197	-0.542725	0.290771	-0.448242	0.734445	-0.206709	-0.646124	-0.019640
24156		9.367174	-2.788723	0.719916	-0.004517	-0.004465	-0.009203	-0.531738	0.288330	-0.445312	0.734361	-0.206668	-0.646232	-0.019673
24157		9.384326	-2.729267	0.779123	-0.001658	-0.001457	-0.010705	-0.541260	0.291016	-0.445801	0.734326	-0.206607	-0.646290	-0.019693
24158		9.400203	-2.733271	0.782321	0.001429	-0.004257	-0.012439	-0.534180	0.300293	-0.443848	0.734254	-0.206505	-0.646403	-0.019732
24159		9.366200	-2.725423	0.728434	0.002205	-0.008181	-0.009828	-0.531738	0.301025	-0.444092	0.734160	-0.206545	-0.646494	-0.019842
24160		9.381350	-2.713905	0.736154	0.001177	-0.008306	-0.009582	-0.525879	0.297363	-0.445557	0.734070	-0.206610	-0.646572	-0.019958
24161		9.420666	-2.704672	0.769621	-0.003268	-0.003787	-0.007669	-0.528076	0.298096	-0.442383	0.734026	-0.206699	-0.646591	-0.020042
24162		9.397506	-2.760683	0.760908	-0.006461	0.000995	-0.010723	-0.534180	0.289795	-0.452148	0.733997	-0.206808	-0.646583	-0.020233
24163		9.400425	-2.714308	0.754604	0.002328	-0.000300	-0.007657	-0.534424	0.292480	-0.444824	0.734002	-0.206707	-0.646613	-0.020137
24164		9.391576	-2.669549	0.767047	-0.000595	0.001575	-0.005889	-0.535156	0.294922	-0.446777	0.733989	-0.206710	-0.646626	-0.020157
24165		9.394264	-2.672019	0.726769	-0.002824	-0.002686	-0.004123	-0.538818	0.292969	-0.452881	0.733940	-0.206763	-0.646664	-0.020175
24166		9.448289	-2.694680	0.747073	-0.012530	-0.006682	-0.003154	-0.533203	0.290283	-0.449951	0.733846	-0.206850	-0.646742	-0.020171
24167		9.459303	-2.721193	0.755113	-0.022056	-0.001738	-0.004770	-0.538818	0.288818	-0.443848	0.733774	-0.207009	-0.646771	-0.020262
24168		9.453282	-2.649676	0.751804	-0.027085	-0.015641	0.000552	-0.540039	0.301514	-0.438965	0.733545	-0.207260	-0.646947	-0.020358
24169		9.469974	-2.685544	0.792226	-0.075849	-0.030182	-0.000811	-0.525391	0.294678	-0.443115	0.733048	-0.208107	-0.647218	-0.021011
24170		9.361301	-2.740806	0.816429	-0.053212	-0.037502	0.000481	-0.530762	0.299561	-0.441650	0.732608	-0.208686	-0.647520	-0.021291
24171		9.293983	-2.581079	0.930972	-0.066978	-0.040886	-0.002253	-0.534668	0.293213	-0.443604	0.732088	-0.209404	-0.647861	-0.021756
24172		9.240491	-2.746542	0.917020	-0.125026	-0.034666	-0.012752	-0.538330	0.300049	-0.435547	0.731467	-0.210460	-0.648188	-0.022693
24173		9.210235	-2.918411	0.793808	-0.161848	-0.040027	-0.027791	-0.541016	0.301514	-0.446045	0.730666	-0.211821	-0.648594	-0.024189
24174		9.261153	-3.004625	0.746668	-0.176951	-0.053409	-0.045359	-0.543457	0.310059	-0.440186	0.729745	-0.213105	-0.649148	-0.025802
24175		9.338201	-2.992257	0.848052	-0.136523	-0.067003	-0.056848	-0.545410	0.306396	-0.437256	0.728793	-0.214025	-0.649854	-0.027274
24176		9.331527	-2.832210	0.780910	-0.127713	-0.068796	-0.068230	-0.540283	0.308838	-0.433350	0.727840	-0.214724	-0.650628	-0.028733
24177		9.336574	-2.782940	0.665609	-0.116457	-0.072496	-0.076060	-0.539307	0.311035	-0.430420	0.726890	-0.215310	-0.651430	-0.030197
24178		9.333802	-2.395268	0.898644	-0.166190	-0.074550	-0.089904	-0.542480	0.310303	-0.423828	0.725781	-0.216269	-0.652251	-0.032216
24179		9.238198	-2.862397	1.022761	-0.237107	-0.086724	-0.107148	-0.541992	0.302979	-0.428223	0.724349	-0.217734	-0.653214	-0.034965
24180		9.254293	-2.338619	1.472818	-0.264392	-0.091886	-0.126561	-0.552734	0.308105	-0.419189	0.722820	-0.219159	-0.654265	-0.037927
24181		9.289588	-3.309276	0.393616	-0.371632	-0.078708	-0.155303	-0.549805	0.312012	-0.404297	0.721031	-0.221352	-0.655239	-0.042169
24182		9.083591	-3.206123	-0.464805	-0.192862	-0.098416	-0.177335	-0.549072	0.305176	-0.406494	0.719520	-0.221854	-0.656527	-0.045212
24183		9.384557	-3.016668	-0.775332	-0.145200	-0.047045	-0.203355	-0.551270	0.306396	-0.402100	0.718570	-0.221584	-0.657452	-0.048104
24184		9.775675	-3.015704	-0.415124	-0.025815	-0.025489	-0.212176	-0.558838	0.296875	-0.406250	0.718104	-0.220195	-0.658271	-0.050203
24185		9.703006	-2.515246	0.173930	-0.020623	0.032161	-0.223779	-0.558838	0.301514	-0.402100	0.718123	-0.218494	-0.658647	-0.052388
24186		9.683679	-2.572537	-0.461262	-0.040186	0.070379	-0.226300	-0.558594	0.301758	-0.403564	0.718375	-0.217045	-0.658638	-0.054997
24187		9.749653	-2.320903	-0.121559	0.032363	0.077429	-0.216051	-0.565674	0.296143	-0.409912	0.718886	-0.215058	-0.658566	-0.056958
24188		9.754312	-2.111750	-0.024378	0.089738	0.104411	-0.192318	-0.562256	0.286865	-0.417725	0.719791	-0.212649	-0.658249	-0.058225
24189		9.662562	-1.738116	0.162634	0.138795	0.112604	-0.162585	-0.563721	0.280518	-0.415039	0.720947	-0.209945	-0.657808	-0.058714
24190		9.685562	-1.463017	0.405227	0.117618	0.137641	-0.121218	-0.555908	0.284912	-0.415039	0.722256	-0.207738	-0.657039	-0.059090
24191		9.730930	-1.624214	-0.051347	0.100531	0.162804	-0.077107	-0.567383	0.270264	-0.414795	0.723755	-0.206169	-0.655855	-0.059397
24192		9.685303	-2.300183	-0.107193	0.077045	0.200401	-0.061137	-0.557861	0.278076	-0.425049	0.725475	-0.204715	-0.654378	-0.059724
24193		9.688951	-2.602887	0.048628	0.182839	0.216617	-0.052548	-0.553955	0.272949	-0.436279	0.727637	-0.202479	-0.652720	-0.059196
24194		9.874028	-2.323117	-0.123337	0.151902	0.268194	-0.054620	-0.549805	0.277588	-0.436035	0.730166	-0.200395	-0.650557	-0.058952
24195		10.127538	-1.828329	-0.494513	0.234250	0.311993	-0.012745	-0.554199	0.271240	-0.448975	0.733250	-0.197997	-0.647910	-0.057912
24196		10.557753	-0.765774	-0.831728	0.361795	0.359756	0.089496	-0.547119	0.268555	-0.454834	0.737098	-0.195096	-0.644679	-0.054894
24197		10.742892	0.824492	-0.453533	0.580877	0.410919	0.286958	-0.541016	0.263672	-0.467773	0.741976	-0.191741	-0.640594	-0.048432
24198		10.719222	2.219030	-0.021447	0.651277	0.462423	0.576766	-0.532715	0.255859	-0.480957	0.747531	-0.189947	-0.635306	-0.038778
24199		10.367177	2.032841	1.042722	0.565102	0.510971	0.859380	-0.516113	0.268066	-0.483398	0.753276	-0.191023	-0.628767	-0.027154
24200		9.923114	-0.953749	2.042002	0.278492	0.456140	0.990921	-0.508789	0.275391	-0.500977	0.757773	-0.195991	-0.622167	-0.016630
24201		7.846167	-6.047901	0.902061	0.064551	0.153506	0.977215	-0.488770	0.292236	-0.510010	0.759273	-0.202787	-0.618331	-0.007002
24202		8.149932	-8.340054	-2.343858	1.131161	-0.632349	0.969458	-0.497559	0.293213	-0.500488	0.757230	-0.199439	-0.621821	0.012859
24203		8.870379	-4.270486	-0.402851	1.681138	-0.935879	1.011856	-0.503906	0.283203	-0.510010	0.753689	-0.191147	-0.627673	0.037976
24204		8.182164	-2.883511	1.465932	0.329447	-0.892907	0.813399	-0.505615	0.292969	-0.502441	0.746990	-0.193835	-0.633929	0.050666
24205		7.716012	-3.984477	1.187048	-0.679849	-0.799315	0.629916	-0.513184	0.316650	-0.483154	0.738535	-0.204535	-0.640220	0.053389
24206		7.465276	-6.021239	0.120227	-1.363236	-0.557403	0.352960	-0.517334	0.331787	-0.478027	0.730212	-0.219534	-0.645257	0.047311
24207		7.581405	-5.318035	0.662518	-0.969795	-0.385928	0.104376	-0.519287	0.347168	-0.466309	0.724343	-0.228760	-0.649027	0.041951
24208		7.340055	-5.577384	2.019426	-0.854857	-0.327996	-0.160193	-0.526855	0.348145	-0.443604	0.719307	-0.234800	-0.652874	0.034962
24209		7.348435	-5.695333	2.353653	-0.551415	-0.362001	-0.398642	-0.544678	0.362549	-0.444824	0.714866	-0.236202	-0.657554	0.028240
24210		8.037728	-4.534436	2.110602	-0.103037	-0.439767	-0.563621	-0.541260	0.350586	-0.438477	0.711106	-0.232173	-0.663211	0.023996
24211		8.531110	-4.002477	2.536946	0.073958	-0.444568	-0.680332	-0.562744	0.344971	-0.434814	0.707807	-0.225626	-0.669101	0.020153
24212		9.284676	-3.150139	1.913942	0.209688	-0.440714	-0.758902	-0.570068	0.328613	-0.431641	0.704837	-0.217262	-0.675075	0.016622
24213		10.124463	-4.822057	1.529356	0.583869	-0.380319	-0.682865	-0.576904	0.299316	-0.430420	0.703280	-0.206271	-0.680126	0.016691
24214		11.451995	-1.679251	4.026085	1.503118	-0.304445	-0.326436	-0.592529	0.280518	-0.438232	0.704474	-0.190208	-0.683214	0.027485
24215		11.355334	1.537552	3.781974	-0.322232	0.098815	-0.348425	-0.591553	0.276611	-0.435303	0.704633	-0.190144	-0.683283	0.021502
24216		9.679374	-3.564813	-1.488998	-0.524630	0.016138	-0.346438	-0.588623	0.277100	-0.422607	0.703575	-0.191861	-0.684088	0.013972
24217		8.529305	-2.209521	-1.656129	0.541725	-0.277773	-0.217186	-0.603027	0.273193	-0.421387	0.702492	-0.185245	-0.686940	0.017401
24218		8.472086	-1.871036	0.023994	-0.047544	-0.165755	-0.246745	-0.601318	0.270264	-0.431885	0.700983	-0.183565	-0.688980	0.015251
24219		9.678969	-2.084760	0.419131	-0.018443	-0.163530	-0.258450	-0.600830	0.256592	-0.432617	0.699556	-0.181526	-0.691010	0.013244
24220		10.429245	-2.176623	-0.168976	-0.261597	-0.145001	-0.264520	-0.604980	0.261719	-0.422607	0.697725	-0.181560	-0.692917	0.009037
24221		10.129763	-1.078510	-0.925607	-0.111282	-0.120712	-0.149561	-0.603516	0.253174	-0.415771	0.696421	-0.181281	-0.694324	0.007074
24222		10.188623	-2.672133	-1.521935	-0.134639	-0.045848	-0.055469	-0.608887	0.258789	-0.415039	0.695700	-0.182029	-0.694864	0.005551
24223		9.920751	-3.171025	-0.812742	0.069044	0.002435	-0.016177	-0.602783	0.253906	-0.419922	0.695858	-0.181350	-0.694880	0.006029
24224		9.804716	-3.455267	-0.357390	-0.014156	0.068763	-0.050968	-0.598389	0.258057	-0.414551	0.696405	-0.181097	-0.694403	0.005333
24225		9.343211	-3.444118	-0.829082	-0.006751	0.072781	-0.095530	-0.610107	0.250244	-0.412354	0.697005	-0.180393	-0.693991	0.004309
24226		9.086799	-3.035239	-0.318814	0.025629	0.043361	-0.132084	-0.599365	0.253906	-0.414551	0.697421	-0.179084	-0.693918	0.003320
24227		9.093887	-2.304139	-0.338740	-0.267203	-0.029402	-0.182972	-0.607910	0.258057	-0.416748	0.696547	-0.179884	-0.694596	-0.000488
24228		9.582021	-2.312142	-0.677750	-0.328573	0.046938	-0.205038	-0.609863	0.250732	-0.413818	0.696184	-0.181022	-0.694645	-0.005193
24229		9.581137	-1.686661	-0.516742	-0.236980	0.090853	-0.165791	-0.609131	0.252441	-0.415771	0.696398	-0.181696	-0.694217	-0.008861
24230		9.884412	-1.118322	-0.384587	-0.375440	0.109614	-0.132829	-0.611328	0.250244	-0.421875	0.696451	-0.183856	-0.693521	-0.013490
24231		9.600587	-1.854060	-0.512186	-0.357278	0.145861	-0.075799	-0.611816	0.254150	-0.414062	0.696852	-0.186342	-0.692362	-0.017554
24232		9.679257	-1.962021	0.013986	-0.319199	0.142030	-0.040018	-0.613525	0.260742	-0.421387	0.697300	-0.188804	-0.691149	-0.020969
24233		9.637123	-2.399861	-0.306106	-0.326564	0.160349	-0.013171	-0.607910	0.260254	-0.412598	0.697883	-0.191555	-0.689694	-0.024259
24234		9.532649	-1.896857	0.138590	-0.214510	0.153739	0.001705	-0.603516	0.268555	-0.417725	0.698669	-0.193454	-0.688286	-0.026436
24235		9.476007	-2.946118	-0.019993	-0.287714	0.163977	-0.020505	-0.607178	0.268799	-0.418945	0.699351	-0.195799	-0.686806	-0.029464
24236		9.285475	-2.616925	0.227811	-0.086892	0.132744	-0.022283	-0.606934	0.276855	-0.417236	0.700248	-0.196380	-0.685672	-0.030703
24237		9.634626	-2.395153	-0.108605	-0.200288	0.121427	-0.039237	-0.607666	0.273926	-0.414551	0.700757	-0.197814	-0.684630	-0.033033
24238		9.403612	-2.507614	-0.135153	-0.046097	0.080468	-0.028754	-0.597900	0.267822	-0.426270	0.701298	-0.198000	-0.683982	-0.033850
24239		9.699114	-1.679868	-0.226290	-0.141533	0.100941	-0.024857	-0.595947	0.271484	-0.419189	0.701781	-0.199045	-0.683099	-0.035499
24240		9.422656	-2.517972	-0.527637	-0.055976	0.086975	-0.003953	-0.606445	0.273682	-0.423096	0.702362	-0.199526	-0.682324	-0.036201
24241		9.636430	-2.390272	0.139913	-0.009335	0.090813	-0.013567	-0.601318	0.278564	-0.424561	0.703086	-0.199512	-0.681561	-0.036597
24242		9.591728	-2.329486	-0.437612	0.013818	0.142661	-0.004724	-0.600098	0.277832	-0.430664	0.704313	-0.199348	-0.680328	-0.036848
24243		9.664306	-1.281411	-0.264115	0.012338	0.121451	0.014407	-0.596924	0.273193	-0.436523	0.705363	-0.199369	-0.679231	-0.036890
24244		9.746750	-2.214192	-0.614315	-0.044491	0.154027	0.057423	-0.596191	0.273193	-0.432373	0.706566	-0.200239	-0.677710	-0.037120
24245		9.497277	-1.740189	0.275505	0.086135	0.157116	0.082216	-0.600586	0.275635	-0.437012	0.708128	-0.200162	-0.676159	-0.036031
24246		9.612827	-2.904626	0.078592	-0.028076	0.207356	0.070631	-0.583496	0.274170	-0.439941	0.709819	-0.200974	-0.674137	-0.036138
24247		9.564148	-3.083659	-0.404293	0.106425	0.228737	0.054040	-0.586914	0.272461	-0.430420	0.712015	-0.200443	-0.672019	-0.035311
24248		9.671383	-2.389605	0.051610	-0.016078	0.211230	0.013624	-0.578613	0.277344	-0.440430	0.713730	-0.200667	-0.670104	-0.035823
24249		9.393323	-2.883250	-0.171241	-0.022677	0.207988	-0.010727	-0.585449	0.278809	-0.450684	0.715387	-0.200748	-0.668267	-0.036600
24250		9.416580	-2.148772	0.191174	0.052453	0.213225	-0.026965	-0.579102	0.279541	-0.445801	0.717264	-0.200016	-0.666456	-0.036904
24251		9.437532	-2.682921	0.273743	0.080721	0.229118	-0.034863	-0.580078	0.273926	-0.455322	0.719334	-0.198958	-0.664529	-0.037085
24252		9.396514	-2.335668	0.758024	0.147611	0.214820	-0.041889	-0.579102	0.275879	-0.461182	0.721441	-0.197241	-0.662774	-0.036734
24253		9.860671	-2.806432	0.782842	0.394101	0.241372	-0.021565	-0.577881	0.270508	-0.468506	0.724370	-0.193456	-0.660826	-0.034223
24254		9.827730	-1.664150	0.057772	0.445167	0.329634	-0.007424	-0.575928	0.254639	-0.474121	0.728129	-0.189278	-0.658041	-0.031373
24255		9.892827	-0.648717	-0.673070	0.196127	0.337489	0.011716	-0.567383	0.262207	-0.482422	0.731344	-0.187507	-0.655021	-0.030411
24256		9.802564	-2.038661	-0.511833	0.093953	0.305392	0.061012	-0.565430	0.262695	-0.491455	0.734061	-0.187092	-0.652123	-0.029772
24257		9.868692	-4.072783	1.178385	0.648728	0.242314	0.107801	-0.562744	0.250000	-0.500488	0.737545	-0.181983	-0.649871	-0.024033
24258		10.159972	-2.010809	1.323537	0.690316	0.339615	0.088384	-0.562988	0.246338	-0.509766	0.741845	-0.176282	-0.646726	-0.018343
24259		9.685885	-3.603658	-0.563625	0.135355	0.281142	0.019857	-0.558105	0.249512	-0.521973	0.744393	-0.175179	-0.644112	-0.017649
24260		9.901082	-4.358774	0.221624	0.269795	0.229479	-0.086603	-0.553467	0.242676	-0.523193	0.746782	-0.171979	-0.642230	-0.016746
24261		9.616972	-5.958720	1.335477	0.586344	0.140439	-0.285939	-0.554688	0.232422	-0.526367	0.749060	-0.164232	-0.641648	-0.014959
24262		8.606414	-5.715132	1.474636	0.887537	-0.163868	-0.550052	-0.575928	0.208252	-0.535889	0.749376	-0.151582	-0.644438	-0.012586
24263		8.534244	-2.763537	1.392084	1.303571	-0.492823	-0.650091	-0.579590	0.176758	-0.538574	0.747612	-0.134237	-0.650389	-0.007154
24264		9.389782	0.732745	-0.188011	1.489389	-0.688187	-0.457515	-0.596680	0.144043	-0.529541	0.744283	-0.116682	-0.657589	0.001922
24265		9.298937	1.760080	-0.333439	1.402451	-0.667469	-0.127252	-0.604004	0.121826	-0.523926	0.740680	-0.102604	-0.663843	0.013313
24266		9.281028	1.946418	0.344682	1.056380	-0.470288	0.228846	-0.616699	0.121582	-0.523438	0.737989	-0.094690	-0.667674	0.024857
24267		8.291993	-0.100357	2.172803	-0.328029	0.111112	0.404484	-0.608643	0.127197	-0.528564	0.738359	-0.101183	-0.666276	0.025758
24268		7.578819	-1.439557	1.122977	-1.137452	0.281593	0.150763	-0.602295	0.133545	-0.526855	0.739112	-0.113076	-0.663797	0.017351
24269		7.621983	-2.079314	0.758491	-1.199567	0.211183	-0.052783	-0.601807	0.156738	-0.517090	0.739070	-0.123813	-0.662119	0.006644
24270		7.707170	-1.305639	0.068204	-1.093220	-0.017084	-0.135535	-0.605713	0.169922	-0.521240	0.737154	-0.132837	-0.662530	-0.003594
24271		8.783709	-3.833033	-1.346668	-0.182924	-0.252886	-0.136784	-0.609375	0.173828	-0.509766	0.734719	-0.133460	-0.665088	-0.005913
24272		12.676823	2.179172	5.903172	1.671868	-0.295631	-0.097275	-0.616455	0.152588	-0.527832	0.734852	-0.117348	-0.667955	0.007633
24273		12.871967	0.847351	9.238800	-0.759681	0.294134	0.227674	-0.604004	0.158691	-0.530029	0.736108	-0.126310	-0.664967	0.002972
24274		10.297500	-3.275005	-0.369450	-0.459890	0.056396	0.182221	-0.606445	0.175781	-0.524902	0.735815	-0.132121	-0.664169	0.000742
24275		9.998444	-3.261616	-1.880890	-0.314855	-0.138139	0.114094	-0.605469	0.176514	-0.507568	0.734123	-0.136025	-0.665252	-0.000582
24276		9.116703	-3.648081	0.774161	-0.007459	-0.082779	0.040175	-0.607178	0.179443	-0.519043	0.733403	-0.136491	-0.665951	-0.000116
24277		8.428602	-3.591810	2.201437	0.014351	-0.092533	-0.065747	-0.603760	0.180664	-0.510742	0.732637	-0.135873	-0.666919	-0.000414
24278		8.783082	-1.872025	2.367211	0.138685	-0.124123	-0.088562	-0.614990	0.166992	-0.516113	0.731817	-0.133925	-0.668212	0.000177
24279		9.565519	-0.727823	1.236491	0.084658	-0.095632	-0.043518	-0.601074	0.168213	-0.514160	0.731143	-0.132846	-0.669165	0.000681
24280		9.562986	-1.136586	-0.535715	0.006658	-0.068398	0.010093	-0.614258	0.169678	-0.507568	0.730565	-0.132930	-0.669779	0.000971
24281		9.706135	-1.735594	-0.238985	0.167807	-0.119578	0.045848	-0.616211	0.171143	-0.501465	0.729823	-0.131841	-0.670796	0.003020
24282		10.334293	-1.018586	1.204562	0.127800	-0.108978	0.075021	-0.613770	0.172363	-0.509521	0.729097	-0.131361	-0.671667	0.004980
24283		10.147833	-1.520704	0.621698	-0.038433	-0.047962	0.087948	-0.616455	0.172607	-0.505127	0.728608	-0.132509	-0.671968	0.005558
24284		9.904239	-2.351496	-0.991290	-0.087517	-0.055452	0.100419	-0.603760	0.176025	-0.503174	0.727971	-0.134208	-0.672318	0.005847
24285		9.594461	-2.402968	-0.344321	-0.016158	-0.042781	0.075227	-0.607910	0.173340	-0.500000	0.727560	-0.135047	-0.672589	0.006486
24286		9.646926	-2.395221	0.787227	-0.014926	-0.001488	0.046388	-0.604248	0.177979	-0.505859	0.727499	-0.135635	-0.672534	0.006808
24287		9.570809	-2.355828	0.441544	0.080642	0.005567	0.041072	-0.610352	0.178467	-0.509766	0.727660	-0.135309	-0.672414	0.007873
24288		9.711175	-1.973940	0.349023	0.088961	0.036602	0.040133	-0.615234	0.176758	-0.508057	0.728094	-0.134903	-0.672012	0.008949
24289		9.483319	-2.390652	0.239090	0.077391	0.037085	0.024613	-0.611328	0.176514	-0.500000	0.728513	-0.134470	-0.671633	0.009786
24290		9.459537	-1.845070	0.518033	0.056544	0.019551	0.014208	-0.611084	0.176270	-0.506104	0.728749	-0.134138	-0.671434	0.010385
24291		9.674618	-2.045020	0.199898	-0.025240	0.052747	-0.000650	-0.609375	0.175537	-0.503418	0.729130	-0.134431	-0.670967	0.010104
24292		9.429454	-2.714692	0.199567	0.012616	0.061990	-0.017495	-0.611084	0.177979	-0.504395	0.729652	-0.134238	-0.670439	0.009973
24293		9.589489	-2.419781	0.683264	-0.002100	0.081315	-0.064461	-0.611084	0.173828	-0.511963	0.730317	-0.133788	-0.669816	0.009261
24294		9.576286	-2.117353	0.223377	-0.077404	0.124864	-0.096077	-0.600830	0.176025	-0.516113	0.731221	-0.133764	-0.668854	0.007558
24295		9.414801	-1.949780	0.356047	-0.031931	0.117541	-0.101448	-0.607910	0.172852	-0.518799	0.732138	-0.133281	-0.667960	0.006196
24296		9.473731	-2.158970	0.614694	-0.021994	0.129941	-0.105140	-0.607666	0.174805	-0.522217	0.733172	-0.132674	-0.666958	0.004866
24297		9.369074	-1.984916	0.806658	0.061429	0.087606	-0.098347	-0.607178	0.167480	-0.509521	0.733988	-0.131356	-0.666324	0.004364
24298		10.012946	-1.269844	0.509809	0.140960	0.169249	-0.075732	-0.610352	0.171875	-0.524170	0.735609	-0.129500	-0.664897	0.004601
24299		9.978374	-1.445088	0.173802	0.090376	0.235848	-0.045266	-0.607910	0.162109	-0.524902	0.737693	-0.128367	-0.662804	0.004584
24300		9.736130	-1.938909	0.216063	0.140872	0.244047	-0.012616	-0.604736	0.163086	-0.536865	0.739916	-0.127037	-0.660574	0.005272
24301		9.645471	-2.001856	0.829568	0.173000	0.237957	0.000552	-0.597656	0.156738	-0.533203	0.742129	-0.125517	-0.658369	0.006356
24302		10.104699	-2.077130	1.228543	0.071104	0.300067	-0.039110	-0.593750	0.160156	-0.539795	0.744686	-0.124619	-0.655649	0.006137
24303		10.223848	-3.305554	1.311497	0.039949	0.283854	-0.130966	-0.595459	0.158447	-0.547607	0.747057	-0.123255	-0.653215	0.004832
24304		10.543710	-2.578736	1.433369	0.183643	0.326403	-0.204480	-0.586426	0.156982	-0.558350	0.749986	-0.119949	-0.650475	0.003954
24305		10.908621	-1.288257	1.141041	0.050945	0.375551	-0.227374	-0.582031	0.143555	-0.566895	0.753095	-0.117699	-0.647296	0.001710
24306		11.453758	-2.216417	1.278673	0.227960	0.339555	-0.173359	-0.576416	0.139160	-0.562744	0.756149	-0.114215	-0.644354	0.001458
24307		12.343390	-0.902805	1.808556	0.329312	0.245542	-0.165859	-0.583496	0.130615	-0.572998	0.758567	-0.109829	-0.642269	0.002229
24308		12.610716	0.725027	3.329427	0.372556	0.199514	-0.175382	-0.579834	0.124756	-0.581543	0.760652	-0.104952	-0.640611	0.003314
24309		11.317156	0.026216	2.207860	0.525522	0.132835	-0.096601	-0.589600	0.118408	-0.570068	0.762372	-0.099247	-0.639451	0.006446
24310		11.452482	1.594050	1.869078	0.463395	0.109804	-0.122697	-0.585449	0.106689	-0.581055	0.763801	-0.093920	-0.638521	0.008854
24311		11.279429	0.520702	1.079119	0.108309	0.176078	-0.192809	-0.588623	0.104980	-0.582520	0.765332	-0.091431	-0.637063	0.007664
24312		10.113380	-0.357922	0.661941	-0.154316	0.227280	-0.218884	-0.584961	0.094971	-0.582275	0.766960	-0.091252	-0.635160	0.004065
24313		9.523790	-1.418031	0.810876	-0.291694	0.184935	-0.268134	-0.590820	0.106934	-0.582764	0.768079	-0.091994	-0.633712	-0.001052
24314		9.312184	-2.066697	1.003502	-0.170313	0.076554	-0.326766	-0.593506	0.109863	-0.588135	0.768457	-0.091106	-0.633358	-0.005646
24315		8.918505	-2.351188	0.977580	0.015537	-0.026376	-0.273640	-0.592773	0.099609	-0.580078	0.768222	-0.088858	-0.633935	-0.008137
24316		8.564917	-3.055323	0.889158	0.321986	-0.126189	-0.111545	-0.599365	0.093018	-0.574951	0.767540	-0.084960	-0.635313	-0.006525
24317		8.602040	-3.788503	0.520398	0.456209	-0.157815	0.045857	-0.602295	0.093506	-0.574951	0.766739	-0.081023	-0.636821	-0.002295
24318		8.876855	-2.986185	1.602862	0.520091	-0.138250	-0.049922	-0.610596	0.080322	-0.573486	0.766125	-0.075707	-0.638216	0.001519
24319		8.928642	-2.186122	1.600296	0.443032	-0.093614	-0.060570	-0.611084	0.077637	-0.578613	0.765764	-0.071039	-0.639170	0.004582
24320		9.255143	-1.545969	1.624686	0.326794	-0.093549	0.020889	-0.616943	0.071289	-0.576904	0.765276	-0.068133	-0.640043	0.007502
24321		8.911918	-2.306490	2.062776	0.140645	-0.121302	0.086528	-0.625977	0.068115	-0.570068	0.764392	-0.067529	-0.641134	0.009586
24322		8.620813	-3.598992	2.137354	0.300904	-0.206399	0.067602	-0.624023	0.064697	-0.574951	0.762953	-0.065230	-0.643027	0.012851
24323		8.900850	-2.459155	1.896596	0.644930	-0.274275	0.044510	-0.637695	0.060791	-0.564453	0.761215	-0.059449	-0.645498	0.018726
24324		9.428673	-0.568692	1.721770	0.606209	-0.227871	0.085454	-0.633301	0.054199	-0.562500	0.759758	-0.054372	-0.647459	0.024649
24325		9.613010	-0.230817	1.815484	0.314420	-0.052052	0.202922	-0.631836	0.049316	-0.562012	0.759457	-0.053069	-0.647731	0.029204
24326		9.121339	-0.660549	2.648704	0.013880	0.013200	0.170296	-0.639160	0.054199	-0.566895	0.759486	-0.054379	-0.647507	0.030967
24327		9.008071	-0.841369	2.523487	-0.224690	0.019880	0.061067	-0.635010	0.061279	-0.559326	0.759445	-0.057072	-0.647379	0.029756
24328		9.208963	-0.779940	1.834748	-0.302727	0.064199	0.042653	-0.640381	0.065186	-0.560791	0.759706	-0.060372	-0.646865	0.027705
24329		8.860022	-0.617798	1.453446	-0.393413	0.052878	0.039987	-0.640625	0.069092	-0.572754	0.759792	-0.064508	-0.646478	0.024902
24330		8.111213	-1.851024	1.959716	-0.352936	0.051741	0.022967	-0.639160	0.066650	-0.558105	0.759891	-0.068120	-0.646089	0.022262
24331		7.597263	-2.135969	1.845467	-0.039099	-0.013275	-0.046446	-0.647461	0.082764	-0.556396	0.759743	-0.068170	-0.646281	0.021556
24332		8.032319	0.018967	1.905234	-0.018401	-0.020361	-0.167058	-0.646484	0.083496	-0.560547	0.759586	-0.067048	-0.646636	0.019882
24333		8.422970	-0.096882	1.448441	-0.286538	0.104034	-0.109604	-0.645020	0.078857	-0.562744	0.760189	-0.068966	-0.645822	0.016477
24334		8.107988	-0.324090	1.889310	-0.339838	0.130492	-0.063228	-0.639648	0.082764	-0.558594	0.760935	-0.071770	-0.644714	0.013055
24335		8.406780	-1.736994	1.261357	-0.422810	0.153568	-0.015784	-0.635986	0.083252	-0.566162	0.761766	-0.075748	-0.643340	0.009391
24336		9.185985	-1.375444	1.371132	-0.323452	0.118917	-0.116091	-0.635498	0.089600	-0.568604	0.762404	-0.077967	-0.642363	0.005607
24337		9.411840	-1.339148	1.464611	-0.434226	0.099040	-0.144638	-0.638916	0.096191	-0.560303	0.762755	-0.081008	-0.641593	0.000681
24338		9.737590	-1.637790	1.326402	-0.352384	0.058059	-0.122588	-0.633301	0.094238	-0.565918	0.762839	-0.083444	-0.641173	-0.003336
24339		9.495485	-1.429045	1.480393	-0.212418	-0.008129	-0.114726	-0.630127	0.097656	-0.560303	0.762526	-0.084608	-0.641372	-0.006086
24340		9.531196	-1.457008	1.259170	-0.051131	-0.039281	-0.087940	-0.638428	0.104248	-0.560059	0.762132	-0.084452	-0.641849	-0.007253
24341		9.613695	-1.241346	1.527595	0.210690	-0.084728	-0.059095	-0.635986	0.085205	-0.562988	0.761648	-0.082037	-0.642749	-0.005996
24342		9.785055	-1.309684	1.409520	0.412744	-0.118402	-0.031321	-0.639404	0.082031	-0.565186	0.761089	-0.077922	-0.643944	-0.002816
24343		9.797251	-0.730403	1.739843	0.579452	-0.145103	-0.024381	-0.631836	0.071045	-0.561768	0.760445	-0.072275	-0.645365	0.001799
24344		9.865334	-0.216768	2.136264	0.374779	-0.081387	-0.060903	-0.638184	0.063721	-0.559814	0.760101	-0.068277	-0.646193	0.004356
24345		9.624079	-0.704487	2.080537	0.172354	-0.009224	-0.067352	-0.648193	0.069580	-0.560791	0.760158	-0.066154	-0.646341	0.005151
24346		9.293211	-0.921526	1.954372	0.123197	0.007621	-0.068516	-0.641602	0.059326	-0.564697	0.760307	-0.064490	-0.646331	0.005522
24347		9.237871	-0.852616	1.721055	0.077847	0.025543	-0.063616	-0.641846	0.062500	-0.560547	0.760563	-0.063298	-0.646147	0.005559
24348		8.930578	-1.194005	1.463517	0.086810	0.034430	-0.059682	-0.645020	0.059326	-0.566406	0.760897	-0.062052	-0.645874	0.005697
24349		8.410588	-1.203395	1.650696	0.250004	-0.014320	-0.038384	-0.643066	0.057861	-0.562012	0.760957	-0.059423	-0.646033	0.007395
24350		8.549367	-0.504415	1.683188	0.318193	-0.031127	0.000220	-0.643066	0.049072	-0.561035	0.760919	-0.056454	-0.646308	0.010024
24351		9.069986	-0.553092	1.731634	0.173178	0.024283	-0.010174	-0.637695	0.053467	-0.570312	0.761221	-0.054787	-0.646075	0.011343
24352		8.807008	-1.260026	2.155051	0.109982	0.015400	-0.068200	-0.644043	0.040039	-0.567383	0.761413	-0.053251	-0.645972	0.011603
24353		8.575283	-0.581052	2.242552	0.110035	-0.044064	-0.107348	-0.643066	0.037598	-0.567627	0.761129	-0.051390	-0.646459	0.011532
24354		8.804037	0.212470	2.143049	-0.012790	0.005466	-0.083104	-0.645752	0.031738	-0.569824	0.761161	-0.050901	-0.646474	0.010666
24355		8.602484	-0.085720	2.262200	-0.148474	0.096181	-0.041101	-0.639648	0.046387	-0.570068	0.761833	-0.052054	-0.645615	0.009042
24356		8.654015	-0.531943	2.250432	-0.255969	0.157795	-0.027309	-0.631836	0.045166	-0.568115	0.762924	-0.054350	-0.644166	0.006638
24357		9.161536	-0.663103	2.009283	-0.336380	0.218507	-0.027952	-0.627197	0.055908	-0.572266	0.764434	-0.057411	-0.642131	0.003538
24358		9.591845	-0.860121	1.716417	-0.340391	0.257625	-0.000819	-0.629150	0.050537	-0.572998	0.766234	-0.060729	-0.639685	0.000636
24359		9.328972	-0.909289	1.757446	-0.241675	0.237639	0.063762	-0.622803	0.062012	-0.581543	0.767931	-0.063615	-0.637365	-0.000842
24360		8.887445	-0.950717	1.891083	-0.192535	0.197740	0.078464	-0.614014	0.062012	-0.584961	0.769337	-0.066147	-0.635407	-0.001758
24361		9.397628	-1.319985	1.580462	-0.285715	0.234331	0.030415	-0.610596	0.071777	-0.591797	0.770942	-0.069192	-0.633124	-0.003905
24362		10.012444	-1.441906	1.619685	-0.187574	0.228933	-0.006639	-0.605225	0.071533	-0.593994	0.772574	-0.070997	-0.630918	-0.005628
24363		9.308659	-1.116937	1.895779	-0.144858	0.156784	0.006200	-0.600098	0.068115	-0.598389	0.773667	-0.072494	-0.629394	-0.006823
24364		8.693547	-1.372154	1.725239	-0.214404	0.110671	-0.038500	-0.603271	0.071533	-0.595703	0.774325	-0.074314	-0.628345	-0.008954
24365		10.338074	-2.779492	0.784791	-0.055675	0.127634	-0.111598	-0.591797	0.070557	-0.595703	0.775249	-0.074020	-0.627215	-0.010556
24366		11.822614	-1.739787	0.964490	0.366662	0.039019	-0.097953	-0.601318	0.065186	-0.599854	0.775860	-0.069752	-0.626979	-0.008631
24367		11.336944	-0.987990	1.267231	0.386364	-0.051425	0.007056	-0.593994	0.056641	-0.602051	0.775770	-0.066123	-0.627518	-0.005447
24368		9.672985	-1.290402	1.982880	0.490257	-0.168100	0.094067	-0.595947	0.052734	-0.608643	0.774832	-0.062175	-0.629102	-0.000513
24369		8.983407	-1.692242	2.228779	0.395838	-0.190159	0.005009	-0.592285	0.048340	-0.600586	0.773620	-0.058443	-0.630943	0.002827
24370		10.643748	-0.547266	1.874099	0.217668	-0.045820	-0.093577	-0.593018	0.045166	-0.604980	0.773403	-0.055660	-0.631455	0.003708
24371		10.879690	-0.267674	1.799832	-0.046692	0.088593	-0.029741	-0.592285	0.042969	-0.605713	0.774057	-0.055944	-0.630632	0.003021
24372		9.581850	-0.995729	1.337199	0.047371	0.041717	0.136305	-0.602295	0.047852	-0.604492	0.774397	-0.056622	-0.630143	0.004719
24373		8.619153	-1.405137	1.633744	0.267470	-0.106987	0.190908	-0.589844	0.037598	-0.604736	0.773708	-0.055587	-0.631037	0.008791
24374		9.412036	-1.064480	1.487084	0.249825	-0.143361	0.111333	-0.592041	0.043945	-0.607178	0.772717	-0.054090	-0.632328	0.011978
24375		10.046463	-0.427152	1.676008	0.064765	-0.092471	0.031534	-0.589355	0.036133	-0.601318	0.772008	-0.053761	-0.633204	0.012894
24376		9.312201	-0.425199	1.637466	-0.066489	-0.104792	0.058140	-0.593262	0.041016	-0.601807	0.771106	-0.054903	-0.634201	0.013039
24377		8.640893	-1.112985	1.716033	0.038374	-0.180932	0.123887	-0.600586	0.037842	-0.602539	0.769657	-0.055545	-0.635867	0.014697
24378		9.275120	-0.903941	1.542235	0.167751	-0.175612	0.131404	-0.599365	0.041992	-0.604492	0.768331	-0.055000	-0.637446	0.017456
24379		9.353430	-0.506451	1.755676	0.077358	-0.089824	0.109532	-0.601807	0.043701	-0.597412	0.767626	-0.055169	-0.638230	0.019221
24380		8.961281	-0.729579	1.652421	0.071714	-0.068652	0.155786	-0.595947	0.037109	-0.603760	0.767070	-0.055766	-0.638778	0.021371
24381		9.400926	-1.177121	1.548532	0.112971	-0.078231	0.198117	-0.599365	0.042725	-0.594238	0.766449	-0.056303	-0.639373	0.024260
24382		10.588697	1.589769	3.104583	0.277288	-0.085923	-0.064404	-0.594971	0.037598	-0.596924	0.765953	-0.053164	-0.640168	0.025954
24383		12.310335	2.172989	3.035269	-0.074856	-0.075854	-0.157799	-0.598389	0.041748	-0.594238	0.765329	-0.052654	-0.641036	0.023917
24384		13.407614	0.145426	2.293607	-0.213376	-0.064429	0.078885	-0.600098	0.035400	-0.604004	0.764629	-0.055371	-0.641675	0.023012
24385		11.675803	-2.896005	1.155224	-0.094009	-0.061814	0.274757	-0.594971	0.042969	-0.603271	0.763969	-0.058519	-0.642111	0.024928
24386		9.336062	-4.008356	1.625174	-0.066494	-0.075927	0.209988	-0.602051	0.057129	-0.593750	0.763225	-0.060879	-0.642713	0.026463
24387		9.417315	-3.761078	1.607163	-0.331647	-0.042505	0.068047	-0.591064	0.058105	-0.598633	0.762585	-0.064636	-0.643185	0.024499
24388		9.634399	-2.883907	1.510997	-0.172477	-0.073597	-0.029930	-0.595947	0.054443	-0.595703	0.761843	-0.066077	-0.643975	0.022916
24389		9.315290	-1.502947	2.029529	-0.066035	-0.079048	-0.053276	-0.597656	0.061768	-0.596680	0.761149	-0.066313	-0.644804	0.021978
24390		8.813529	-0.930919	1.712765	0.109464	-0.100889	-0.061650	-0.608398	0.053223	-0.590332	0.760424	-0.064805	-0.645798	0.022394
24391		9.315923	0.200838	1.540327	0.143671	-0.132015	-0.038697	-0.606201	0.053711	-0.585449	0.759465	-0.063149	-0.647055	0.023329
24392		9.625899	0.602234	1.067789	-0.090690	-0.093348	-0.023090	-0.602295	0.062500	-0.583984	0.758627	-0.063855	-0.647998	0.022479
24393		9.777868	-0.103950	0.769273	-0.199161	-0.073368	0.035162	-0.605713	0.057373	-0.583496	0.757844	-0.066070	-0.648733	0.021280
24394		10.144882	-0.676138	1.076393	-0.177816	-0.051586	0.075241	-0.605957	0.068848	-0.582031	0.757239	-0.068412	-0.649218	0.020612
24395		10.099550	-1.366799	0.888884	-0.248003	0.001635	0.093700	-0.609619	0.065186	-0.579346	0.756994	-0.071582	-0.649196	0.019500
24396		9.888967	-2.115299	0.795496	-0.190990	0.014060	0.107592	-0.607666	0.080078	-0.573486	0.756890	-0.074327	-0.649025	0.018974
24397		9.673590	-2.255328	1.329291	-0.159654	0.037499	0.071945	-0.601074	0.080322	-0.580322	0.757008	-0.076492	-0.648653	0.018343
24398		9.673061	-2.419259	1.303854	-0.108572	0.060100	0.036549	-0.595947	0.088379	-0.580566	0.757364	-0.077892	-0.648088	0.017772
24399		9.569519	-1.921107	1.111833	0.020710	0.066181	0.017840	-0.600830	0.079346	-0.584473	0.757897	-0.077918	-0.647453	0.018068
24400		9.600986	-2.256102	0.995472	0.191796	0.067703	0.024181	-0.593506	0.079834	-0.579102	0.758604	-0.076370	-0.646757	0.019814
24401		9.906271	-1.286525	1.445479	0.298341	0.105041	0.020601	-0.599365	0.073486	-0.588135	0.759707	-0.073793	-0.645679	0.022353
24402		9.723752	-2.146488	1.197616	0.340989	0.143073	-0.005524	-0.596924	0.064941	-0.590088	0.761149	-0.070608	-0.644239	0.024954
24403		9.923933	-2.029280	1.013739	0.399734	0.160700	-0.003611	-0.595703	0.066162	-0.589111	0.762765	-0.066882	-0.642596	0.028033
24404		10.155305	-2.175452	1.355869	0.456469	0.169549	-0.009255	-0.601318	0.054443	-0.591553	0.764476	-0.062573	-0.640834	0.031506
24405		10.280189	-1.932294	1.755417	0.375276	0.211673	-0.022304	-0.603271	0.053711	-0.606689	0.766441	-0.058946	-0.638691	0.034179
24406		10.395513	-1.512297	1.787830	0.382499	0.215986	-0.019011	-0.598145	0.040039	-0.604004	0.768421	-0.055279	-0.636482	0.036933
24407		10.621830	-0.470228	2.179223	0.221150	0.216443	0.000574	-0.587402	0.036621	-0.618652	0.770267	-0.053312	-0.634316	0.038596
24408		10.878588	-0.435998	1.903779	0.006052	0.211923	0.036384	-0.586182	0.039307	-0.613281	0.771910	-0.053703	-0.632264	0.038890
24409		11.076328	-0.120084	2.116269	-0.090984	0.164742	0.088127	-0.588379	0.037354	-0.613770	0.773084	-0.055415	-0.630677	0.038947
24410		11.007590	-1.454963	0.929309	-0.185509	0.071606	0.130559	-0.583984	0.047607	-0.618408	0.773431	-0.058327	-0.630002	0.038732
24411		11.102932	-1.008065	2.470951	0.004533	0.042082	0.143579	-0.584473	0.050781	-0.614746	0.773673	-0.059494	-0.629507	0.040153
24412		10.991807	-0.849345	2.396201	-0.214448	0.021369	0.069228	-0.591553	0.057373	-0.618164	0.773621	-0.062183	-0.629374	0.039147
24413		11.221565	-0.719363	2.618121	-0.170000	0.026293	0.033401	-0.586670	0.066406	-0.611084	0.773655	-0.064162	-0.629195	0.038138
24414		11.005025	-1.110580	2.690544	-0.237961	0.040095	-0.036211	-0.593506	0.059326	-0.616699	0.773772	-0.066261	-0.628966	0.035903
24415		10.786137	-0.782713	2.722717	-0.175632	0.007977	-0.075067	-0.589111	0.066895	-0.612305	0.773698	-0.067428	-0.629048	0.033818
24416		10.631103	-0.472339	2.637975	-0.246451	0.030961	-0.090837	-0.588379	0.072754	-0.614990	0.773747	-0.069171	-0.628944	0.030993
24417		10.337516	-0.800089	2.784179	-0.296430	0.064288	-0.104730	-0.591797	0.071533	-0.606689	0.774011	-0.071305	-0.628538	0.027602
24418		10.073368	-0.977737	2.613000	-0.307795	0.079177	-0.138738	-0.595459	0.077637	-0.602783	0.774378	-0.073276	-0.628015	0.023793
24419		9.771173	-0.695307	2.437567	-0.344928	0.091991	-0.167807	-0.596924	0.084473	-0.598633	0.774803	-0.075379	-0.627393	0.019401
24420		9.313669	-0.627364	2.286854	-0.423851	0.120126	-0.170528	-0.603271	0.085205	-0.610596	0.775351	-0.078233	-0.626502	0.014334
24421		8.985423	-0.936452	2.087300	-0.509078	0.144357	-0.181290	-0.600342	0.090576	-0.596680	0.775977	-0.081827	-0.625374	0.008466
24422		8.460948	-1.691788	1.991416	-0.472613	0.129603	-0.209036	-0.601562	0.092773	-0.605225	0.776493	-0.084848	-0.624382	0.002624
24423		8.350189	-1.549193	1.928596	-0.305388	0.083145	-0.224125	-0.594727	0.098389	-0.598145	0.776800	-0.086126	-0.623827	-0.002016
24424		8.351808	-1.591067	1.949771	-0.136479	0.075936	-0.220083	-0.599121	0.097412	-0.595215	0.777219	-0.085797	-0.623331	-0.005293
24425		8.266851	-1.419190	2.175147	-0.005960	0.078868	-0.209961	-0.601074	0.086426	-0.590576	0.777795	-0.084275	-0.622798	-0.007455
24426		8.362301	-0.728310	2.306276	-0.029168	0.121098	-0.200356	-0.605713	0.087402	-0.596191	0.778670	-0.083050	-0.621837	-0.009748
24427		8.321992	-0.679735	2.137091	-0.233788	0.204732	-0.194623	-0.611328	0.091064	-0.600098	0.779972	-0.083849	-0.620022	-0.013663
24428		8.283440	-1.060395	1.783686	-0.356906	0.233110	-0.177854	-0.600342	0.094238	-0.598633	0.781346	-0.085972	-0.617874	-0.018399
24429		8.030133	-1.721302	1.628997	-0.329241	0.203911	-0.163169	-0.593262	0.101807	-0.598145	0.782505	-0.087942	-0.615983	-0.022746
24430		7.975045	-1.845743	1.641991	-0.223073	0.148728	-0.178759	-0.592285	0.100586	-0.608643	0.783334	-0.088767	-0.614666	-0.026364
24431		8.120131	-1.796290	1.562823	-0.122443	0.115803	-0.179035	-0.595703	0.101074	-0.594482	0.784011	-0.088614	-0.613697	-0.029170
24432		8.315837	-1.632078	1.572511	0.013340	0.094521	-0.136204	-0.593018	0.095215	-0.599365	0.784685	-0.087465	-0.612936	-0.030488
24433		8.255551	-1.618366	1.598599	0.097098	0.080176	-0.082387	-0.583740	0.088135	-0.610596	0.785358	-0.085911	-0.612286	-0.030617
24434		8.429369	-1.413892	1.806128	0.107453	0.077948	-0.052613	-0.585938	0.084229	-0.602051	0.786034	-0.084484	-0.611630	-0.030369
24435		8.630696	-1.562557	1.948396	0.049621	0.069245	-0.037749	-0.580566	0.102051	-0.606201	0.786586	-0.083742	-0.611020	-0.030405
24436		9.036335	-1.614703	1.822950	-0.022723	0.078159	-0.023464	-0.588623	0.094971	-0.601318	0.787135	-0.083816	-0.610280	-0.030861
24437		9.108636	-2.068590	1.839419	0.031114	0.041602	-0.003096	-0.584961	0.095947	-0.603516	0.787468	-0.083530	-0.609899	-0.030664
24438		9.361230	-2.182160	1.746438	0.202989	-0.024614	0.005812	-0.591553	0.085938	-0.612305	0.787476	-0.081644	-0.610225	-0.028995
24439		9.287209	-1.566154	2.043580	0.338581	-0.078229	0.031232	-0.590820	0.082031	-0.604004	0.787213	-0.078634	-0.611095	-0.025982
24440		9.318810	-0.785196	2.207087	0.346824	-0.082173	0.074560	-0.586182	0.082520	-0.601807	0.786926	-0.075875	-0.611952	-0.022473
24441		9.484024	-0.722172	2.345170	0.244300	-0.043907	0.115753	-0.585449	0.069336	-0.609131	0.786833	-0.074427	-0.612355	-0.019379
24442		9.459378	-1.324009	2.285253	0.226982	-0.042373	0.128627	-0.589600	0.073975	-0.617432	0.786730	-0.073246	-0.612720	-0.016293
24443		9.433930	-1.230140	2.386553	0.306701	-0.071900	0.106961	-0.585449	0.072266	-0.614014	0.786458	-0.071121	-0.613402	-0.012782
24444		9.693942	-0.500356	2.375875	0.217043	-0.066415	0.094211	-0.587402	0.062500	-0.608887	0.786136	-0.069778	-0.614020	-0.010087
24445		9.747113	-0.295667	2.390196	0.057195	-0.035973	0.106724	-0.596191	0.063477	-0.603516	0.785904	-0.070095	-0.614303	-0.008522
24446		9.542567	-0.729606	2.362247	-0.122007	-0.007614	0.115693	-0.590820	0.071045	-0.606689	0.785732	-0.072240	-0.614279	-0.008272
24447		9.316307	-1.141002	2.180209	-0.139000	-0.015824	0.100352	-0.596191	0.073486	-0.609619	0.785476	-0.074436	-0.614343	-0.008300
24448		9.365749	-1.029231	2.170560	-0.077349	-0.042679	0.096013	-0.593262	0.078857	-0.613037	0.785068	-0.075994	-0.614680	-0.007870
24449		9.435418	-0.958819	2.182542	-0.045898	-0.045769	0.095383	-0.598389	0.088867	-0.605713	0.784663	-0.077241	-0.615049	-0.007204
24450		9.367822	-1.052930	2.194726	-0.033602	-0.029356	0.085826	-0.595703	0.090576	-0.601807	0.784394	-0.078291	-0.615267	-0.006552
24451		9.340336	-0.870026	2.192853	-0.009879	-0.032989	0.071223	-0.597900	0.079346	-0.598877	0.784118	-0.078996	-0.615535	-0.005857
24452		9.427136	-0.986607	2.160560	-0.028733	-0.025544	0.066979	-0.593262	0.087891	-0.597656	0.783880	-0.079852	-0.615733	-0.005356
24453		9.300040	-1.332833	2.153064	-0.000128	-0.033192	0.046679	-0.596191	0.083984	-0.601807	0.783609	-0.080274	-0.616027	-0.004829
24454		9.153530	-1.369441	1.985398	0.066563	-0.056978	0.017627	-0.593994	0.088379	-0.607178	0.783220	-0.079818	-0.616587	-0.004047
24455		9.227555	-1.165524	2.096175	0.123762	-0.087599	0.010849	-0.596191	0.080811	-0.599854	0.782649	-0.078754	-0.617454	-0.002861
24456		9.226182	-0.889219	2.124705	0.094115	-0.085854	0.013735	-0.604004	0.080811	-0.592285	0.782060	-0.077999	-0.618300	-0.001874
24457		8.980240	-0.721594	2.177542	-0.025874	-0.057745	0.010165	-0.598633	0.083496	-0.600098	0.781570	-0.078389	-0.618870	-0.001877
24458		8.661023	-0.745537	2.175026	-0.169242	-0.050866	0.002773	-0.595703	0.084473	-0.594482	0.780991	-0.080124	-0.619374	-0.003074
24459		8.470993	-1.078601	2.028859	-0.245440	-0.058043	-0.006562	-0.602783	0.092041	-0.596436	0.780273	-0.082529	-0.619950	-0.004944
24460		8.506347	-1.420618	1.930818	-0.180959	-0.058092	-0.011766	-0.598633	0.094971	-0.599609	0.779615	-0.084266	-0.620531	-0.006366
24461		8.824250	-1.286622	1.901097	-0.085440	-0.054817	-0.009655	-0.600586	0.091553	-0.600586	0.779081	-0.085088	-0.621082	-0.007032
24462		9.169329	-1.197677	2.203274	-0.022215	-0.068677	0.001661	-0.600830	0.091064	-0.595459	0.778507	-0.085382	-0.621761	-0.007078
24463		8.811652	-1.190105	2.389085	-0.052048	-0.078686	0.004258	-0.605469	0.095459	-0.592285	0.777822	-0.085985	-0.622532	-0.007318
24464		8.462010	-0.734318	2.464573	-0.122877	-0.037123	-0.001302	-0.598633	0.092529	-0.596436	0.777382	-0.087231	-0.622897	-0.008208
24465		8.696646	-1.224502	2.315841	-0.223608	0.045922	-0.020533	-0.598145	0.097656	-0.598877	0.777474	-0.089298	-0.622460	-0.010164
24466		9.343132	-1.515768	2.162406	-0.178647	0.085612	-0.021531	-0.604248	0.108887	-0.603027	0.777920	-0.090916	-0.621639	-0.011827
24467		8.877282	-1.343308	2.313909	-0.075319	0.049048	0.011278	-0.601318	0.109131	-0.600830	0.778201	-0.091795	-0.621148	-0.012333
24468		8.344673	-1.194759	2.274707	-0.093032	0.039652	0.022540	-0.596680	0.112793	-0.598633	0.778389	-0.092934	-0.620732	-0.012854
24469		9.333412	-1.603746	1.986032	-0.101635	0.080416	-0.007414	-0.591309	0.113525	-0.600098	0.778878	-0.093921	-0.619950	-0.013784
24470		9.816690	-2.686201	1.808282	0.088384	0.049115	-0.036829	-0.589600	0.112305	-0.602539	0.779341	-0.092837	-0.619537	-0.013494
24471		9.847585	-1.898576	1.489684	0.430899	-0.041540	0.001294	-0.593750	0.096436	-0.602051	0.779494	-0.088726	-0.620012	-0.010074
24472		9.765678	-1.079191	1.724840	0.552347	-0.084045	0.083348	-0.581787	0.094971	-0.608887	0.779431	-0.084053	-0.620806	-0.004839
24473		9.575065	-0.989092	2.150874	0.503603	-0.098437	0.133248	-0.592285	0.080078	-0.602539	0.779176	-0.080261	-0.621645	0.000482
24474		9.127660	-1.197012	2.643317	0.339416	-0.107749	0.090587	-0.588379	0.081055	-0.613281	0.778654	-0.077707	-0.622609	0.004160
24475		9.200137	-0.999019	2.632495	0.100074	-0.043258	0.010883	-0.588379	0.087891	-0.603760	0.778403	-0.076886	-0.623018	0.005103
24476		9.641798	-0.990005	2.456418	-0.014186	0.035644	0.009457	-0.597656	0.080566	-0.603271	0.778654	-0.077179	-0.622668	0.005059
24477		10.224062	-1.340568	2.095861	-0.023938	0.072872	0.088511	-0.589355	0.078613	-0.607910	0.779175	-0.078160	-0.621888	0.005709
24478		10.125549	-1.546520	2.085274	0.075725	0.064537	0.174582	-0.584717	0.082031	-0.610840	0.779723	-0.078841	-0.621090	0.007971
24479		9.696236	-1.407225	2.265586	0.053595	0.039593	0.179042	-0.583252	0.081787	-0.616211	0.780051	-0.079778	-0.620526	0.010116
24480		9.755307	-1.403408	2.087233	-0.048072	0.023652	0.121492	-0.576416	0.093750	-0.623047	0.780160	-0.081258	-0.620183	0.010923
24481		10.003161	-1.707048	1.732313	-0.029722	-0.007628	0.075179	-0.582275	0.092773	-0.621094	0.780055	-0.082224	-0.620180	0.011413
24482		9.878207	-1.212132	2.072323	0.116807	-0.086237	0.083610	-0.579102	0.092285	-0.610596	0.779480	-0.081794	-0.620923	0.013238
24483		9.823973	-0.514620	1.924584	0.041743	-0.097197	0.081160	-0.581787	0.085449	-0.612305	0.778737	-0.082064	-0.621791	0.014484
24484		10.388444	-1.081936	1.750283	-0.027144	-0.027641	0.066486	-0.584473	0.095459	-0.621582	0.778465	-0.082895	-0.622010	0.014990
24485		10.158312	-1.542282	2.016387	0.059830	-0.062482	0.035156	-0.582031	0.080322	-0.614990	0.778018	-0.082641	-0.622580	0.015885
24486		9.936420	-0.897596	1.952706	0.117831	-0.116398	-0.002463	-0.577148	0.079834	-0.610352	0.777214	-0.081504	-0.623705	0.016944
24487		10.020380	-1.088265	2.052246	0.056307	-0.115979	-0.049103	-0.583496	0.084473	-0.611328	0.776358	-0.080607	-0.624884	0.017060
24488		10.121476	-1.327587	1.987974	0.087902	-0.107511	-0.094270	-0.582031	0.078125	-0.610107	0.775606	-0.079054	-0.626017	0.016973
24489		9.614435	-0.938833	2.113068	0.092202	-0.118223	-0.119040	-0.582520	0.078857	-0.613037	0.774777	-0.077262	-0.627274	0.016690
24490		9.294738	-0.847951	1.848139	0.066163	-0.096670	-0.114427	-0.584717	0.078613	-0.611816	0.774087	-0.075764	-0.628321	0.016224
24491		9.251023	-1.149980	2.014879	0.094563	-0.072106	-0.084008	-0.589600	0.069092	-0.611328	0.773607	-0.074235	-0.629092	0.016251
24492		9.159241	-0.883639	2.064127	0.082420	-0.081489	-0.048244	-0.583008	0.072998	-0.610107	0.773033	-0.073100	-0.629923	0.016540
24493		9.192659	-0.934638	1.908460	-0.017910	-0.046278	-0.012174	-0.594482	0.069336	-0.607666	0.772636	-0.073228	-0.630399	0.016351
24494		9.638970	-1.327548	1.548550	-0.007137	-0.016820	0.022310	-0.585449	0.071289	-0.608154	0.772474	-0.073527	-0.630558	0.016555
24495		9.792066	-1.390314	1.625941	0.035468	-0.035849	0.053895	-0.590576	0.078125	-0.609619	0.772194	-0.073662	-0.630862	0.017415
24496		9.543036	-1.554898	1.724555	0.052099	-0.063065	0.070374	-0.588379	0.070557	-0.608154	0.771710	-0.073761	-0.631409	0.018589
24497		9.927695	-1.476202	1.619554	0.001618	-0.076303	0.040316	-0.593506	0.074951	-0.606689	0.771081	-0.074105	-0.632122	0.019091
24498		10.528493	0.332886	2.416083	-0.023620	-0.070902	-0.106156	-0.577148	0.075195	-0.611328	0.770504	-0.073536	-0.632925	0.017976
24499		10.744359	-0.495804	2.302501	-0.225979	-0.029945	-0.017869	-0.588867	0.071777	-0.611328	0.770041	-0.075625	-0.633292	0.016065
24500		10.696367	-2.012001	2.252180	-0.096103	-0.028235	0.048954	-0.584717	0.074951	-0.603271	0.769698	-0.076992	-0.633551	0.015823
24501		10.241089	-2.907948	2.259628	0.082225	-0.069866	0.062369	-0.589355	0.075439	-0.601074	0.769193	-0.076742	-0.634160	0.017163
24502		9.640078	-2.614965	2.106909	0.085685	-0.085788	0.044289	-0.583740	0.074707	-0.602783	0.768566	-0.076310	-0.634937	0.018376
