// Start Time: Unknown
// Update Rate: 40.0Hz
// Filter Profile: human (46.1)
// Firmware Version: 4.6.0
PacketCounter	SampleTimeFine	Acc_X	Acc_Y	Acc_Z	Gyr_X	Gyr_Y	Gyr_Z	Mag_X	Mag_Y	Mag_Z	Quat_q0	Quat_q1	Quat_q2	Quat_q3
23592		9.285086	1.004661	2.823570	-0.010300	-0.001290	-0.018829	-0.761719	0.219727	-0.026123	0.344060	-0.508033	-0.311774	-0.725480
23593		9.289022	1.014092	2.803485	-0.017404	0.001846	-0.018377	-0.757324	0.219238	-0.027588	0.343790	-0.508020	-0.311725	-0.725639
23594		9.311174	0.945873	2.819929	-0.009745	-0.001973	-0.019802	-0.763672	0.219482	-0.027832	0.343543	-0.508001	-0.311770	-0.725749
23595		9.308378	0.957359	2.838528	0.002593	-0.012989	-0.015562	-0.753906	0.226562	-0.042236	0.343369	-0.508049	-0.311947	-0.725723
23596		9.286043	0.970327	2.819949	0.014682	-0.006428	-0.011981	-0.762207	0.215332	-0.023682	0.343333	-0.508000	-0.312178	-0.725674
23597		9.303952	0.970385	2.756048	0.001467	-0.006277	-0.009962	-0.758789	0.223877	-0.023438	0.343234	-0.508017	-0.312274	-0.725669
23598		9.308648	0.992348	2.723670	-0.003127	-0.011013	-0.008927	-0.758789	0.216553	-0.023438	0.343098	-0.508109	-0.312340	-0.725640
23599		9.345448	0.983483	2.735070	0.005188	-0.010230	-0.005784	-0.757080	0.220215	-0.025635	0.343045	-0.508183	-0.312462	-0.725560
23600		9.320793	1.025044	2.856393	0.002082	-0.001273	-0.008284	-0.749023	0.216064	-0.024414	0.342984	-0.508194	-0.312535	-0.725550
23601		9.304885	1.020313	2.810729	-0.011873	0.011410	-0.006691	-0.760986	0.217529	-0.024170	0.342900	-0.508148	-0.312415	-0.725674
23602		9.228015	1.015320	2.681201	0.029818	-0.040956	-0.011852	-0.760986	0.218262	-0.026611	0.342830	-0.508381	-0.312929	-0.725322
23603		9.299918	0.928094	2.899597	-0.067367	-0.030023	0.004253	-0.755371	0.220947	-0.024658	0.342324	-0.509009	-0.312422	-0.725339
23604		9.348367	1.017826	2.687020	0.053479	-0.031535	-0.018503	-0.755615	0.220703	-0.026123	0.342395	-0.509032	-0.313134	-0.724982
23605		9.405554	0.974904	2.712016	0.015063	-0.006974	0.001927	-0.765137	0.213379	-0.022949	0.342496	-0.509095	-0.313274	-0.724830
23606		9.344775	1.053090	2.722670	0.011263	0.016462	-0.011662	-0.756592	0.217773	-0.027832	0.342538	-0.508935	-0.313374	-0.724878
23607		9.259292	0.980302	2.689665	0.003723	0.006182	-0.002471	-0.757324	0.209473	-0.027100	0.342571	-0.508930	-0.313396	-0.724858
23608		9.266408	0.981237	2.740307	0.003527	0.015855	-0.002841	-0.759277	0.219971	-0.029053	0.342630	-0.508840	-0.313394	-0.724894
23609		9.355607	0.964652	2.749649	-0.011518	0.020952	0.000581	-0.751709	0.217529	-0.030029	0.342658	-0.508800	-0.313182	-0.725000
23610		9.391081	0.951265	2.690657	-0.008819	0.032055	0.003769	-0.752441	0.225098	-0.030029	0.342781	-0.508641	-0.312926	-0.725164
23611		9.333717	0.986271	2.765808	0.015091	0.026772	-0.001787	-0.750244	0.218018	-0.030762	0.342997	-0.508445	-0.312921	-0.725202
23612		9.299336	0.956743	2.805538	0.009588	0.015907	0.000527	-0.760498	0.218262	-0.021729	0.343150	-0.508355	-0.312919	-0.725193
23613		9.252273	0.995265	2.718031	0.013360	0.021698	0.000960	-0.758057	0.227295	-0.033447	0.343351	-0.508254	-0.312929	-0.725165
23614		9.284354	0.964270	2.776991	-0.010986	0.021269	0.005320	-0.751709	0.224609	-0.033203	0.343451	-0.508261	-0.312634	-0.725239
23615		9.339881	0.991641	2.813935	-0.010553	0.033511	0.003371	-0.757568	0.214600	-0.026855	0.343586	-0.508111	-0.312314	-0.725419
23616		9.345348	0.940982	2.860529	-0.006631	0.034947	0.007814	-0.752441	0.229980	-0.031494	0.343768	-0.507956	-0.312065	-0.725548
23617		9.335499	0.945677	2.860237	-0.011501	0.035191	0.011557	-0.753662	0.210938	-0.027588	0.343997	-0.507843	-0.311638	-0.725702
23618		9.280309	0.969089	2.827590	-0.001941	0.036165	0.005018	-0.758789	0.216553	-0.031982	0.344188	-0.507599	-0.311459	-0.725859
23619		9.298829	0.964100	2.793816	-0.014229	0.040289	0.006789	-0.755615	0.220703	-0.027588	0.344344	-0.507399	-0.311090	-0.726083
23620		9.305488	0.981574	2.801068	-0.021115	0.030569	0.002894	-0.763672	0.223145	-0.036865	0.344390	-0.507329	-0.310719	-0.726269
23621		9.282346	0.934211	2.841328	-0.006687	0.029712	0.002300	-0.757568	0.217285	-0.035400	0.344523	-0.507197	-0.310448	-0.726414
23622		9.284830	0.926178	2.837619	0.002970	0.029170	0.000142	-0.749023	0.223389	-0.044434	0.344680	-0.506973	-0.310326	-0.726548
23623		9.307078	0.982162	2.971444	0.008506	0.051665	-0.005895	-0.749268	0.215332	-0.035645	0.344950	-0.506442	-0.310117	-0.726879
23624		9.194861	0.950729	2.647272	0.052874	-0.004506	-0.008634	-0.758301	0.219727	-0.036865	0.345211	-0.506231	-0.310663	-0.726669
23625		9.254384	0.937877	3.041160	-0.052083	-0.014123	0.003985	-0.757080	0.218994	-0.042236	0.344893	-0.506670	-0.310195	-0.726715
23626		9.375391	1.019219	2.751524	0.056538	-0.024047	-0.020207	-0.755859	0.213623	-0.039062	0.345021	-0.506564	-0.310881	-0.726434
23627		9.375290	1.003206	2.720666	0.021348	0.021952	-0.002920	-0.749512	0.223877	-0.032959	0.345217	-0.506258	-0.311001	-0.726503
23628		9.230241	1.003761	2.845224	0.025168	0.015723	-0.014489	-0.761230	0.215088	-0.044678	0.345363	-0.506045	-0.311209	-0.726493
23629		9.229101	0.938936	2.897142	0.001891	0.007366	-0.009060	-0.753906	0.229004	-0.040771	0.345330	-0.505914	-0.311242	-0.726586
23630		9.239088	0.951303	2.779455	0.002984	0.015265	-0.006559	-0.757080	0.228027	-0.040283	0.345472	-0.505797	-0.311132	-0.726647
23631		9.319060	0.944952	2.859399	-0.006275	0.013251	-0.001949	-0.761230	0.218018	-0.037842	0.345574	-0.505767	-0.310932	-0.726704
23632		9.358680	0.967684	2.837144	-0.006004	0.017551	-0.000210	-0.755371	0.222656	-0.031494	0.345609	-0.505684	-0.310799	-0.726803
23633		9.288005	0.942099	2.910417	0.004864	0.011650	-0.003197	-0.752930	0.216797	-0.050293	0.345692	-0.505674	-0.310795	-0.726772
23634		9.252897	0.973499	2.848245	0.006751	0.005558	-0.003109	-0.759277	0.221436	-0.047607	0.345788	-0.505481	-0.310795	-0.726860
23635		9.235655	0.983914	2.871751	0.005278	0.006629	-0.003999	-0.755615	0.215088	-0.031250	0.345890	-0.505347	-0.310767	-0.726917
23636		9.278797	0.979456	2.886564	-0.016149	0.006210	0.000965	-0.751953	0.224121	-0.045166	0.345773	-0.505464	-0.310634	-0.726948
23637		9.274881	0.985622	2.909724	-0.019370	0.015531	0.000860	-0.755371	0.226074	-0.032227	0.345846	-0.505391	-0.310295	-0.727109
23638		9.285816	0.969036	2.912147	-0.015342	0.017055	0.000029	-0.758301	0.207764	-0.044434	0.345892	-0.505451	-0.310036	-0.727156
23639		9.281736	0.941162	2.916411	-0.005367	0.013298	-0.002968	-0.756104	0.220703	-0.041016	0.345786	-0.505245	-0.310011	-0.727360
23640		9.258277	0.964810	2.892903	0.002751	0.010582	-0.005387	-0.757568	0.219971	-0.043701	0.345851	-0.505133	-0.309985	-0.727419
23641		9.278661	0.962604	2.853242	-0.010063	0.014689	-0.004111	-0.755127	0.221191	-0.031494	0.345862	-0.505008	-0.309815	-0.727572
23642		9.269023	0.969886	2.837220	-0.023502	0.002581	-0.003642	-0.752686	0.215820	-0.035889	0.345696	-0.505224	-0.309608	-0.727589
23643		9.285660	0.946517	2.825408	-0.014131	-0.001965	-0.003207	-0.756592	0.215576	-0.041748	0.345538	-0.505349	-0.309531	-0.727610
23644		9.265878	0.963721	2.867115	0.001740	-0.005661	-0.004724	-0.752197	0.232910	-0.032471	0.345472	-0.505355	-0.309608	-0.727604
23645		9.282037	0.973049	3.024374	0.010930	0.022604	-0.004972	-0.755371	0.221436	-0.039551	0.345771	-0.505296	-0.309513	-0.727544
23646		9.137343	0.931108	2.649407	0.061884	-0.029081	-0.013083	-0.760498	0.222412	-0.032227	0.345986	-0.505284	-0.310243	-0.727139
23647		9.236864	0.895170	3.079349	-0.057118	-0.056828	0.003902	-0.751465	0.219482	-0.040527	0.345442	-0.506228	-0.309936	-0.726872
23648		9.393191	1.000821	2.784750	0.050431	-0.070862	-0.020823	-0.750000	0.225830	-0.027344	0.345366	-0.506557	-0.310786	-0.726316
23649		9.397215	1.011714	2.735129	0.019962	-0.005432	0.000146	-0.753174	0.218994	-0.039551	0.345561	-0.506735	-0.310929	-0.726038
23650		9.247575	1.004129	2.865906	0.003612	0.002014	-0.009462	-0.748779	0.219971	-0.038574	0.345558	-0.506650	-0.310980	-0.726076
23651		9.223646	0.932544	2.898932	0.001358	-0.005683	-0.003245	-0.752197	0.221924	-0.037598	0.345600	-0.506687	-0.310989	-0.726027
23652		9.239320	0.930000	2.816423	-0.005890	-0.004717	-0.003697	-0.757568	0.224854	-0.039062	0.345604	-0.506772	-0.310921	-0.725994
23653		9.329765	0.948411	2.841549	-0.008254	-0.001621	0.002600	-0.756836	0.223633	-0.035156	0.345694	-0.506861	-0.310752	-0.725961
23654		9.343593	0.937997	2.800127	-0.013404	0.000833	0.001456	-0.751465	0.225098	-0.037842	0.345704	-0.506999	-0.310565	-0.725941
23655		9.294753	0.945661	2.936296	0.005580	0.001236	-0.003824	-0.756592	0.215820	-0.045410	0.345857	-0.506992	-0.310544	-0.725882
23656		9.274041	0.926736	2.860042	0.006643	-0.003810	-0.002275	-0.752197	0.217773	-0.031494	0.345878	-0.506851	-0.310611	-0.725942
23657		9.245425	0.958336	2.834037	0.006582	-0.000530	-0.004792	-0.754150	0.226807	-0.033691	0.345845	-0.506914	-0.310717	-0.725868
23658		9.294787	0.960718	2.837261	-0.011130	0.008122	-0.001868	-0.757080	0.222412	-0.039795	0.345927	-0.507005	-0.310509	-0.725854
23659		9.289443	0.940137	2.870537	-0.018903	0.013732	-0.000534	-0.758789	0.225342	-0.032715	0.345942	-0.506954	-0.310221	-0.726006
23660		9.301818	0.945262	2.911593	-0.014539	0.013806	-0.000382	-0.750244	0.224121	-0.035156	0.345975	-0.507023	-0.309985	-0.726043
23661		9.275547	0.925793	2.898667	-0.011551	0.008794	0.001021	-0.760742	0.226807	-0.034912	0.346058	-0.507077	-0.309768	-0.726058
23662		9.264447	0.919438	2.882698	0.000762	0.009062	-0.002789	-0.756348	0.227783	-0.032715	0.346172	-0.507083	-0.309689	-0.726034
23663		9.254636	0.913395	2.876859	-0.009106	0.013189	-0.000762	-0.758789	0.225830	-0.041992	0.346282	-0.507143	-0.309481	-0.726028
23664		9.264518	0.952174	2.828475	-0.019267	0.006896	-0.000251	-0.758057	0.225586	-0.035889	0.346307	-0.507144	-0.309176	-0.726145
23665		9.277779	0.963597	2.817822	-0.015813	0.000524	-0.003153	-0.753418	0.221436	-0.030273	0.346269	-0.507272	-0.308995	-0.726151
23666		9.305955	0.954204	2.873610	-0.020679	0.002640	-0.004782	-0.755127	0.226562	-0.037109	0.346114	-0.507456	-0.308840	-0.726162
23667		9.308582	0.955138	2.995614	-0.028133	0.027410	-0.006064	-0.749023	0.220947	-0.042725	0.346107	-0.507364	-0.308419	-0.726409
23668		9.169668	0.952805	2.643049	0.032430	-0.010009	-0.015492	-0.757080	0.223877	-0.043701	0.346213	-0.507189	-0.308779	-0.726327
23669		9.279641	0.815836	3.036667	-0.077980	-0.035798	-0.000072	-0.755371	0.220459	-0.039795	0.345679	-0.507795	-0.308138	-0.726431
23670		9.310622	0.975695	2.827997	0.001359	-0.031700	-0.016731	-0.747803	0.225830	-0.031494	0.345446	-0.507979	-0.308354	-0.726321
23671		9.340677	0.947934	2.759729	0.021847	-0.004862	-0.010116	-0.756348	0.219971	-0.033691	0.345606	-0.508017	-0.308571	-0.726126
23672		9.325715	0.975321	2.881767	-0.009599	0.017416	-0.014753	-0.754639	0.222412	-0.033447	0.345471	-0.507898	-0.308506	-0.726301
23673		9.204686	0.913646	2.833411	-0.000376	0.004610	-0.014995	-0.756348	0.222168	-0.043945	0.345396	-0.507879	-0.308553	-0.726331
23674		9.228254	0.893530	2.870144	0.002504	0.003430	-0.007501	-0.751465	0.228271	-0.033203	0.345451	-0.507716	-0.308522	-0.726431
23675		9.288385	0.909888	2.841166	0.007907	-0.003320	-0.007669	-0.758789	0.226807	-0.038330	0.345592	-0.507806	-0.308566	-0.726283
23676		9.348547	0.919175	2.861167	-0.006984	-0.001139	-0.002787	-0.754883	0.227539	-0.032715	0.345650	-0.507864	-0.308437	-0.726269
23677		9.331592	0.929645	2.883663	0.015065	0.003638	-0.007497	-0.756592	0.226318	-0.040039	0.345829	-0.507857	-0.308539	-0.726145
23678		9.284898	0.895200	2.880901	0.020746	0.000767	-0.003028	-0.759521	0.223877	-0.031006	0.346071	-0.507748	-0.308643	-0.726063
23679		9.207645	0.939592	2.852976	0.012354	0.001772	-0.006265	-0.751953	0.221924	-0.036377	0.346141	-0.507776	-0.308789	-0.725947
23680		9.228123	0.953481	2.889932	-0.007666	0.003944	-0.005796	-0.751953	0.226074	-0.036865	0.346114	-0.507784	-0.308695	-0.725994
23681		9.302865	0.981296	2.860105	-0.015287	0.005018	-0.011969	-0.761230	0.219971	-0.038330	0.346063	-0.507808	-0.308523	-0.726075
23682		9.342805	0.951568	2.876095	-0.014706	0.012641	-0.014198	-0.753906	0.224121	-0.039795	0.345878	-0.507689	-0.308416	-0.726292
23683		9.294790	0.924402	2.916395	-0.009023	0.016318	-0.012835	-0.758789	0.216309	-0.042480	0.345872	-0.507527	-0.308261	-0.726474
23684		9.279765	0.914930	2.932181	-0.005255	0.015742	-0.016448	-0.753174	0.226562	-0.037354	0.345703	-0.507258	-0.308237	-0.726752
23685		9.278505	0.910359	2.896704	-0.007203	0.018165	-0.013031	-0.754150	0.225342	-0.036621	0.345760	-0.507133	-0.308087	-0.726876
23686		9.265537	0.898704	2.833455	-0.016534	0.015460	-0.011758	-0.763916	0.213623	-0.040039	0.345728	-0.507086	-0.307876	-0.727013
23687		9.271945	0.906465	2.835349	-0.008908	0.007983	-0.009670	-0.752930	0.215088	-0.037109	0.345494	-0.506963	-0.307868	-0.727213
23688		9.260365	0.903201	2.907458	-0.002694	0.002650	-0.008032	-0.760254	0.222900	-0.037109	0.345364	-0.506932	-0.307899	-0.727284
23689		9.311380	0.934995	3.000557	-0.012828	0.013240	-0.005726	-0.758545	0.216309	-0.038330	0.345338	-0.506897	-0.307725	-0.727394
23690		9.183310	0.960200	2.694425	0.029383	-0.005687	-0.013000	-0.752930	0.223145	-0.039795	0.345340	-0.506771	-0.308112	-0.727318
23691		9.290250	0.879738	3.028760	-0.020976	-0.039311	0.000525	-0.745850	0.225342	-0.042725	0.345173	-0.507242	-0.308011	-0.727111
23692		9.294559	0.939537	2.853225	0.001261	-0.026893	-0.004911	-0.749268	0.222412	-0.041748	0.345237	-0.507439	-0.308036	-0.726932
23693		9.315011	0.919531	2.754955	0.054970	-0.023603	-0.011919	-0.754639	0.221680	-0.033936	0.345516	-0.507339	-0.308620	-0.726622
23694		9.327830	0.993692	2.877760	0.016903	-0.001451	-0.001695	-0.754395	0.219482	-0.032471	0.345654	-0.507354	-0.308762	-0.726486
23695		9.230646	0.949931	2.822430	0.020965	-0.002211	-0.012984	-0.759277	0.222900	-0.039307	0.345663	-0.507324	-0.309042	-0.726383
23696		9.226027	0.946398	2.842212	0.004172	-0.000955	-0.002193	-0.761230	0.221680	-0.038086	0.345745	-0.507311	-0.309041	-0.726354
23697		9.261739	0.958734	2.886090	-0.001803	0.000495	-0.008023	-0.757080	0.222412	-0.038574	0.345704	-0.507299	-0.309040	-0.726382
23698		9.315741	0.967592	2.868598	-0.020786	0.002205	-0.003789	-0.755615	0.225830	-0.044434	0.345622	-0.507368	-0.308812	-0.726470
23699		9.330388	0.967202	2.877182	0.001699	0.004217	-0.010332	-0.744141	0.222900	-0.037598	0.345725	-0.507230	-0.308757	-0.726541
23700		9.291392	0.917540	2.844714	0.003853	0.006787	-0.010585	-0.760010	0.226074	-0.040283	0.345819	-0.507150	-0.308747	-0.726556
23701		9.234276	0.974485	2.854294	0.000105	0.003147	-0.012088	-0.764648	0.222900	-0.043213	0.345854	-0.507085	-0.308732	-0.726591
23702		9.256328	0.967806	2.871769	-0.007513	0.005819	-0.009220	-0.755859	0.221191	-0.037109	0.345810	-0.506983	-0.308638	-0.726723
23703		9.296053	0.972498	2.907146	-0.017688	0.008491	-0.008554	-0.759521	0.216064	-0.035400	0.345705	-0.506988	-0.308462	-0.726844
23704		9.298578	0.951348	2.899400	-0.016806	0.010560	-0.003426	-0.755127	0.224365	-0.041260	0.345548	-0.506989	-0.308310	-0.726983
23705		9.287489	0.916736	2.904364	-0.015868	0.015886	0.001106	-0.751465	0.219238	-0.032959	0.345647	-0.506915	-0.308008	-0.727116
23706		9.254671	0.926268	2.922214	-0.008769	0.009272	-0.003019	-0.750977	0.228271	-0.035889	0.345615	-0.506950	-0.307902	-0.727151
23707		9.252507	0.912697	2.925011	-0.001518	0.012266	-0.001748	-0.747803	0.221924	-0.037842	0.345821	-0.506932	-0.307757	-0.727127
23708		9.265286	0.930862	2.866965	-0.013319	0.014133	0.001459	-0.754150	0.218994	-0.032715	0.345896	-0.506908	-0.307506	-0.727214
23709		9.268768	0.943447	2.888769	-0.012827	0.006242	0.000259	-0.757324	0.218750	-0.033691	0.345829	-0.507003	-0.307370	-0.727237
23710		9.292664	0.940012	2.867046	-0.009833	0.005594	-0.000418	-0.754150	0.224854	-0.036865	0.345758	-0.507070	-0.307273	-0.727265
23711		9.278010	0.914293	2.979764	-0.014578	0.009852	-0.001167	-0.764893	0.225830	-0.037598	0.345792	-0.507102	-0.307048	-0.727321
23712		9.231143	0.944031	2.841488	-0.008119	0.013189	0.000158	-0.754150	0.223877	-0.041016	0.345863	-0.507069	-0.306878	-0.727383
23713		9.252486	0.950024	2.924134	0.003827	-0.041365	-0.001282	-0.753174	0.224365	-0.047852	0.345810	-0.507428	-0.307031	-0.727093
23714		9.290985	0.923856	2.942084	-0.058413	-0.017705	0.002572	-0.754639	0.219482	-0.031982	0.345526	-0.507761	-0.306445	-0.727243
23715		9.305138	0.943005	2.777660	0.045726	-0.022869	-0.018458	-0.753906	0.228271	-0.041504	0.345546	-0.507785	-0.307087	-0.726946
23716		9.366505	0.956079	2.894177	0.000520	0.003943	0.001263	-0.750488	0.217041	-0.034424	0.345747	-0.507751	-0.306958	-0.726928
23717		9.254662	0.947227	2.863050	0.000725	0.010121	-0.015710	-0.757080	0.222656	-0.038330	0.345620	-0.507641	-0.307022	-0.727038
23718		9.191667	0.905814	2.804823	-0.006001	0.003914	-0.002554	-0.750244	0.224365	-0.038818	0.345629	-0.507639	-0.306925	-0.727076
23719		9.222444	0.911533	2.870201	0.005176	0.003853	-0.006259	-0.748779	0.223145	-0.038818	0.345732	-0.507581	-0.306924	-0.727069
23720		9.339854	0.907588	2.863191	-0.011641	0.001564	0.000818	-0.758301	0.224121	-0.036377	0.345769	-0.507640	-0.306741	-0.727087
23721		9.322208	0.929564	2.877969	-0.002075	0.016902	0.000065	-0.756836	0.221436	-0.040039	0.345881	-0.507544	-0.306614	-0.727154
23722		9.295288	0.919351	2.905366	0.007962	0.016891	-0.006423	-0.757080	0.220703	-0.026855	0.345973	-0.507327	-0.306618	-0.727260
23723		9.227294	0.969075	2.898421	0.001734	0.007766	-0.006609	-0.753418	0.216064	-0.037842	0.345919	-0.507387	-0.306674	-0.727220
23724		9.244281	0.975637	2.879291	-0.002779	0.020691	-0.007662	-0.756592	0.224121	-0.035645	0.345870	-0.507188	-0.306612	-0.727408
23725		9.280541	0.924680	2.938157	-0.018871	0.023552	-0.004171	-0.748535	0.221436	-0.039062	0.345859	-0.507112	-0.306330	-0.727586
23726		9.329507	0.912501	2.967507	-0.019862	0.035413	-0.002568	-0.754150	0.223389	-0.034912	0.345909	-0.506890	-0.305964	-0.727871
23727		9.265697	0.889267	2.955141	-0.017533	0.032889	-0.000257	-0.756348	0.225342	-0.042725	0.345965	-0.506754	-0.305634	-0.728077
23728		9.281581	0.879714	2.950555	-0.004638	0.033865	-0.000268	-0.751953	0.230469	-0.039062	0.346160	-0.506467	-0.305381	-0.728290
23729		9.250468	0.881718	2.952880	-0.002925	0.034900	0.003408	-0.757080	0.228271	-0.041992	0.346471	-0.506254	-0.305087	-0.728414
23730		9.262136	0.898992	2.899716	-0.016598	0.032105	0.004493	-0.753906	0.231689	-0.038574	0.346648	-0.506087	-0.304695	-0.728609
23731		9.260456	0.870000	2.925582	-0.004305	0.020136	0.001117	-0.745605	0.219482	-0.040283	0.346866	-0.506025	-0.304477	-0.728640
23732		9.262227	0.813160	2.889260	0.008005	0.013004	0.006195	-0.756592	0.225586	-0.046143	0.347039	-0.505931	-0.304428	-0.728643
23733		9.260411	0.876032	2.991556	0.016835	0.017504	0.006382	-0.755127	0.221680	-0.044678	0.347351	-0.505709	-0.304402	-0.728659
23734		9.285795	0.922611	3.014615	0.019348	0.046996	0.000987	-0.748779	0.226074	-0.036133	0.347682	-0.505194	-0.304338	-0.728885
23735		9.194527	0.903524	2.794689	0.040687	-0.004594	-0.002725	-0.754639	0.227295	-0.038086	0.347963	-0.505177	-0.304710	-0.728608
23736		9.256457	0.921999	3.071307	-0.027419	-0.000554	0.001473	-0.747314	0.221680	-0.042480	0.347869	-0.505413	-0.304418	-0.728611
23737		9.332186	0.896135	2.881718	0.078286	-0.006297	-0.021094	-0.756104	0.225586	-0.048096	0.348180	-0.505081	-0.305256	-0.728342
23738		9.323266	0.965689	2.835157	0.040072	0.031617	-0.002396	-0.751709	0.236328	-0.050049	0.348613	-0.504591	-0.305436	-0.728399
23739		9.187146	0.922701	2.967680	0.043687	0.022986	-0.015739	-0.750244	0.224121	-0.037598	0.349077	-0.504148	-0.305685	-0.728380
23740		9.224986	0.841940	3.015967	0.027625	0.022533	-0.009822	-0.748779	0.226318	-0.050537	0.349284	-0.503903	-0.305886	-0.728365
23741		9.245835	0.884322	2.959287	0.030826	0.032640	-0.004631	-0.744629	0.219971	-0.036377	0.349676	-0.503441	-0.305966	-0.728464
23742		9.277480	0.897848	3.000236	0.013772	0.025315	-0.000827	-0.756836	0.217529	-0.046387	0.349838	-0.503283	-0.305989	-0.728485
23743		9.248093	0.908035	2.949499	0.015172	0.017433	-0.003043	-0.749023	0.221680	-0.042969	0.349923	-0.503054	-0.306085	-0.728562
23744		9.241234	0.912237	3.012229	0.028807	0.011291	-0.006140	-0.754639	0.228760	-0.046387	0.350106	-0.502875	-0.306315	-0.728501
23745		9.207630	0.945566	2.959456	0.022643	0.011545	-0.007165	-0.754395	0.221924	-0.047119	0.350329	-0.502707	-0.306450	-0.728453
23746		9.216470	0.976477	3.021028	0.014542	0.026974	-0.008103	-0.757080	0.223633	-0.041504	0.350467	-0.502397	-0.306494	-0.728582
23747		9.261544	0.926222	3.050048	-0.002797	0.022584	-0.007756	-0.758789	0.231445	-0.050293	0.350469	-0.502280	-0.306412	-0.728696
23748		9.248275	0.920993	3.027493	-0.006479	0.023536	-0.005152	-0.754395	0.229004	-0.050049	0.350599	-0.502116	-0.306195	-0.728838
23749		9.257665	0.928163	3.061212	-0.005507	0.024666	-0.005728	-0.748291	0.226318	-0.053467	0.350715	-0.501934	-0.305996	-0.728991
23750		9.241737	0.895758	3.039446	-0.002998	0.024457	-0.009705	-0.753662	0.228760	-0.050537	0.350808	-0.501687	-0.305839	-0.729182
23751		9.230926	0.891794	3.036405	0.003576	0.024265	-0.010123	-0.757324	0.221191	-0.052002	0.350937	-0.501455	-0.305755	-0.729315
23752		9.210154	0.943578	3.025064	-0.015267	0.027809	-0.009493	-0.753906	0.218750	-0.045898	0.350872	-0.501231	-0.305540	-0.729590
23753		9.205716	0.966052	3.050897	-0.025743	0.019318	-0.013786	-0.745117	0.229980	-0.052002	0.350628	-0.501178	-0.305322	-0.729835
23754		9.243410	0.929024	3.011330	-0.011688	0.018976	-0.015630	-0.760986	0.222900	-0.056641	0.350633	-0.501047	-0.305122	-0.730006
23755		9.250178	0.932862	3.084354	-0.000434	0.025152	-0.019414	-0.745361	0.217041	-0.051270	0.350588	-0.500711	-0.305099	-0.730268
23756		9.227006	0.954622	3.144677	0.011111	0.050242	-0.022858	-0.749756	0.226074	-0.054199	0.350639	-0.500132	-0.305109	-0.730636
23757		9.068516	0.924098	2.882796	0.046238	-0.015624	-0.029157	-0.750244	0.223389	-0.058105	0.350703	-0.499990	-0.305708	-0.730452
23758		9.173436	0.925919	3.247454	-0.050151	-0.037568	-0.016605	-0.752441	0.222168	-0.051758	0.350188	-0.500467	-0.305453	-0.730479
23759		9.366154	0.950368	2.858524	0.060071	-0.043865	-0.031525	-0.751465	0.222168	-0.059814	0.350157	-0.500515	-0.306350	-0.730085
23760		9.291609	0.965310	2.912114	0.008275	0.003715	-0.009724	-0.761963	0.217773	-0.052002	0.350235	-0.500349	-0.306404	-0.730139
23761		9.171749	0.977072	3.113983	0.016716	-0.009202	-0.022241	-0.749023	0.219727	-0.052002	0.350080	-0.500283	-0.306743	-0.730116
23762		9.161908	0.926358	3.074655	0.002386	-0.002579	-0.011044	-0.750732	0.225830	-0.050049	0.350032	-0.500276	-0.306805	-0.730118
23763		9.172906	0.933736	2.993159	0.007929	-0.007169	-0.010288	-0.755859	0.222656	-0.055176	0.350065	-0.500332	-0.306901	-0.730023
23764		9.245331	0.937540	3.061095	-0.001621	-0.003941	-0.004058	-0.744873	0.217529	-0.055420	0.350081	-0.500354	-0.306879	-0.730010
23765		9.268986	0.976957	2.997001	0.003527	-0.010347	-0.003693	-0.750977	0.211914	-0.050781	0.350084	-0.500396	-0.306936	-0.729955
23766		9.219475	0.955797	3.049528	0.006522	-0.019355	-0.003099	-0.754883	0.223877	-0.049072	0.349966	-0.500538	-0.307111	-0.729842
23767		9.193447	0.979266	2.978638	0.010946	-0.026102	-0.004104	-0.757324	0.222168	-0.052002	0.349961	-0.500773	-0.307300	-0.729603
23768		9.202067	0.953312	3.040530	0.004189	-0.027820	-0.000262	-0.757812	0.222412	-0.050537	0.349936	-0.501023	-0.307423	-0.729392
23769		9.248303	0.990407	3.029136	-0.015585	-0.018227	0.001169	-0.754150	0.219482	-0.049316	0.349830	-0.501288	-0.307316	-0.729306
23770		9.243435	0.982586	3.036582	-0.017172	-0.013570	0.002069	-0.753418	0.217773	-0.043945	0.349713	-0.501520	-0.307180	-0.729259
23771		9.220474	0.935087	3.035542	-0.009564	-0.029611	-0.000735	-0.758301	0.223145	-0.050293	0.349507	-0.501903	-0.307216	-0.729080
23772		9.211783	0.900119	3.020401	-0.008390	-0.032960	0.004560	-0.751465	0.216797	-0.059082	0.349431	-0.502271	-0.307214	-0.728863
23773		9.243790	0.937724	2.999018	0.000117	-0.030872	0.002974	-0.756104	0.228760	-0.049805	0.349415	-0.502453	-0.307312	-0.728704
23774		9.239569	0.957443	2.983783	-0.015519	-0.023710	0.004729	-0.758057	0.231201	-0.045654	0.349401	-0.502780	-0.307169	-0.728545
23775		9.251029	0.967933	2.937434	-0.017141	-0.027628	0.000683	-0.749756	0.228027	-0.046875	0.349320	-0.503180	-0.307048	-0.728359
23776		9.230758	0.912828	2.904822	-0.009488	-0.030678	0.000755	-0.750977	0.224854	-0.045654	0.349274	-0.503546	-0.307012	-0.728143
23777		9.263713	0.939490	3.002209	-0.000250	-0.027818	-0.002355	-0.758301	0.226074	-0.043701	0.349225	-0.503829	-0.307091	-0.727938
23778		9.231337	0.950784	3.003034	0.011624	-0.003894	-0.005910	-0.746582	0.220703	-0.045166	0.349292	-0.503842	-0.307206	-0.727848
23779		9.143154	0.932649	2.858253	0.043795	-0.075228	-0.012266	-0.757080	0.227783	-0.043457	0.349214	-0.504313	-0.307969	-0.727237
23780		9.279258	0.891206	3.049870	-0.055407	-0.073080	0.002195	-0.755859	0.216553	-0.046875	0.348694	-0.505275	-0.307711	-0.726927
23781		9.353431	0.951860	2.796665	0.059447	-0.063797	-0.014761	-0.751221	0.228516	-0.042725	0.348687	-0.505500	-0.308617	-0.726390
23782		9.340278	0.958762	2.867109	0.016261	-0.020946	0.003445	-0.753418	0.222656	-0.040527	0.348869	-0.505668	-0.308758	-0.726126
23783		9.217430	0.985168	2.860365	0.006277	-0.019364	-0.013089	-0.759521	0.220215	-0.045654	0.348759	-0.505800	-0.308945	-0.726007
23784		9.192621	0.886784	2.878600	0.009897	-0.032043	-0.006660	-0.752441	0.222656	-0.036865	0.348669	-0.505992	-0.309198	-0.725809
23785		9.246027	0.932780	2.864715	0.009062	-0.017661	-0.005230	-0.754639	0.218018	-0.043945	0.348644	-0.506157	-0.309352	-0.725640
23786		9.330890	0.947675	2.897872	-0.012127	-0.014759	-0.000001	-0.748047	0.221191	-0.041016	0.348529	-0.506319	-0.309291	-0.725608
23787		9.344502	0.943963	2.795220	-0.009558	-0.004912	-0.001513	-0.748779	0.226074	-0.035400	0.348495	-0.506413	-0.309194	-0.725601
23788		9.273507	0.910873	2.904965	0.006995	0.007085	-0.001727	-0.761963	0.226318	-0.040039	0.348625	-0.506394	-0.309176	-0.725559
23789		9.234675	0.907655	2.880629	0.005587	-0.010258	-0.001922	-0.753662	0.223877	-0.034180	0.348666	-0.506487	-0.309243	-0.725446
23790		9.246090	0.956393	2.876625	0.005340	-0.006224	-0.004921	-0.760498	0.227051	-0.036865	0.348658	-0.506586	-0.309308	-0.725353
23791		9.296095	0.946188	2.888536	-0.011114	0.001211	-0.003065	-0.753174	0.228027	-0.037842	0.348621	-0.506673	-0.309176	-0.725366
23792		9.297297	0.945910	2.899054	-0.018314	0.003180	-0.003096	-0.759521	0.221924	-0.034912	0.348581	-0.506770	-0.308952	-0.725413
23793		9.299029	0.917999	2.929499	-0.015246	0.001445	-0.002296	-0.761230	0.224121	-0.040771	0.348466	-0.506876	-0.308805	-0.725457
23794		9.273427	0.906590	2.953395	-0.007987	-0.001207	-0.003674	-0.751221	0.231934	-0.040039	0.348423	-0.506918	-0.308731	-0.725480
23795		9.266420	0.906784	2.904450	-0.002307	-0.005373	-0.003928	-0.759521	0.224365	-0.029297	0.348496	-0.507008	-0.308669	-0.725408
23796		9.266189	0.891534	2.814968	-0.006392	-0.002315	-0.000883	-0.747559	0.215576	-0.040039	0.348433	-0.507170	-0.308602	-0.725353
23797		9.299848	0.930458	2.829253	-0.009401	-0.001258	-0.003091	-0.753662	0.223877	-0.038818	0.348339	-0.507204	-0.308535	-0.725404
23798		9.305915	0.923098	2.828856	-0.006023	0.003869	-0.002572	-0.755127	0.226318	-0.027100	0.348345	-0.507212	-0.308439	-0.725436
23799		9.287959	0.919630	2.951750	-0.005478	0.010646	0.000956	-0.752930	0.224365	-0.034180	0.348364	-0.507289	-0.308288	-0.725437
23800		9.258227	0.911978	2.810998	-0.001643	0.014705	0.001483	-0.753174	0.228271	-0.033203	0.348454	-0.507241	-0.308157	-0.725483
23801		9.265930	0.955173	2.926001	0.011176	-0.032538	0.000878	-0.752686	0.220459	-0.037109	0.348461	-0.507587	-0.308331	-0.725164
23802		9.303165	0.879246	2.915266	-0.063003	-0.023655	0.013579	-0.752441	0.226562	-0.037109	0.348108	-0.508153	-0.307758	-0.725180
23803		9.321461	0.922514	2.758915	0.048156	-0.025556	-0.007830	-0.751953	0.231201	-0.035645	0.348311	-0.508183	-0.308302	-0.724831
23804		9.356519	0.923895	2.887498	0.016483	-0.007418	0.011483	-0.754395	0.226074	-0.035889	0.348590	-0.508289	-0.308329	-0.724610
23805		9.265841	0.958810	2.820962	0.016336	0.002430	-0.007493	-0.757080	0.223877	-0.035400	0.348685	-0.508210	-0.308471	-0.724560
23806		9.227514	0.928973	2.816307	0.012718	-0.005835	0.002156	-0.750732	0.221924	-0.041016	0.348785	-0.508254	-0.308571	-0.724438
23807		9.265761	0.906370	2.849421	0.011376	0.001064	-0.001349	-0.754150	0.219238	-0.027588	0.348904	-0.508173	-0.308654	-0.724403
23808		9.323614	0.887965	2.869772	-0.007380	-0.007126	0.003198	-0.760254	0.227783	-0.038574	0.348800	-0.508380	-0.308588	-0.724335
23809		9.362700	0.917052	2.784426	-0.003701	0.003535	-0.001296	-0.750244	0.229004	-0.029541	0.348841	-0.508377	-0.308506	-0.724353
23810		9.293004	0.904255	2.845177	0.017019	0.005219	-0.002874	-0.756348	0.223145	-0.043945	0.348982	-0.508357	-0.308585	-0.724265
23811		9.269847	0.859792	2.858651	0.004479	-0.004765	-0.006350	-0.758545	0.221680	-0.037354	0.349003	-0.508311	-0.308671	-0.724251
23812		9.245667	0.932921	2.840980	0.007471	-0.003198	-0.008060	-0.757324	0.231689	-0.027100	0.348975	-0.508287	-0.308794	-0.724229
23813		9.280551	0.924782	2.845172	-0.006184	-0.001110	-0.005711	-0.749268	0.223877	-0.036377	0.348904	-0.508443	-0.308701	-0.724193
23814		9.306251	0.909647	2.842225	-0.010815	0.006748	-0.008060	-0.751221	0.227539	-0.033691	0.348836	-0.508427	-0.308588	-0.724285
23815		9.319298	0.889862	2.901571	-0.009914	0.008556	-0.007239	-0.754395	0.225342	-0.034668	0.348791	-0.508433	-0.308448	-0.724363
23816		9.282369	0.900703	2.888731	-0.007848	0.002872	-0.008127	-0.755371	0.231689	-0.040039	0.348711	-0.508458	-0.308376	-0.724414
23817		9.303478	0.885955	2.857489	0.000560	0.009579	-0.007562	-0.750244	0.219971	-0.034180	0.348791	-0.508363	-0.308316	-0.724468
23818		9.277063	0.895911	2.823873	-0.006908	0.007940	-0.007910	-0.748291	0.222412	-0.036377	0.348707	-0.508328	-0.308253	-0.724559
23819		9.286255	0.882456	2.803564	-0.000062	-0.001957	-0.008034	-0.753174	0.223633	-0.037109	0.348664	-0.508343	-0.308280	-0.724558
23820		9.283960	0.857296	2.803392	0.010306	-0.003078	-0.009222	-0.751221	0.222412	-0.026611	0.348674	-0.508314	-0.308414	-0.724516
23821		9.306609	0.894696	2.887712	0.013874	-0.002619	-0.009021	-0.753174	0.221680	-0.033203	0.348633	-0.508361	-0.308563	-0.724440
23822		9.311524	0.930488	2.857659	-0.000455	0.009141	-0.005564	-0.757568	0.216309	-0.040039	0.348616	-0.508311	-0.308527	-0.724499
23823		9.238543	0.944736	2.776471	0.030194	-0.034209	-0.009470	-0.754395	0.225830	-0.046631	0.348596	-0.508419	-0.309033	-0.724216
23824		9.270111	0.876283	2.914444	-0.046496	-0.021169	0.000872	-0.748779	0.221924	-0.029053	0.348359	-0.508754	-0.308678	-0.724247
23825		9.313968	0.907496	2.753387	0.062277	-0.031830	-0.022898	-0.752686	0.229004	-0.034912	0.348409	-0.508771	-0.309478	-0.723869
23826		9.378999	0.950403	2.776311	0.018058	-0.017011	-0.003996	-0.754150	0.228271	-0.031738	0.348497	-0.508884	-0.309674	-0.723664
23827		9.307549	0.981110	2.794732	0.013593	0.002295	-0.017786	-0.753662	0.222412	-0.026123	0.348475	-0.508813	-0.309832	-0.723657
23828		9.264595	0.939091	2.772827	0.009795	0.007642	-0.005791	-0.750732	0.224854	-0.038086	0.348477	-0.508789	-0.309873	-0.723655
23829		9.255910	0.929025	2.826995	0.005544	0.024488	-0.007579	-0.759277	0.225342	-0.036621	0.348618	-0.508523	-0.309826	-0.723794
23830		9.320438	0.917990	2.862889	-0.023425	0.028194	-0.003225	-0.753906	0.222168	-0.029785	0.348594	-0.508383	-0.309476	-0.724053
23831		9.371066	0.913086	2.852918	-0.015250	0.035024	-0.006463	-0.757812	0.225098	-0.034668	0.348555	-0.508192	-0.309182	-0.724332
23832		9.288581	0.913729	2.843656	0.007183	0.036502	-0.009087	-0.758545	0.222900	-0.042725	0.348683	-0.507847	-0.309102	-0.724546
23833		9.261004	0.891487	2.884279	0.003745	0.025288	-0.011260	-0.750732	0.231689	-0.040039	0.348772	-0.507532	-0.309087	-0.724730
23834		9.255914	0.948812	2.841559	0.001887	0.033518	-0.010486	-0.753174	0.225098	-0.041748	0.348935	-0.507221	-0.308946	-0.724930
23835		9.276171	0.928219	2.876532	-0.013325	0.039080	-0.005798	-0.754883	0.214600	-0.036377	0.349028	-0.506908	-0.308656	-0.725228
23836		9.286877	0.927521	2.883812	-0.018461	0.037550	-0.007751	-0.756348	0.222412	-0.038574	0.348946	-0.506643	-0.308378	-0.725571
23837		9.289702	0.928248	2.931235	-0.013395	0.034776	-0.005609	-0.751953	0.220215	-0.034424	0.348963	-0.506401	-0.308109	-0.725846
23838		9.292544	0.893679	2.948827	-0.009474	0.033794	-0.004408	-0.754395	0.222900	-0.036377	0.348971	-0.506193	-0.307862	-0.726091
23839		9.306859	0.885193	2.935527	-0.003675	0.040780	-0.001724	-0.750488	0.219971	-0.043701	0.349087	-0.505903	-0.307613	-0.726344
23840		9.278887	0.920468	2.900321	-0.009846	0.051746	0.001172	-0.754150	0.225342	-0.044678	0.349285	-0.505477	-0.307278	-0.726686
23841		9.257603	0.919574	2.885206	-0.027713	0.047943	0.002548	-0.753662	0.229492	-0.035889	0.349388	-0.505186	-0.306764	-0.727056
23842		9.229940	0.955265	2.948002	-0.021963	0.036328	-0.002180	-0.751709	0.225342	-0.043945	0.349376	-0.505064	-0.306324	-0.727332
23843		9.236150	0.926424	2.935304	-0.007865	0.030373	-0.006728	-0.749756	0.229980	-0.041748	0.349439	-0.504829	-0.306118	-0.727552
23844		9.291209	0.961166	3.093691	0.001621	0.045716	-0.013610	-0.752686	0.223389	-0.046143	0.349563	-0.504429	-0.305936	-0.727846
23845		9.183992	0.920760	2.832173	0.027602	0.042638	-0.017126	-0.760986	0.221924	-0.052979	0.349796	-0.503872	-0.306079	-0.728060
23846		9.192483	0.877926	3.091420	-0.042006	-0.008749	-0.005020	-0.748291	0.227539	-0.045166	0.349528	-0.504071	-0.305775	-0.728178
23847		9.249761	0.956380	2.941409	0.020406	-0.027043	-0.021383	-0.754883	0.225342	-0.039551	0.349432	-0.504195	-0.306150	-0.727981
23848		9.343329	0.898270	2.836481	0.037468	-0.001319	-0.014826	-0.753174	0.230957	-0.039307	0.349528	-0.504075	-0.306523	-0.727861
23849		9.271118	0.967767	2.994343	0.023976	0.013860	-0.014935	-0.748535	0.223633	-0.048828	0.349627	-0.503901	-0.306671	-0.727872
23850		9.224060	0.929125	3.041425	0.016829	-0.001114	-0.018691	-0.754395	0.225342	-0.049561	0.349647	-0.503769	-0.306916	-0.727850
23851		9.200977	0.928306	3.035613	0.006983	0.011821	-0.012786	-0.750000	0.229004	-0.045898	0.349707	-0.503585	-0.306975	-0.727925
23852		9.205233	0.902417	2.987102	0.001269	-0.000710	-0.011963	-0.754150	0.225586	-0.043945	0.349687	-0.503594	-0.306990	-0.727921
23853		9.264082	0.942396	2.988264	0.001729	-0.001781	-0.011954	-0.752441	0.226562	-0.050537	0.349622	-0.503614	-0.307030	-0.727921
23854		9.289009	0.915968	2.984967	0.005406	0.001291	-0.013732	-0.753418	0.229492	-0.038330	0.349641	-0.503528	-0.307118	-0.727934
23855		9.310077	0.934563	3.127986	0.000476	-0.016617	-0.014194	-0.752686	0.220459	-0.047363	0.349469	-0.503746	-0.307184	-0.727839
23856		9.169523	0.946765	3.005762	0.003373	-0.012760	-0.018805	-0.749023	0.221680	-0.047852	0.349322	-0.503781	-0.307369	-0.727807
23857		9.149039	0.986844	2.986936	-0.003107	-0.001026	-0.018322	-0.751709	0.223145	-0.049316	0.349206	-0.503740	-0.307430	-0.727865
23858		9.198833	0.952129	3.021013	-0.018154	0.009245	-0.014842	-0.761230	0.218994	-0.051514	0.349080	-0.503677	-0.307287	-0.728030
23859		9.247453	0.943516	3.037354	-0.013583	0.016531	-0.010640	-0.755615	0.220215	-0.045898	0.349020	-0.503509	-0.307164	-0.728226
23860		9.230679	0.918393	3.042664	-0.006395	0.006908	-0.007914	-0.753174	0.226074	-0.046875	0.348966	-0.503466	-0.307097	-0.728310
23861		9.219360	0.900022	3.025109	0.005240	-0.002810	-0.009286	-0.762695	0.221924	-0.042725	0.348981	-0.503469	-0.307158	-0.728276
23862		9.240266	0.907984	3.021630	0.017716	0.000052	-0.005923	-0.758057	0.216797	-0.047607	0.349037	-0.503423	-0.307313	-0.728215
23863		9.245464	0.921601	2.952061	-0.000641	0.004011	-0.001529	-0.756104	0.220459	-0.051270	0.349057	-0.503380	-0.307295	-0.728243
23864		9.241292	0.957002	2.951710	0.000312	-0.009339	-0.002542	-0.744873	0.223145	-0.049316	0.349076	-0.503432	-0.307344	-0.728177
23865		9.239739	0.930965	2.950359	0.018821	-0.005026	-0.004386	-0.752197	0.222900	-0.046631	0.349239	-0.503384	-0.307525	-0.728056
23866		9.251625	0.935081	3.036378	0.031834	0.000953	-0.007354	-0.749268	0.217285	-0.047607	0.349437	-0.503235	-0.307813	-0.727942
23867		9.243635	0.989791	3.118902	0.038147	0.035204	-0.005196	-0.757812	0.222168	-0.042725	0.349807	-0.502732	-0.308021	-0.728024
23868		9.143831	0.935224	2.888101	0.064456	-0.011545	-0.010399	-0.758057	0.224365	-0.050781	0.350071	-0.502583	-0.308665	-0.727727
23869		9.202793	0.939570	3.199368	-0.045367	-0.040551	0.004936	-0.759033	0.218994	-0.043213	0.349754	-0.503174	-0.308364	-0.727598
23870		9.332738	0.939607	2.884649	0.071997	-0.056766	-0.014935	-0.758545	0.224121	-0.046875	0.349841	-0.503363	-0.309323	-0.727019
23871		9.206750	0.946951	2.901832	0.024593	-0.023206	0.007371	-0.759033	0.218994	-0.049561	0.350032	-0.503518	-0.309558	-0.726719
23872		9.171148	0.962980	3.066291	0.031776	-0.042787	-0.007555	-0.754150	0.211182	-0.038818	0.350052	-0.503719	-0.310075	-0.726350
23873		9.206995	0.919860	3.012435	0.005766	-0.045117	0.003787	-0.759033	0.229736	-0.046387	0.349881	-0.504166	-0.310279	-0.726035
23874		9.238216	0.933982	2.838621	0.005092	-0.057064	0.004324	-0.757080	0.218994	-0.045166	0.349828	-0.504708	-0.310484	-0.725597
23875		9.290024	0.945814	2.956764	-0.005834	-0.055126	0.012614	-0.751709	0.219971	-0.041504	0.349734	-0.505279	-0.310577	-0.725204
23876		9.304077	0.963284	2.952120	0.001458	-0.055482	0.010247	-0.755859	0.232910	-0.042725	0.349655	-0.505839	-0.310732	-0.724785
23877		9.218261	0.920208	2.961153	0.006851	-0.070336	0.007650	-0.751709	0.221680	-0.036865	0.349609	-0.506516	-0.310977	-0.724230
23878		9.244434	0.926604	3.028648	0.003479	-0.086975	0.007180	-0.753418	0.219482	-0.036133	0.349377	-0.507363	-0.311291	-0.723613
23879		9.181253	0.957719	2.987168	0.012191	-0.101365	0.008170	-0.762207	0.226807	-0.040283	0.349143	-0.508290	-0.311755	-0.722876
23880		9.153053	0.952195	2.959105	0.003715	-0.104037	0.006574	-0.750000	0.226074	-0.031982	0.348901	-0.509236	-0.312168	-0.722148
23881		9.085821	0.948922	2.946352	-0.015760	-0.111496	0.008389	-0.756836	0.222412	-0.031006	0.348488	-0.510397	-0.312389	-0.721432
23882		9.013314	0.980781	2.922676	0.000747	-0.120313	0.002856	-0.758545	0.225830	-0.028076	0.348068	-0.511519	-0.312858	-0.720636
23883		8.974406	0.992392	2.889910	0.020232	-0.148943	-0.006779	-0.760498	0.228027	-0.018066	0.347580	-0.512789	-0.313672	-0.719615
23884		8.944522	0.970335	2.778564	0.062002	-0.194690	-0.008723	-0.754639	0.223633	-0.021240	0.347103	-0.514348	-0.315026	-0.718140
23885		8.935914	0.957946	2.722209	0.100787	-0.242174	-0.002589	-0.748779	0.227051	-0.021240	0.346791	-0.516116	-0.316936	-0.716178
23886		8.877340	0.943815	2.515792	0.113163	-0.287553	0.012002	-0.754150	0.226074	-0.009766	0.346572	-0.518267	-0.319059	-0.713785
23887		8.448640	0.942026	2.334918	0.140176	-0.375625	0.018922	-0.760010	0.218262	-0.007324	0.346151	-0.521155	-0.321726	-0.710682
23888		7.705535	0.775732	1.960551	0.200130	-0.473851	0.023726	-0.753174	0.230225	0.003418	0.345738	-0.524597	-0.325365	-0.706683
23889		6.705633	0.514230	1.565423	0.264589	-0.541651	0.042784	-0.757324	0.230957	0.009766	0.345669	-0.528475	-0.329660	-0.701820
23890		5.685914	0.312284	0.949713	0.332604	-0.595944	0.070827	-0.761475	0.223389	0.022217	0.346062	-0.532591	-0.334597	-0.696155
23891		5.039071	0.031811	0.580032	0.326153	-0.661567	0.111086	-0.756592	0.227783	0.035156	0.346375	-0.537428	-0.339485	-0.689888
23892		5.444805	0.245490	0.232056	0.103668	-0.608194	0.151597	-0.769531	0.228027	0.043701	0.345741	-0.542930	-0.341900	-0.684686
23893		6.795610	0.928220	0.066584	0.066250	-0.531061	0.105110	-0.757324	0.239990	0.062012	0.344751	-0.547659	-0.343991	-0.680358
23894		9.271571	0.883105	1.112554	0.075375	-0.418491	0.066512	-0.765381	0.247070	0.062500	0.343954	-0.551324	-0.345839	-0.676855
23895		11.271674	0.262266	2.439906	0.152195	-0.365819	0.047076	-0.756836	0.252930	0.071289	0.343820	-0.554060	-0.348269	-0.673435
23896		12.449845	0.590014	1.857519	0.126716	-0.198134	0.056024	-0.768066	0.241455	0.083984	0.344314	-0.555573	-0.349655	-0.671214
23897		13.321495	1.222067	1.752945	0.173727	0.031751	0.027589	-0.767822	0.243408	0.082031	0.345743	-0.554844	-0.350633	-0.670572
23898		16.143694	0.993670	2.811949	0.299951	0.126329	0.023159	-0.763184	0.237305	0.069092	0.348433	-0.552748	-0.352287	-0.670043
23899		20.467814	0.846488	4.100213	0.101686	0.234018	0.088516	-0.769287	0.247314	0.074219	0.350838	-0.550796	-0.351424	-0.670848
23900		23.279925	2.292370	2.922577	0.017075	0.564284	0.069316	-0.761475	0.250732	0.053467	0.353868	-0.546447	-0.348435	-0.674363
23901		25.850086	2.338514	4.842829	0.190749	0.830873	-0.036485	-0.763428	0.250000	0.038574	0.358429	-0.538511	-0.346479	-0.679328
23902		24.942799	2.231087	5.265293	0.159061	1.194229	0.005440	-0.757080	0.250244	0.005371	0.364631	-0.527729	-0.342281	-0.686578
23903		19.853067	2.331432	4.078454	0.045174	1.605320	-0.029866	-0.756592	0.240479	-0.027832	0.371508	-0.513556	-0.335406	-0.696954
23904		12.659854	2.687850	3.152090	0.132126	1.670938	-0.217186	-0.751465	0.240479	-0.073242	0.377443	-0.497346	-0.330096	-0.707969
23905		4.220193	1.584159	2.212280	0.588540	1.202181	-0.369736	-0.739746	0.220459	-0.099854	0.382900	-0.482248	-0.331906	-0.714607
23906		-1.545680	-0.386356	0.930219	0.386117	0.587902	-0.246705	-0.738770	0.223389	-0.114258	0.385614	-0.473981	-0.334073	-0.717662
23907		-1.964565	-1.052380	0.189883	0.281785	0.121801	-0.153083	-0.744629	0.219971	-0.122070	0.386585	-0.470803	-0.336938	-0.717892
23908		-0.894380	-0.124330	0.094291	0.169346	-0.226719	-0.124030	-0.738770	0.212158	-0.121826	0.385668	-0.471408	-0.340293	-0.716405
23909		-0.010215	0.463493	-0.395759	0.128770	-0.520933	-0.120780	-0.742920	0.205811	-0.114990	0.383261	-0.474842	-0.344671	-0.713329
23910		-0.021730	0.308659	-1.139793	0.070008	-0.590662	-0.089900	-0.739502	0.209961	-0.105469	0.380413	-0.479322	-0.348641	-0.709919
23911		0.087499	-0.021848	-1.082658	0.028129	-0.495117	-0.044363	-0.748047	0.201904	-0.100098	0.378099	-0.483382	-0.351469	-0.707002
23912		0.480893	0.101451	-0.283740	0.053628	-0.423569	0.003181	-0.742676	0.209229	-0.085449	0.376632	-0.486900	-0.353881	-0.704162
23913		0.226984	0.194889	0.047334	0.050954	-0.343210	0.042263	-0.750244	0.207764	-0.087891	0.375835	-0.489902	-0.355635	-0.701618
23914		-0.331102	-0.093419	0.497662	-0.072244	-0.409246	0.074186	-0.754395	0.205322	-0.056152	0.374261	-0.494189	-0.356418	-0.699051
23915		-1.028665	-0.278265	0.262351	-0.121826	-0.570963	0.086035	-0.762695	0.210205	-0.057617	0.371743	-0.500158	-0.357434	-0.695622
23916		0.107730	0.045615	-0.508803	-0.168022	-0.721131	0.100591	-0.758789	0.214355	-0.026855	0.368367	-0.507674	-0.358626	-0.691347
23917		6.205581	0.745510	1.753859	-0.236200	-0.788072	0.089683	-0.764160	0.218262	-0.010498	0.364128	-0.515987	-0.359572	-0.686932
23918		18.305281	0.695744	4.518161	-0.468677	-0.674581	0.126794	-0.759521	0.219238	0.013672	0.359178	-0.524495	-0.357727	-0.684053
23919		34.831862	5.920446	4.320294	-0.611550	-0.929937	0.089152	-0.770020	0.229980	0.044922	0.351768	-0.535584	-0.355989	-0.680206
23920		44.036327	5.722041	4.736833	-0.446938	-0.395205	-0.292755	-0.768311	0.222900	0.051025	0.344554	-0.539632	-0.355829	-0.680783
23921		36.441997	2.997644	6.040513	-0.312322	0.068632	-0.327858	-0.775391	0.209229	0.047607	0.340006	-0.538965	-0.355053	-0.683995
23922		24.647013	1.681747	4.812498	-0.352207	0.807999	-0.205203	-0.766602	0.203613	0.035889	0.339486	-0.532647	-0.349931	-0.691798
23923		11.969240	2.273427	2.539846	-0.381244	1.056276	-0.268333	-0.769775	0.207520	0.008057	0.339256	-0.523943	-0.343862	-0.701533
23924		1.435413	0.523474	0.207760	0.040682	0.796642	-0.387050	-0.767578	0.202637	-0.023193	0.339588	-0.515124	-0.343323	-0.708137
23925		-4.185162	-0.882706	-0.445411	-0.057542	0.185336	-0.355722	-0.768555	0.190674	-0.023193	0.336921	-0.512222	-0.344280	-0.711044
23926		-1.874880	-0.335092	-0.439061	-0.282941	-0.231518	-0.167714	-0.768799	0.189941	-0.020020	0.332670	-0.514775	-0.343768	-0.711450
23927		0.271871	0.553722	-1.077466	-0.463566	-0.494964	-0.051859	-0.773438	0.184082	-0.002197	0.327140	-0.520894	-0.341982	-0.710420
23928		0.411478	0.736475	-1.647090	-0.411540	-0.438390	-0.144102	-0.771240	0.178223	0.008789	0.321347	-0.525871	-0.341010	-0.709865
23929		1.147448	0.430442	-0.872013	-0.413800	-0.202270	-0.162007	-0.777100	0.176025	0.013916	0.316372	-0.528659	-0.339179	-0.710905
23930		0.763367	0.194106	0.007404	-0.482781	-0.014057	-0.062474	-0.763428	0.174561	0.022461	0.312614	-0.530449	-0.335324	-0.713060
23931		0.101445	0.161230	0.214959	-0.519007	0.047343	-0.020136	-0.773193	0.180908	0.016602	0.309247	-0.531991	-0.330627	-0.715568
23932		-0.921303	-0.027802	0.215865	-0.460902	-0.140732	-0.031309	-0.760010	0.175537	0.031982	0.305383	-0.534919	-0.327235	-0.716603
23933		-0.956345	-0.259673	0.398571	-0.405544	-0.360095	0.000075	-0.780273	0.176025	0.047852	0.301263	-0.539711	-0.324967	-0.715786
23934		2.085872	-0.004010	0.984757	-0.225613	-0.493914	0.076432	-0.774658	0.175781	0.057861	0.298478	-0.545310	-0.324283	-0.713014
23935		8.303199	-0.157835	3.468256	-0.219305	-0.432047	0.234825	-0.781006	0.180664	0.072021	0.297380	-0.550951	-0.322325	-0.710017
23936		20.923117	2.684654	3.971958	-0.373360	-0.328959	0.291755	-0.781250	0.183594	0.087158	0.296120	-0.556457	-0.318200	-0.708109
23937		32.661992	4.472609	2.994255	0.195131	-0.497069	0.042267	-0.773682	0.191162	0.095947	0.295921	-0.560329	-0.321453	-0.703655
23938		39.452279	5.002470	4.829739	0.602352	-0.301904	-0.085246	-0.778809	0.193359	0.100586	0.298250	-0.560426	-0.328479	-0.699336
23939		36.731887	3.188706	6.643985	0.630300	0.608167	-0.026273	-0.779053	0.190430	0.090088	0.305004	-0.552650	-0.331919	-0.700985
23940		24.800217	1.862443	5.171764	0.492254	1.637392	0.128928	-0.772949	0.196045	0.043945	0.316331	-0.536872	-0.329031	-0.709536
23941		12.003563	2.405870	3.247193	0.703076	1.650116	0.087060	-0.774170	0.199463	-0.003662	0.328596	-0.519716	-0.328059	-0.717145
23942		0.700164	0.344772	2.580030	0.977233	0.635960	0.034346	-0.771729	0.190918	-0.018311	0.337884	-0.510118	-0.333913	-0.717019
23943		-2.599554	-0.918110	0.786831	0.844609	-0.104503	0.022587	-0.757080	0.193359	-0.040771	0.343049	-0.507590	-0.341702	-0.712678
23944		-0.470435	-0.582767	-0.084814	0.608813	-0.440468	-0.029422	-0.763916	0.195801	-0.027588	0.344788	-0.508785	-0.349109	-0.707377
23945		1.240419	0.466860	-0.642392	0.382321	-0.479321	-0.027662	-0.756348	0.193604	-0.020508	0.344916	-0.511274	-0.354658	-0.702744
23946		0.573523	0.871719	-1.289507	0.248761	-0.175932	-0.012988	-0.749268	0.187256	-0.026367	0.345655	-0.511720	-0.357627	-0.700549
23947		0.497541	0.388463	-1.029149	0.220226	0.065733	-0.050487	-0.754639	0.186523	-0.029053	0.346953	-0.509997	-0.359533	-0.700188
23948		0.556396	-0.478762	-0.413563	0.278322	0.217855	-0.046917	-0.754150	0.190918	-0.031006	0.349335	-0.506700	-0.361269	-0.700504
23949		0.270705	-0.392561	-0.138696	0.258800	0.248905	0.027014	-0.760010	0.190430	-0.031982	0.352386	-0.503541	-0.362238	-0.700753
23950		-0.126486	0.133135	-0.182014	0.198261	0.148404	0.082995	-0.762451	0.182617	-0.042236	0.355084	-0.501777	-0.362764	-0.700384
23951		-0.316536	0.341325	-0.172984	0.288052	0.058978	0.080857	-0.757812	0.197754	-0.041748	0.357904	-0.500382	-0.364469	-0.699060
23952		3.022515	0.438954	-0.113892	0.300823	0.062873	0.130451	-0.761719	0.200928	-0.037354	0.361268	-0.499112	-0.365971	-0.697451
23953		10.543098	0.988736	3.055422	0.212515	-0.026703	0.212255	-0.758789	0.200439	-0.031250	0.364382	-0.499389	-0.366598	-0.695300
23954		19.051075	2.007169	3.730157	0.104756	-0.023967	0.203111	-0.764160	0.206299	-0.022217	0.366747	-0.500089	-0.366328	-0.693695
23955		28.442805	3.591632	4.556943	0.255474	-0.420374	0.152302	-0.751465	0.203613	-0.024170	0.367792	-0.503291	-0.369497	-0.689129
23956		19.831158	3.092098	2.398989	0.624805	-0.928231	0.008396	-0.769531	0.213135	-0.007080	0.367532	-0.508442	-0.379044	-0.680244
23957		22.662705	3.590976	2.918159	0.385927	-0.091457	0.149950	-0.768311	0.208008	-0.016113	0.370890	-0.508189	-0.381785	-0.677071
23958		18.939820	3.748333	5.803279	-0.030870	1.080781	0.140767	-0.756348	0.216797	-0.028564	0.377071	-0.499845	-0.375579	-0.683310
23959		11.541871	4.178230	4.211482	0.006847	1.545590	0.048071	-0.743164	0.209961	-0.057617	0.384781	-0.486783	-0.367982	-0.692513
23960		5.154551	2.303631	2.438001	0.024614	1.201216	-0.083650	-0.745117	0.209961	-0.080566	0.389754	-0.475864	-0.362882	-0.699973
23961		1.649907	0.019856	1.911548	-0.086572	0.661389	-0.129710	-0.750732	0.209473	-0.094482	0.391156	-0.469929	-0.359658	-0.704847
23962		1.685806	-0.388636	2.868794	-0.115599	0.174086	0.033076	-0.746582	0.213135	-0.098633	0.391610	-0.469144	-0.357581	-0.706173
23963		5.339196	1.352239	2.808684	-0.170441	-0.027605	0.212272	-0.740479	0.217041	-0.102783	0.392415	-0.471206	-0.354938	-0.705688
23964		8.321357	2.114619	2.735886	-0.216502	-0.154797	0.223702	-0.738037	0.221680	-0.095215	0.392476	-0.474655	-0.352429	-0.704599
23965		9.652280	2.101280	3.335519	-0.196070	-0.388800	0.086805	-0.747314	0.226318	-0.081543	0.390412	-0.479451	-0.352056	-0.702682
23966		10.758397	1.914970	4.138823	-0.096799	-0.506854	-0.026293	-0.749512	0.223633	-0.066406	0.387414	-0.484290	-0.353800	-0.700142
23967		10.376861	1.547463	3.820759	-0.075849	-0.321472	-0.090920	-0.750244	0.223877	-0.065186	0.384781	-0.487107	-0.355213	-0.698924
23968		9.321123	1.435645	3.553373	-0.151227	-0.202543	-0.092036	-0.744629	0.217285	-0.062500	0.382201	-0.489232	-0.355388	-0.698766
23969		8.521093	1.522760	3.264330	-0.247843	-0.179519	-0.066280	-0.752441	0.221191	-0.058838	0.379350	-0.491721	-0.354448	-0.699050
23970		8.943093	1.453804	3.313738	-0.345606	-0.122823	-0.062099	-0.753418	0.211182	-0.051025	0.376177	-0.494189	-0.352345	-0.700087
23971		9.362203	1.317457	2.782077	-0.330486	-0.078592	-0.091475	-0.748779	0.213867	-0.045410	0.373023	-0.496056	-0.350354	-0.701451
23972		9.410982	1.217738	2.681086	-0.298882	-0.054944	-0.088686	-0.754150	0.223633	-0.048828	0.370186	-0.497578	-0.348497	-0.702800
23973		9.324272	1.051799	2.600874	-0.264519	-0.051371	-0.059494	-0.754150	0.215820	-0.043945	0.367832	-0.499032	-0.346719	-0.703884
23974		9.471131	0.267366	2.645734	-0.176795	-0.038436	-0.045517	-0.751709	0.216797	-0.042725	0.366199	-0.500021	-0.345577	-0.704595
23975		9.328891	-0.468495	2.598314	-0.089527	-0.045534	-0.013816	-0.752441	0.217041	-0.041504	0.365358	-0.500811	-0.345029	-0.704739
23976		9.260893	-0.712323	2.213795	-0.019742	-0.061059	0.019994	-0.741455	0.214844	-0.033447	0.365183	-0.501566	-0.344950	-0.704331
23977		9.926043	-0.648902	2.189953	-0.030125	-0.036251	0.047490	-0.740234	0.214600	-0.036377	0.365286	-0.502277	-0.344489	-0.703997
23978		9.933381	-0.355473	2.341831	-0.100397	0.003703	0.050296	-0.746826	0.214844	-0.035156	0.365146	-0.502965	-0.343208	-0.704204
23979		9.557318	-0.137240	2.584914	-0.155707	0.108714	0.018050	-0.748047	0.222412	-0.038086	0.364822	-0.502841	-0.341164	-0.705453
23980		9.352493	0.022156	2.547266	-0.225729	0.188929	-0.024983	-0.750732	0.225098	-0.041992	0.364015	-0.502145	-0.338388	-0.707698
23981		9.212608	0.040792	2.719111	-0.212794	0.093095	-0.076119	-0.744873	0.214111	-0.033936	0.362427	-0.502017	-0.336472	-0.709515
23982		9.576291	0.387629	2.659469	-0.209185	0.059577	-0.104307	-0.754395	0.215576	-0.040283	0.360460	-0.502052	-0.334926	-0.711223
23983		9.614645	0.904189	2.738060	-0.207378	0.048591	-0.126543	-0.749756	0.218750	-0.042725	0.358260	-0.502071	-0.333579	-0.712951
23984		9.432463	1.327961	2.902147	-0.251025	0.047744	-0.128581	-0.756348	0.219971	-0.031982	0.355763	-0.502282	-0.331843	-0.714860
23985		9.056813	1.642680	2.905091	-0.178344	0.014245	-0.123849	-0.759033	0.214844	-0.043701	0.353607	-0.502502	-0.330865	-0.716227
23986		8.859124	2.326782	2.566560	-0.301434	-0.022402	-0.150089	-0.754395	0.213135	-0.031982	0.350303	-0.503456	-0.329120	-0.717983
23987		8.881105	2.907015	2.674897	-0.306103	-0.096020	-0.218262	-0.760010	0.199219	-0.024170	0.346037	-0.504816	-0.328075	-0.719573
23988		9.483282	2.928383	2.833405	-0.258588	-0.100921	-0.247359	-0.765625	0.203857	-0.020020	0.341784	-0.505875	-0.327685	-0.721038
23989		9.639514	3.005610	2.915360	-0.262365	-0.044182	-0.216134	-0.759277	0.199219	-0.026855	0.338009	-0.506569	-0.326799	-0.722731
23990		9.112627	3.094543	2.914684	-0.242514	0.032144	-0.188144	-0.765625	0.194824	-0.023926	0.334934	-0.506578	-0.325595	-0.724698
23991		8.535389	2.994737	2.703246	-0.186157	0.098870	-0.155679	-0.764893	0.199951	-0.018555	0.332775	-0.505872	-0.324421	-0.726708
23992		8.732206	2.344643	2.753009	-0.115010	0.116404	-0.088493	-0.761230	0.187988	-0.027100	0.331736	-0.504999	-0.323379	-0.728253
23993		9.426141	1.603090	3.012876	-0.112862	0.032183	0.012716	-0.768555	0.188965	-0.030518	0.331308	-0.505264	-0.322095	-0.728834
23994		9.537744	1.035457	3.008159	-0.100923	-0.074866	0.090109	-0.763916	0.190674	-0.026367	0.331229	-0.506759	-0.320873	-0.728371
23995		9.409484	0.906395	2.543401	-0.050919	-0.055419	0.120513	-0.765381	0.195801	-0.022949	0.331818	-0.507994	-0.319829	-0.727701
23996		9.275021	0.962067	2.796772	-0.067800	0.008664	0.152517	-0.770264	0.193115	-0.024658	0.332842	-0.508850	-0.318157	-0.727368
23997		9.079076	0.928356	2.782856	-0.034257	0.017699	0.145994	-0.763916	0.204346	-0.023193	0.334056	-0.509444	-0.316805	-0.726986
23998		9.127740	0.837538	2.547694	0.041779	-0.031265	0.114656	-0.763184	0.195068	-0.022461	0.335271	-0.510055	-0.316525	-0.726119
23999		9.273480	0.638125	2.357873	0.097429	-0.065371	0.084674	-0.759521	0.207764	-0.015381	0.336436	-0.510607	-0.317110	-0.724937
24000		9.655155	0.700046	2.515795	0.042880	0.010669	0.062855	-0.766602	0.204102	-0.032959	0.337346	-0.510640	-0.316994	-0.724541
24001		9.522861	0.656354	2.457100	-0.026351	0.063993	0.039277	-0.762207	0.206543	-0.027588	0.337831	-0.510348	-0.316184	-0.724875
24002		9.154674	0.483212	2.198257	0.012271	0.075861	0.006637	-0.757080	0.209961	-0.030273	0.338306	-0.509671	-0.315880	-0.725261
24003		9.110518	0.214823	2.245822	0.047545	0.068417	0.016681	-0.755371	0.211426	-0.022949	0.339072	-0.508956	-0.315854	-0.725418
24004		9.305984	0.338654	2.384789	0.062349	0.058762	0.044408	-0.757324	0.210693	-0.032227	0.340134	-0.508393	-0.315826	-0.725327
24005		9.508877	0.619716	2.682375	0.047232	0.112655	0.065381	-0.766846	0.214844	-0.033203	0.341511	-0.507470	-0.315300	-0.725555
24006		9.350762	0.790489	2.579248	0.067178	0.120356	0.059039	-0.753662	0.211914	-0.034180	0.342978	-0.506372	-0.314955	-0.725780
24007		9.269508	0.791248	2.788929	-0.052766	0.061512	0.071304	-0.760010	0.219971	-0.025391	0.343571	-0.506367	-0.313704	-0.726045
24008		9.363551	0.960280	2.619380	0.008021	-0.009793	0.049522	-0.757568	0.213379	-0.039551	0.344052	-0.506692	-0.313436	-0.725706
24009		9.445308	1.019231	2.527265	0.001703	0.012741	0.047095	-0.758301	0.219971	-0.035645	0.344582	-0.506788	-0.313043	-0.725557
24010		9.456595	0.903798	2.753212	-0.008923	0.056179	0.040277	-0.753418	0.218750	-0.035156	0.345146	-0.506527	-0.312400	-0.725749
24011		9.314007	0.917318	2.868414	0.006324	0.086759	0.037986	-0.754639	0.216064	-0.039795	0.345906	-0.505913	-0.311781	-0.726081
24012		9.228757	0.917152	2.859319	-0.018235	0.077416	0.043831	-0.751709	0.220215	-0.035156	0.346531	-0.505499	-0.310950	-0.726427
24013		9.231956	0.956293	2.963576	-0.031556	0.070491	0.038877	-0.751953	0.220459	-0.043945	0.346991	-0.505205	-0.310051	-0.726797
24014		9.278157	0.888890	3.063140	-0.024728	0.067748	0.046164	-0.754883	0.224609	-0.038330	0.347560	-0.504916	-0.309181	-0.727096
24015		9.283930	0.839063	3.008814	-0.012984	0.060184	0.052859	-0.757324	0.221924	-0.046143	0.348220	-0.504691	-0.308399	-0.727269
24016		9.238085	0.815678	3.016925	0.015014	0.042914	0.048024	-0.756348	0.224609	-0.042236	0.348956	-0.504458	-0.307987	-0.727252
24017		9.230642	0.774095	3.044577	0.044192	0.018169	0.039628	-0.748047	0.229004	-0.042480	0.349695	-0.504306	-0.307995	-0.726999
24018		9.174559	0.777241	2.982845	0.059610	-0.010745	0.037960	-0.747314	0.219238	-0.046875	0.350406	-0.504351	-0.308266	-0.726511
24019		9.195101	0.896126	2.964051	0.049588	-0.011409	0.033893	-0.750244	0.234375	-0.056396	0.351029	-0.504398	-0.308504	-0.726076
24020		9.256167	0.939067	3.020511	0.016960	-0.011891	0.023144	-0.753906	0.237793	-0.040527	0.351354	-0.504557	-0.308478	-0.725820
24021		9.279582	1.019416	3.041808	0.010566	-0.014162	0.005153	-0.749756	0.230957	-0.052490	0.351432	-0.504739	-0.308506	-0.725643
24022		9.261006	1.029851	3.038832	0.022812	-0.029629	-0.014384	-0.757568	0.225830	-0.050049	0.351381	-0.504888	-0.308859	-0.725414
24023		9.245149	1.080377	3.093035	-0.005787	-0.022072	-0.033300	-0.753174	0.228271	-0.043945	0.351001	-0.505014	-0.309056	-0.725426
24024		9.203973	1.037486	2.958211	-0.057805	-0.017096	-0.052041	-0.758301	0.223389	-0.038818	0.350132	-0.505272	-0.308865	-0.725748
24025		9.243174	0.981247	2.912020	-0.050310	-0.019894	-0.063728	-0.761963	0.220459	-0.041992	0.349183	-0.505479	-0.308840	-0.726072
24026		9.225408	0.891265	2.972345	-0.042576	-0.019886	-0.061341	-0.750244	0.224854	-0.035156	0.348311	-0.505646	-0.308879	-0.726358
24027		9.237438	0.887420	2.956773	-0.044679	-0.026824	-0.060888	-0.749512	0.217529	-0.032471	0.347392	-0.505917	-0.308898	-0.726600
24028		9.330890	0.902654	3.067347	-0.064941	-0.023885	-0.057771	-0.760986	0.224121	-0.036621	0.346384	-0.506253	-0.308719	-0.726924
24029		9.261232	1.008753	2.922076	-0.028236	-0.031143	-0.055097	-0.752441	0.223633	-0.031982	0.345602	-0.506508	-0.308869	-0.727055
24030		9.261623	0.954672	2.974422	-0.086654	-0.051289	-0.038603	-0.760010	0.218994	-0.025391	0.344516	-0.507275	-0.308461	-0.727209
24031		9.246583	1.117055	2.835815	-0.029444	-0.050236	-0.045713	-0.755371	0.218506	-0.037109	0.343717	-0.507761	-0.308625	-0.727178
24032		9.300873	1.032889	2.780010	-0.001915	-0.043235	-0.040722	-0.758789	0.221680	-0.038086	0.343203	-0.508048	-0.308988	-0.727066
24033		9.323961	1.173446	2.836603	-0.012171	-0.020672	-0.038533	-0.751221	0.216553	-0.040039	0.342728	-0.508186	-0.309136	-0.727131
24034		9.316485	1.170479	2.883969	-0.017144	-0.010568	-0.051808	-0.754639	0.222412	-0.032715	0.342160	-0.508184	-0.309298	-0.727331
24035		9.218546	1.088792	2.919170	-0.013556	0.007959	-0.048983	-0.754883	0.216797	-0.033691	0.341681	-0.508047	-0.309365	-0.727623
24036		9.174467	1.099819	2.917195	-0.020737	0.003804	-0.044539	-0.761230	0.212891	-0.028320	0.341190	-0.507980	-0.309374	-0.727897
24037		9.236250	1.145975	2.858560	-0.028671	-0.007173	-0.042143	-0.758301	0.218018	-0.036621	0.340610	-0.508063	-0.309351	-0.728120
24038		9.308939	1.144125	2.837656	-0.020798	-0.004176	-0.042783	-0.751953	0.208252	-0.037842	0.340107	-0.508071	-0.309378	-0.728338
24039		9.286931	1.182584	2.879841	0.012370	0.004311	-0.039707	-0.762207	0.208740	-0.026855	0.339898	-0.507843	-0.309688	-0.728463
24040		9.275804	1.149639	2.823378	0.004060	0.004044	-0.035345	-0.756104	0.204834	-0.032715	0.339630	-0.507708	-0.309879	-0.728600
24041		9.269540	1.184872	2.786108	-0.007093	0.012185	-0.036304	-0.760010	0.213623	-0.033203	0.339341	-0.507515	-0.309959	-0.728835
24042		9.251791	1.172060	2.832355	-0.022720	0.020820	-0.029900	-0.756104	0.216309	-0.039307	0.339032	-0.507359	-0.309786	-0.729162
24043		9.293958	1.170020	2.912062	-0.017988	0.035337	-0.025101	-0.762451	0.212158	-0.033691	0.338872	-0.507059	-0.309559	-0.729541
24044		9.325885	1.131516	2.987309	-0.035124	0.049943	-0.016458	-0.763672	0.218750	-0.040771	0.338717	-0.506740	-0.309067	-0.730043
24045		9.231362	1.113490	2.903040	-0.015492	0.040399	-0.013638	-0.756836	0.208740	-0.038574	0.338687	-0.506433	-0.308760	-0.730400
24046		9.254083	1.107683	2.947930	-0.012227	0.033698	-0.006062	-0.756836	0.205811	-0.044189	0.338730	-0.506184	-0.308497	-0.730664
24047		9.253891	1.148303	2.965918	-0.037944	0.037930	-0.002139	-0.755127	0.206787	-0.035645	0.338682	-0.505995	-0.307974	-0.731037
24048		9.216726	1.124581	2.881873	-0.052657	0.033658	-0.004296	-0.756104	0.212402	-0.035156	0.338474	-0.505933	-0.307331	-0.731447
24049		9.209159	1.095795	2.960151	-0.035888	0.027667	-0.003766	-0.759766	0.205811	-0.039062	0.338345	-0.505876	-0.306842	-0.731752
24050		9.222845	1.141897	2.913964	-0.019980	0.014406	-0.004356	-0.758545	0.216309	-0.028076	0.338274	-0.505837	-0.306589	-0.731917
24051		9.291984	1.169789	3.028630	-0.021363	0.034971	-0.017200	-0.757568	0.209961	-0.048340	0.338110	-0.505638	-0.306261	-0.732268
24052		9.204520	1.091893	2.841067	0.018083	0.027431	-0.027057	-0.761963	0.208984	-0.045166	0.338153	-0.505212	-0.306443	-0.732466
24053		9.158107	0.981483	2.997882	-0.039946	-0.013043	-0.013455	-0.754395	0.207275	-0.034180	0.337781	-0.505466	-0.306177	-0.732574
24054		9.258336	1.099048	2.930316	0.010569	-0.024833	-0.027663	-0.756104	0.209473	-0.034668	0.337523	-0.505596	-0.306499	-0.732468
24055		9.353712	1.109794	2.757072	0.040644	0.008134	-0.029771	-0.765869	0.213867	-0.041992	0.337561	-0.505294	-0.306962	-0.732465
24056		9.309141	1.122357	2.963754	0.032515	0.034254	-0.023511	-0.762695	0.210938	-0.040771	0.337719	-0.504796	-0.307198	-0.732637
24057		9.209634	1.072336	3.042711	0.045297	0.029316	-0.026036	-0.765869	0.215576	-0.038330	0.337913	-0.504280	-0.307593	-0.732736
24058		9.147193	1.058960	2.967109	0.024687	0.020921	-0.012178	-0.755615	0.213867	-0.042969	0.338052	-0.504009	-0.307722	-0.732804
24059		9.201919	1.109016	2.913438	0.015969	0.015577	-0.009552	-0.762451	0.202881	-0.036621	0.338168	-0.503815	-0.307789	-0.732857
24060		9.241243	1.063161	2.971142	0.005639	0.016293	-0.006567	-0.759521	0.208008	-0.047119	0.338225	-0.503660	-0.307773	-0.732943
24061		9.311906	1.097138	2.936096	0.006474	0.023557	-0.005456	-0.760742	0.201416	-0.041748	0.338363	-0.503415	-0.307723	-0.733069
24062		9.240862	1.081392	2.998904	0.014435	0.015062	-0.008012	-0.756592	0.208496	-0.042725	0.338477	-0.503208	-0.307815	-0.733120
24063		9.209809	1.015903	2.995165	0.012516	-0.001370	-0.008734	-0.755615	0.208008	-0.046387	0.338510	-0.503177	-0.307934	-0.733076
24064		9.200479	1.057867	2.917005	0.013797	0.004265	0.003228	-0.762939	0.210693	-0.045654	0.338699	-0.503118	-0.307975	-0.733012
24065		9.245624	1.083442	2.941953	-0.004059	0.011893	0.011604	-0.760986	0.206543	-0.036621	0.338867	-0.503108	-0.307756	-0.733033
24066		9.245637	1.048090	3.015489	0.003049	0.025012	0.005061	-0.757080	0.204834	-0.046631	0.339038	-0.502947	-0.307589	-0.733135
24067		9.238271	0.998464	3.042811	0.003662	0.029771	0.012393	-0.758545	0.206055	-0.049316	0.339344	-0.502722	-0.307386	-0.733233
24068		9.267022	1.043258	3.004633	0.015066	0.022479	0.011479	-0.758301	0.209961	-0.047852	0.339691	-0.502506	-0.307324	-0.733246
24069		9.269093	1.076516	2.980224	0.028927	0.035467	0.008309	-0.763672	0.215088	-0.045410	0.340135	-0.502119	-0.307336	-0.733300
24070		9.235261	1.057069	3.022637	0.016179	0.044269	0.007372	-0.759033	0.207275	-0.034180	0.340503	-0.501731	-0.307175	-0.733462
24071		9.188367	1.048884	2.958135	0.004494	0.032261	0.008498	-0.757812	0.216309	-0.047363	0.340718	-0.501535	-0.306957	-0.733588
24072		9.200301	1.006400	2.973111	0.022978	0.025005	0.007658	-0.767090	0.211914	-0.051758	0.341063	-0.501297	-0.306934	-0.733600
24073		9.213673	1.007020	2.985566	0.043870	0.021191	0.006569	-0.751953	0.208496	-0.050049	0.341523	-0.500967	-0.307155	-0.733519
24074		9.252944	1.073351	3.142736	0.044431	0.040343	0.003995	-0.756104	0.212158	-0.052002	0.342047	-0.500449	-0.307323	-0.733558
24075		9.150598	1.033982	2.916683	0.081764	0.033767	-0.001662	-0.752930	0.208252	-0.050049	0.342725	-0.499816	-0.307884	-0.733438
24076		9.143589	1.006929	3.155085	-0.001169	-0.017423	0.012001	-0.753174	0.211182	-0.051758	0.342805	-0.500061	-0.307828	-0.733257
24077		9.249150	1.112948	3.053660	0.042291	-0.045885	-0.001672	-0.752197	0.215088	-0.050781	0.342929	-0.500327	-0.308371	-0.732789
24078		9.301017	1.061624	2.844671	0.055589	-0.003749	0.004018	-0.750244	0.204834	-0.049561	0.343349	-0.500187	-0.308802	-0.732507
24079		9.200010	1.085608	3.032372	0.027557	-0.000501	-0.000142	-0.754883	0.212402	-0.047119	0.343568	-0.500093	-0.309030	-0.732372
24080		9.164209	1.008963	3.095822	0.043408	-0.008665	-0.007318	-0.761230	0.217529	-0.052734	0.343769	-0.500014	-0.309446	-0.732156
24081		9.154135	1.009403	3.005360	0.020721	-0.012861	0.006386	-0.758545	0.210938	-0.049316	0.343953	-0.500114	-0.309579	-0.731945
24082		9.221637	1.061846	2.962590	0.017151	-0.014502	0.005715	-0.761719	0.216797	-0.041748	0.344092	-0.500235	-0.309710	-0.731741
24083		9.270310	1.033498	3.013544	0.000320	-0.008005	0.008304	-0.757324	0.211182	-0.054932	0.344133	-0.500432	-0.309604	-0.731632
24084		9.279814	1.049175	2.912414	-0.005212	-0.002092	0.006974	-0.757568	0.214111	-0.048096	0.344223	-0.500511	-0.309485	-0.731586
24085		9.170659	1.061265	3.093906	-0.012404	0.006685	0.012692	-0.758789	0.213623	-0.051025	0.344320	-0.500604	-0.309200	-0.731597
24086		9.172932	1.041525	3.006851	-0.015353	0.002738	0.007365	-0.754883	0.210205	-0.042236	0.344347	-0.500708	-0.308948	-0.731620
24087		9.164459	1.013953	3.058588	-0.003702	0.002319	0.000121	-0.761230	0.221680	-0.053711	0.344342	-0.500768	-0.308844	-0.731625
24088		9.239303	1.024713	3.099100	-0.024985	0.003203	0.008373	-0.757324	0.214355	-0.047852	0.344325	-0.500927	-0.308469	-0.731683
24089		9.239449	1.075782	3.089759	-0.033295	0.006100	0.005916	-0.755371	0.218018	-0.054688	0.344226	-0.501087	-0.308039	-0.731801
24090		9.206788	1.011938	3.126840	-0.032148	0.004896	0.002134	-0.750488	0.215820	-0.044189	0.344130	-0.501216	-0.307651	-0.731921
24091		9.146063	0.968987	3.096501	-0.015861	-0.005438	0.002533	-0.753418	0.222412	-0.051270	0.344055	-0.501415	-0.307435	-0.731910
24092		9.194649	1.035729	3.126921	-0.015373	-0.010881	0.002711	-0.754150	0.212891	-0.052734	0.343992	-0.501649	-0.307236	-0.731863
24093		9.242774	1.071821	3.049961	-0.034669	-0.006036	-0.000587	-0.762695	0.216064	-0.053711	0.343810	-0.501864	-0.306910	-0.731938
24094		9.245733	1.012442	2.971117	-0.044719	-0.011077	-0.006400	-0.753418	0.213379	-0.055420	0.343486	-0.502149	-0.306543	-0.732048
24095		9.223418	0.943685	3.022272	-0.032596	-0.016948	-0.005472	-0.755127	0.220947	-0.042969	0.343249	-0.502420	-0.306322	-0.732066
24096		9.217505	0.977206	3.009342	-0.023518	-0.017930	-0.004082	-0.756104	0.216309	-0.042969	0.343015	-0.502753	-0.306115	-0.732034
24097		9.250201	0.979246	3.151198	-0.018541	-0.001383	-0.008739	-0.760986	0.215332	-0.046143	0.342833	-0.502876	-0.305933	-0.732111
24098		9.168491	0.980535	2.943565	0.027958	-0.010258	-0.017773	-0.751465	0.214355	-0.037842	0.342836	-0.502825	-0.306286	-0.731997
24099		9.183729	0.930371	3.162836	-0.050057	-0.047905	0.004255	-0.752930	0.213623	-0.040527	0.342376	-0.503579	-0.305925	-0.731845
24100		9.208631	1.027989	3.019291	-0.027927	-0.057328	-0.006605	-0.757812	0.207764	-0.045654	0.341938	-0.504259	-0.305889	-0.731596
24101		9.257080	1.019736	2.874207	0.033440	-0.040670	-0.013762	-0.753174	0.220215	-0.047852	0.341915	-0.504440	-0.306436	-0.731253
24102		9.321029	1.051700	3.016165	-0.005571	-0.016911	-0.002806	-0.759277	0.215820	-0.048828	0.341856	-0.504645	-0.306404	-0.731153
24103		9.226700	1.062750	2.975877	0.004413	-0.012298	-0.018187	-0.755127	0.217773	-0.043213	0.341737	-0.504681	-0.306568	-0.731115
24104		9.183491	0.971013	2.980837	-0.005576	-0.008701	-0.014403	-0.750977	0.213867	-0.041016	0.341579	-0.504779	-0.306574	-0.731118
24105		9.210362	1.000769	2.965777	-0.000597	-0.002588	-0.014463	-0.759033	0.218994	-0.034668	0.341470	-0.504798	-0.306610	-0.731141
24106		9.303123	0.994165	2.982079	-0.010496	-0.008894	-0.008909	-0.755371	0.205811	-0.046387	0.341279	-0.504989	-0.306504	-0.731142
24107		9.289949	0.987939	2.933552	-0.005942	-0.002879	-0.007528	-0.760986	0.220703	-0.041748	0.341227	-0.504998	-0.306505	-0.731160
24108		9.210899	0.987081	3.022514	0.014900	0.000984	-0.009435	-0.754150	0.214111	-0.041016	0.341269	-0.504955	-0.306610	-0.731127
24109		9.205721	0.989170	2.983080	0.009400	-0.004571	-0.006535	-0.750488	0.212402	-0.046875	0.341285	-0.504979	-0.306694	-0.731068
24110		9.198847	1.018275	2.923172	0.007818	-0.004502	-0.009733	-0.756592	0.211182	-0.035889	0.341303	-0.504958	-0.306810	-0.731025
24111		9.250339	1.020059	2.994095	-0.012597	-0.005576	-0.005130	-0.758301	0.209961	-0.038574	0.341156	-0.505108	-0.306684	-0.731043
24112		9.246963	1.055513	3.013276	-0.011372	-0.000354	-0.006339	-0.761230	0.215576	-0.042480	0.341039	-0.505178	-0.306571	-0.731096
24113		9.223579	0.994707	3.007512	-0.013604	-0.002849	-0.009872	-0.756592	0.216553	-0.045410	0.340887	-0.505266	-0.306459	-0.731154
24114		9.218874	0.955320	2.978106	0.005374	-0.008388	-0.014617	-0.755859	0.221680	-0.038818	0.340816	-0.505292	-0.306579	-0.731118
24115		9.232800	0.966020	3.022920	0.008878	-0.012141	-0.008108	-0.760742	0.212402	-0.041504	0.340776	-0.505419	-0.306659	-0.731016
24116		9.269379	1.035304	2.965854	-0.006837	-0.003542	-0.009794	-0.758789	0.210449	-0.042480	0.340662	-0.505475	-0.306623	-0.731045
24117		9.228813	1.044193	2.921383	-0.010330	-0.002523	-0.012435	-0.761475	0.214355	-0.046387	0.340515	-0.505514	-0.306579	-0.731105
24118		9.192105	0.999361	2.916596	0.005251	-0.003360	-0.013380	-0.763672	0.214111	-0.038330	0.340477	-0.505482	-0.306685	-0.731101
24119		9.250847	1.023821	2.985816	0.009128	-0.007480	-0.013470	-0.763428	0.206299	-0.041016	0.340392	-0.505516	-0.306815	-0.731062
24120		9.282738	1.057381	3.119008	-0.002576	0.008790	-0.018511	-0.752197	0.216309	-0.041992	0.340265	-0.505387	-0.306845	-0.731198
24121		9.209228	1.066190	2.833145	0.035728	-0.004218	-0.024187	-0.763672	0.211182	-0.041504	0.340306	-0.505229	-0.307271	-0.731109
24122		9.216420	0.956871	3.058180	-0.040514	-0.019823	-0.008481	-0.763916	0.213623	-0.044678	0.339925	-0.505580	-0.306989	-0.731162
24123		9.222264	1.074138	2.913388	0.019275	-0.018715	-0.022623	-0.759277	0.209717	-0.044434	0.339822	-0.505599	-0.307342	-0.731048
24124		9.295545	1.010716	2.841591	0.067155	-0.007687	-0.024156	-0.766602	0.213867	-0.040039	0.340056	-0.505296	-0.308110	-0.730826
24125		9.330831	1.082497	2.943415	0.035618	0.014879	-0.013147	-0.759277	0.208984	-0.041504	0.340238	-0.505006	-0.308388	-0.730824
24126		9.217678	1.104701	2.940214	0.036216	0.009428	-0.019077	-0.762939	0.205566	-0.054199	0.340365	-0.504718	-0.308754	-0.730809
24127		9.215472	1.090896	2.992397	0.018054	0.017794	-0.013098	-0.755371	0.205322	-0.032959	0.340540	-0.504365	-0.308949	-0.730889
24128		9.233197	1.060535	2.995567	0.018073	0.030255	-0.014992	-0.765869	0.208984	-0.042725	0.340604	-0.504029	-0.309003	-0.731068
24129		9.246590	1.082710	2.960007	-0.005505	0.026428	-0.004930	-0.767822	0.212158	-0.046143	0.340649	-0.503821	-0.308822	-0.731267
24130		9.257085	1.084054	2.953851	0.003288	0.019350	-0.011767	-0.755859	0.209229	-0.036865	0.340681	-0.503605	-0.308797	-0.731412
24131		9.221607	1.013137	2.972194	0.015567	0.002623	-0.017497	-0.755859	0.212158	-0.046631	0.340620	-0.503523	-0.308956	-0.731430
24132		9.200140	1.051699	2.963772	0.008241	-0.004860	-0.008298	-0.755371	0.210449	-0.040771	0.340645	-0.503524	-0.309055	-0.731375
24133		9.258690	1.066891	2.985459	-0.001544	0.007080	-0.005355	-0.763184	0.204102	-0.042725	0.340636	-0.503501	-0.308975	-0.731429
24134		9.231728	1.059906	2.953282	-0.015915	0.022791	-0.003691	-0.764648	0.213623	-0.036133	0.340604	-0.503365	-0.308719	-0.731646
24135		9.236553	1.038513	2.958337	-0.012232	0.021058	-0.000552	-0.759521	0.217285	-0.042236	0.340573	-0.503322	-0.308412	-0.731819
24136		9.222766	1.037919	2.974389	-0.014868	0.015709	0.001226	-0.763184	0.220459	-0.040039	0.340578	-0.503321	-0.308108	-0.731946
24137		9.281198	1.050847	3.010869	-0.005229	0.026699	-0.002121	-0.760986	0.212646	-0.044678	0.340631	-0.503193	-0.307840	-0.732121
24138		9.245528	1.030888	3.032662	-0.001600	0.034784	0.001119	-0.752686	0.207764	-0.048584	0.340797	-0.502931	-0.307605	-0.732323
24139		9.244674	1.049284	3.002472	-0.017012	0.048935	0.004323	-0.755127	0.212891	-0.046631	0.340988	-0.502575	-0.307187	-0.732654
24140		9.225645	1.060580	2.994893	-0.020331	0.036738	0.004048	-0.761230	0.209717	-0.051270	0.341086	-0.502382	-0.306757	-0.732921
24141		9.195620	1.045543	3.006617	-0.006650	0.029326	0.002592	-0.760254	0.208252	-0.048340	0.341244	-0.502152	-0.306527	-0.733101
24142		9.214360	1.051821	3.009869	0.007774	0.022758	-0.000348	-0.757324	0.223633	-0.052002	0.341413	-0.501926	-0.306466	-0.733203
24143		9.261466	1.089314	3.127366	0.009347	0.033664	-0.004595	-0.762695	0.210205	-0.051270	0.341644	-0.501614	-0.306354	-0.733355
24144		9.173661	1.012499	2.837065	0.057367	-0.005773	-0.013867	-0.768799	0.211670	-0.050781	0.341902	-0.501381	-0.306955	-0.733143
24145		9.161507	0.980793	3.179754	-0.051538	-0.030255	0.005490	-0.758789	0.208740	-0.053711	0.341545	-0.501921	-0.306532	-0.733117
24146		9.270588	1.097638	2.889730	0.037876	-0.044318	-0.018855	-0.764404	0.212402	-0.052734	0.341517	-0.502078	-0.307172	-0.732754
24147		9.337531	1.037718	2.808417	0.029119	0.003992	-0.005125	-0.759277	0.202393	-0.050293	0.341738	-0.501899	-0.307424	-0.732668
24148		9.215406	1.068689	3.000711	0.017974	0.004984	-0.010153	-0.758545	0.215576	-0.053711	0.341818	-0.501723	-0.307623	-0.732668
24149		9.148470	1.013976	3.088836	0.025060	-0.003578	-0.011640	-0.763428	0.210693	-0.050293	0.341950	-0.501614	-0.307904	-0.732563
24150		9.158922	1.063125	2.996356	0.004592	-0.005869	-0.007553	-0.758545	0.207520	-0.049072	0.341934	-0.501635	-0.307979	-0.732524
24151		9.236669	1.062648	2.945282	-0.001550	-0.011311	-0.008867	-0.764404	0.211426	-0.045410	0.341840	-0.501726	-0.308033	-0.732484
24152		9.289919	1.056673	2.976254	-0.011509	-0.006816	-0.002829	-0.755859	0.218750	-0.046631	0.341726	-0.501877	-0.307908	-0.732486
24153		9.231370	1.065377	3.001431	-0.003137	-0.010223	-0.003651	-0.753418	0.210938	-0.056885	0.341691	-0.502037	-0.307865	-0.732411
24154		9.244315	1.038496	2.987579	-0.005893	-0.018104	-0.009761	-0.754395	0.209229	-0.051270	0.341623	-0.502158	-0.307951	-0.732323
24155		9.198291	1.034329	3.000495	-0.000837	-0.008818	-0.006655	-0.764893	0.207520	-0.047852	0.341601	-0.502215	-0.308000	-0.732274
24156		9.232218	1.081527	2.984691	-0.024311	0.001251	0.000901	-0.753662	0.204590	-0.043701	0.341487	-0.502325	-0.307729	-0.732365
24157		9.247826	1.066209	3.004381	-0.029014	0.007357	-0.003282	-0.763672	0.208740	-0.044678	0.341307	-0.502404	-0.307402	-0.732533
24158		9.206650	1.010927	3.022530	-0.014286	0.004270	-0.002144	-0.759033	0.217529	-0.043945	0.341220	-0.502456	-0.307209	-0.732619
24159		9.195343	1.024504	3.044410	-0.012541	0.002394	0.001113	-0.756592	0.219238	-0.043213	0.341196	-0.502564	-0.306993	-0.732646
24160		9.201383	1.058602	3.033302	-0.001464	-0.001653	-0.005018	-0.750977	0.213135	-0.042725	0.341175	-0.502649	-0.306925	-0.732626
24161		9.240952	1.045024	3.018656	-0.006563	-0.000030	-0.007598	-0.751709	0.213379	-0.045654	0.341092	-0.502714	-0.306835	-0.732657
24162		9.208973	1.058565	2.982584	-0.024563	-0.007625	-0.003438	-0.757080	0.207031	-0.053223	0.340930	-0.502922	-0.306603	-0.732687
24163		9.213051	1.077579	2.950570	-0.022597	-0.011863	-0.003392	-0.757324	0.210693	-0.041992	0.340801	-0.503081	-0.306471	-0.732693
24164		9.210777	1.036112	2.929589	-0.010268	-0.013966	-0.010145	-0.758057	0.213135	-0.045654	0.340597	-0.503272	-0.306429	-0.732675
24165		9.233858	1.053704	2.992737	0.005660	-0.009066	-0.014087	-0.761963	0.212158	-0.050781	0.340517	-0.503313	-0.306554	-0.732631
24166		9.258995	1.016022	2.980419	0.018330	0.011178	-0.016059	-0.760254	0.207520	-0.049072	0.340611	-0.503067	-0.306754	-0.732673
24167		9.274589	1.012259	2.923783	0.005513	-0.058171	-0.015045	-0.761475	0.203613	-0.041260	0.340339	-0.503514	-0.307125	-0.732336
24168		9.342582	1.023209	3.126934	-0.094896	-0.080432	-0.013781	-0.763672	0.217285	-0.035645	0.339285	-0.504635	-0.306631	-0.732261
24169		9.386746	1.032908	2.865983	-0.037403	-0.099414	-0.040473	-0.747559	0.208008	-0.037354	0.338290	-0.505649	-0.306855	-0.731928
24170		9.262385	1.106501	2.802381	-0.115381	-0.095273	-0.039393	-0.755371	0.211914	-0.037354	0.336865	-0.506907	-0.306388	-0.731911
24171		9.164533	1.048203	2.784534	-0.181760	-0.140602	-0.074556	-0.758789	0.205078	-0.035400	0.334543	-0.508715	-0.305729	-0.731997
24172		9.134081	1.017757	2.732410	-0.247590	-0.155284	-0.090340	-0.761719	0.209717	-0.022461	0.331587	-0.510835	-0.304651	-0.732315
24173		9.161586	1.040572	2.590791	-0.331515	-0.174573	-0.102869	-0.762451	0.206787	-0.027588	0.327840	-0.513505	-0.302888	-0.732866
24174		9.255679	1.055336	2.564568	-0.421681	-0.201616	-0.118766	-0.768799	0.208496	-0.019531	0.323343	-0.516636	-0.300573	-0.733616
24175		9.274831	0.960903	2.407146	-0.492613	-0.209925	-0.132192	-0.769043	0.204346	-0.010986	0.318205	-0.520083	-0.297694	-0.734600
24176		9.298310	0.910700	2.493033	-0.538579	-0.232685	-0.150965	-0.762695	0.206299	0.000977	0.312472	-0.523833	-0.294583	-0.735650
24177		9.308385	0.812147	2.382932	-0.587201	-0.277305	-0.167262	-0.762451	0.205078	0.008789	0.306077	-0.528141	-0.291250	-0.736585
24178		9.263020	0.818386	2.305792	-0.610825	-0.324463	-0.185509	-0.765625	0.200684	0.023682	0.299178	-0.532869	-0.287980	-0.737300
24179		9.297143	0.747825	2.290103	-0.636343	-0.356454	-0.199678	-0.764404	0.187988	0.030762	0.291781	-0.537929	-0.284631	-0.737890
24180		9.203193	0.740260	2.322917	-0.645085	-0.411965	-0.213607	-0.775635	0.188232	0.044434	0.283964	-0.543388	-0.281503	-0.738140
24181		9.109580	0.828891	2.175579	-0.621214	-0.459407	-0.235609	-0.772461	0.182129	0.069092	0.275886	-0.549095	-0.278855	-0.737984
24182		9.026397	1.070944	2.146930	-0.609090	-0.511083	-0.263011	-0.771240	0.173828	0.077148	0.267319	-0.555179	-0.276574	-0.737444
24183		9.153132	1.426059	2.203253	-0.550440	-0.537417	-0.287322	-0.771973	0.169678	0.093262	0.258845	-0.561126	-0.275092	-0.736520
24184		9.299201	1.904290	2.352539	-0.525650	-0.558213	-0.288658	-0.780029	0.158936	0.105469	0.250408	-0.567152	-0.273856	-0.735281
24185		9.564849	2.390058	2.281615	-0.502729	-0.553404	-0.295528	-0.777588	0.155762	0.124023	0.242044	-0.572951	-0.272850	-0.733958
24186		9.614859	2.622821	2.365750	-0.414072	-0.517852	-0.306414	-0.776611	0.154541	0.134521	0.234285	-0.578114	-0.272561	-0.732533
24187		9.562094	2.672919	2.433681	-0.308785	-0.476321	-0.281186	-0.779541	0.145752	0.146484	0.227682	-0.582624	-0.272920	-0.730906
24188		9.564543	2.716463	2.278567	-0.211337	-0.375097	-0.216353	-0.779785	0.134277	0.150635	0.222735	-0.586087	-0.273428	-0.729471
24189		9.215273	2.561764	2.167292	-0.031348	-0.344080	-0.155851	-0.777832	0.131836	0.160156	0.219830	-0.588874	-0.275118	-0.727470
24190		9.145570	2.310989	2.369061	0.011402	-0.345369	-0.051589	-0.772949	0.135498	0.170410	0.218204	-0.591892	-0.276441	-0.725005
24191		9.189344	2.442326	2.267107	0.091238	-0.276630	0.042039	-0.784912	0.128418	0.178467	0.218276	-0.594381	-0.277609	-0.722496
24192		9.155391	2.543106	1.881543	0.201042	-0.226346	0.106446	-0.773438	0.138672	0.177490	0.219935	-0.596292	-0.279177	-0.719809
24193		9.262721	2.670023	1.779732	0.210515	-0.127050	0.162883	-0.772217	0.139893	0.175781	0.222563	-0.597455	-0.280158	-0.717652
24194		9.590041	2.601782	1.761138	0.221044	-0.075932	0.187464	-0.768799	0.155273	0.178467	0.225675	-0.598197	-0.280914	-0.715765
24195		9.853064	2.558619	1.709264	0.154041	-0.035488	0.199260	-0.775391	0.155762	0.176270	0.228538	-0.598803	-0.280873	-0.714364
24196		10.623238	2.329646	1.687872	0.067976	-0.024341	0.188934	-0.770264	0.158691	0.177490	0.230698	-0.599508	-0.280105	-0.713379
24197		10.334366	1.608501	1.437510	0.018393	-0.060401	0.154443	-0.771729	0.159668	0.179688	0.232052	-0.600554	-0.279259	-0.712392
24198		10.033993	0.728757	1.173471	-0.015237	-0.032339	0.137867	-0.772461	0.153076	0.180420	0.233099	-0.601387	-0.278153	-0.711779
24199		9.266330	0.081452	1.229364	-0.022384	-0.067253	0.158617	-0.762207	0.163574	0.190918	0.234142	-0.602623	-0.276914	-0.710874
24200		8.710811	-0.389831	0.878523	-0.005820	-0.159164	0.178860	-0.769531	0.161621	0.184570	0.235181	-0.604697	-0.275949	-0.709143
24201		9.153730	-0.539174	0.474822	0.066695	-0.250461	0.189150	-0.755859	0.169434	0.186035	0.236532	-0.607392	-0.275796	-0.706445
24202		9.996861	-0.616198	0.336687	0.111200	-0.294293	0.208063	-0.763428	0.172363	0.205322	0.238242	-0.610396	-0.276025	-0.703184
24203		10.710758	-0.306343	0.580532	0.117735	-0.248062	0.224909	-0.761475	0.181152	0.201172	0.240294	-0.613026	-0.276029	-0.700190
24204		10.497645	-0.138738	0.853116	0.123265	-0.210507	0.203835	-0.753418	0.185791	0.207031	0.242336	-0.615224	-0.276128	-0.697514
24205		9.977925	-0.281548	0.733745	0.114638	-0.188181	0.162729	-0.755127	0.195801	0.215332	0.244027	-0.617105	-0.276395	-0.695154
24206		9.630635	-0.516299	0.697740	0.101220	-0.170406	0.127679	-0.752930	0.190674	0.203369	0.245372	-0.618746	-0.276762	-0.693072
24207		9.346558	-0.834534	0.502340	0.104126	-0.141202	0.106980	-0.748291	0.193115	0.208252	0.246647	-0.620047	-0.277200	-0.691279
24208		9.323489	-0.946110	0.254744	0.121122	-0.123985	0.085828	-0.749756	0.189941	0.216064	0.247928	-0.621072	-0.277892	-0.689621
24209		9.550726	-0.894372	0.213117	0.156890	-0.114972	0.061329	-0.754639	0.209229	0.210938	0.249291	-0.621826	-0.279035	-0.687986
24210		9.580943	-0.628625	0.278937	0.191649	-0.076319	0.006011	-0.742432	0.201416	0.210938	0.250613	-0.621935	-0.280817	-0.686682
24211		9.654218	-0.383668	0.367595	0.243576	0.017929	-0.065864	-0.750977	0.208740	0.204346	0.252035	-0.620819	-0.283286	-0.686157
24212		9.437704	-0.427754	0.119656	0.317595	-0.005913	-0.148967	-0.747070	0.208740	0.208252	0.253242	-0.619368	-0.287116	-0.685431
24213		9.472979	-0.497193	0.229437	0.254874	-0.013363	-0.207632	-0.747559	0.190674	0.207275	0.253431	-0.617961	-0.290884	-0.685043
24214		9.888453	-0.196959	-0.170901	0.424923	-0.080125	-0.281766	-0.757812	0.191895	0.208008	0.254009	-0.616309	-0.296834	-0.683763
24215		10.354222	0.324774	-0.296589	0.422376	-0.070372	-0.313762	-0.759033	0.188965	0.205078	0.254327	-0.614437	-0.302972	-0.682636
24216		9.925556	0.870240	0.097583	0.422332	-0.124763	-0.371396	-0.756104	0.180664	0.217285	0.253939	-0.612781	-0.309717	-0.681241
24217		9.280941	1.232167	0.106060	0.461477	-0.166968	-0.435737	-0.766357	0.180908	0.218994	0.253110	-0.611087	-0.317392	-0.679537
24218		8.560671	1.413684	-0.201687	0.409244	-0.138751	-0.462409	-0.763428	0.172363	0.205566	0.251766	-0.609169	-0.324736	-0.678287
24219		8.580099	1.600627	-0.316054	0.250124	-0.118909	-0.461452	-0.761475	0.157959	0.203369	0.249295	-0.607545	-0.330650	-0.677799
24220		9.407397	1.885018	-0.027708	0.088582	-0.141651	-0.452035	-0.765869	0.154053	0.208496	0.245560	-0.606634	-0.335166	-0.677760
24221		10.221378	2.030474	0.097615	-0.024393	-0.128317	-0.434464	-0.762695	0.141113	0.216064	0.241175	-0.606009	-0.338555	-0.678209
24222		11.371710	2.467848	0.255193	-0.058633	-0.053740	-0.409428	-0.770020	0.136230	0.218750	0.237037	-0.604952	-0.341218	-0.679277
24223		11.155429	2.547152	0.820490	-0.043384	-0.036356	-0.398943	-0.766113	0.124268	0.215820	0.233180	-0.603729	-0.343881	-0.680356
24224		10.535621	2.636496	0.890003	-0.083363	0.080325	-0.377849	-0.762939	0.123291	0.219727	0.229688	-0.601706	-0.345686	-0.682418
24225		9.833844	2.587338	1.062771	-0.167005	0.166045	-0.344106	-0.774414	0.105957	0.221191	0.226241	-0.599321	-0.346301	-0.685350
24226		9.570971	2.392307	1.256815	-0.177385	0.211305	-0.335324	-0.766357	0.105713	0.216064	0.222937	-0.596611	-0.346575	-0.688651
24227		9.409548	2.033395	1.311564	-0.096865	0.252660	-0.329623	-0.775146	0.104980	0.208252	0.220489	-0.593320	-0.347414	-0.691852
24228		9.147096	1.960418	1.314738	-0.040254	0.284529	-0.294526	-0.777832	0.091309	0.201416	0.218918	-0.589725	-0.348404	-0.694920
24229		8.898062	2.414877	1.232192	-0.059626	0.285147	-0.247784	-0.776855	0.086182	0.194092	0.217574	-0.586374	-0.348830	-0.697957
24230		8.955641	2.746109	1.277971	-0.052933	0.230486	-0.241155	-0.782715	0.075684	0.187012	0.216096	-0.583497	-0.349409	-0.700533
24231		9.066554	2.800305	1.302693	-0.030565	0.160765	-0.248106	-0.786133	0.075195	0.190918	0.214387	-0.581134	-0.350385	-0.702532
24232		9.077774	2.803008	1.254365	-0.042458	0.069337	-0.242316	-0.789795	0.072266	0.179443	0.212256	-0.579626	-0.351484	-0.703875
24233		8.928699	3.106109	1.366930	-0.133138	-0.006853	-0.241467	-0.785400	0.062988	0.190674	0.209150	-0.579014	-0.351975	-0.705062
24234		8.871808	3.272504	1.037583	-0.143854	-0.096272	-0.266935	-0.782715	0.059326	0.188477	0.205326	-0.579112	-0.352782	-0.705702
24235		8.943081	3.080600	1.238121	-0.287315	-0.152870	-0.253217	-0.786133	0.052490	0.192627	0.200346	-0.580118	-0.352374	-0.706511
24236		8.994534	3.191425	1.061075	-0.272219	-0.179470	-0.243334	-0.790771	0.050293	0.198486	0.195435	-0.581351	-0.352080	-0.707019
24237		9.056855	3.119121	0.972708	-0.216642	-0.182871	-0.234032	-0.792480	0.043213	0.205811	0.191007	-0.582501	-0.352229	-0.707208
24238		9.425873	3.068484	0.991676	-0.246554	-0.152378	-0.197979	-0.780518	0.032471	0.203857	0.186803	-0.583605	-0.351769	-0.707650
24239		9.234307	3.081445	0.886148	-0.227991	-0.187923	-0.175643	-0.783691	0.028809	0.212402	0.182749	-0.585069	-0.351357	-0.707704
24240		9.109942	3.282164	0.955419	-0.170988	-0.213312	-0.133482	-0.787842	0.026123	0.211914	0.179375	-0.586806	-0.351206	-0.707204
24241		9.076478	3.253496	0.982105	-0.127823	-0.219504	-0.086173	-0.785156	0.030273	0.221436	0.176709	-0.588694	-0.351089	-0.706364
24242		8.910909	3.423437	0.853836	-0.135008	-0.209540	-0.056295	-0.786377	0.029541	0.221436	0.174332	-0.590631	-0.350715	-0.705523
24243		9.142540	3.632655	0.885832	-0.096997	-0.203016	-0.038019	-0.782959	0.019043	0.223145	0.172427	-0.592496	-0.350519	-0.704524
24244		9.269688	3.596501	1.007153	-0.079086	-0.167531	-0.013243	-0.783936	0.018555	0.230469	0.170977	-0.594125	-0.350159	-0.703684
24245		9.165475	3.621138	1.133186	-0.051096	-0.161937	0.006117	-0.789062	0.020508	0.232422	0.169932	-0.595728	-0.349900	-0.702710
24246		9.260619	3.478754	1.177268	-0.027301	-0.185657	0.033368	-0.776367	0.018311	0.241943	0.169208	-0.597600	-0.349700	-0.701394
24247		9.342002	3.652653	1.404542	-0.045912	-0.205090	0.066508	-0.781494	0.018066	0.258301	0.168543	-0.599830	-0.349142	-0.699926
24248		9.007594	3.715637	1.019479	-0.081719	-0.250100	0.090419	-0.772705	0.021729	0.255615	0.167619	-0.602636	-0.348201	-0.698205
24249		8.735073	3.634477	0.661154	-0.086244	-0.346634	0.096590	-0.779053	0.024414	0.257324	0.166311	-0.606298	-0.347375	-0.695754
24250		8.999694	3.515087	0.542169	-0.015184	-0.393173	0.117612	-0.774658	0.030273	0.274658	0.165522	-0.610286	-0.347085	-0.692594
24251		9.223897	3.277805	0.686304	0.087923	-0.354771	0.164454	-0.777344	0.029785	0.273682	0.166111	-0.613915	-0.347287	-0.689135
24252		9.370635	3.272129	0.683799	0.137916	-0.288151	0.226818	-0.769287	0.039551	0.276611	0.167882	-0.617121	-0.347247	-0.685855
24253		9.308372	3.135617	0.347896	0.208514	-0.254582	0.277230	-0.773193	0.044922	0.284424	0.170793	-0.620086	-0.347369	-0.682391
24254		9.081518	3.117199	0.092296	0.213748	-0.317686	0.320243	-0.770020	0.044189	0.294678	0.173823	-0.623746	-0.347318	-0.678304
24255		9.211066	3.169207	-0.173762	0.194810	-0.384613	0.334387	-0.766113	0.060791	0.296387	0.176500	-0.628059	-0.347100	-0.673729
24256		9.456921	2.975411	-0.805429	0.265049	-0.398550	0.315696	-0.762695	0.067627	0.304199	0.179537	-0.632209	-0.347670	-0.668733
24257		10.168674	1.991709	-0.803081	0.389237	-0.395590	0.317016	-0.759033	0.070801	0.309326	0.183566	-0.636026	-0.349240	-0.663179
24258		10.644293	1.885109	-0.828818	0.338647	-0.296171	0.384042	-0.758057	0.091309	0.316162	0.188151	-0.639394	-0.349582	-0.658458
24259		10.724013	2.250215	-0.689426	0.396374	-0.223304	0.395964	-0.752930	0.101807	0.314697	0.193641	-0.642034	-0.350159	-0.653976
24260		10.241826	2.191943	-1.027511	0.435098	-0.198210	0.341454	-0.751465	0.109619	0.323242	0.199093	-0.644099	-0.351404	-0.649625
24261		10.198870	1.326827	-1.382072	0.498238	-0.217503	0.235587	-0.748291	0.119629	0.326904	0.204089	-0.645669	-0.354039	-0.645070
24262		10.539197	1.061222	-1.485449	0.454040	-0.226843	0.170578	-0.752686	0.124023	0.318359	0.208158	-0.647107	-0.356856	-0.640763
24263		10.051683	0.784920	-1.522976	0.433775	-0.178799	0.159223	-0.747803	0.129150	0.324219	0.212163	-0.648134	-0.359428	-0.636962
24264		9.036819	0.329969	-1.754834	0.488789	-0.119842	0.130684	-0.747314	0.127197	0.324707	0.216640	-0.648396	-0.362499	-0.633438
24265		8.641879	-0.591672	-2.117191	0.487598	-0.061742	0.125643	-0.745117	0.136230	0.325195	0.221289	-0.648164	-0.365387	-0.630402
24266		8.644061	-0.924630	-2.193899	0.335195	-0.029868	0.159219	-0.750488	0.154053	0.322510	0.225121	-0.648234	-0.366721	-0.628195
24267		8.586458	-0.648331	-2.121483	0.241700	0.023569	0.157764	-0.744385	0.152344	0.317871	0.228473	-0.648112	-0.367229	-0.626812
24268		8.782476	-0.609793	-1.936993	0.195988	0.114249	0.088926	-0.741455	0.143555	0.315918	0.231305	-0.647097	-0.367641	-0.626580
24269		8.960867	-0.461354	-1.466498	0.117183	0.217337	-0.004341	-0.744873	0.149902	0.320068	0.233192	-0.645089	-0.367828	-0.627841
24270		8.623756	-0.396625	-1.198683	0.015800	0.297194	-0.102760	-0.750244	0.153564	0.307373	0.233873	-0.642287	-0.367808	-0.630466
24271		8.515474	-0.348839	-1.286290	-0.068278	0.346132	-0.180032	-0.750977	0.148926	0.308105	0.233518	-0.638965	-0.367618	-0.634074
24272		9.098867	-0.124506	-1.666431	-0.129698	0.312055	-0.213409	-0.756348	0.147217	0.288330	0.232238	-0.635932	-0.367296	-0.637769
24273		10.729005	1.153473	-1.664515	-0.117211	0.154475	-0.254696	-0.752686	0.137451	0.284912	0.230022	-0.633901	-0.367862	-0.640263
24274		12.362952	2.035243	-1.225016	0.055621	0.063124	-0.274156	-0.760010	0.138428	0.286133	0.228582	-0.632013	-0.370207	-0.641293
24275		12.919445	2.120936	-0.902908	0.246534	0.161080	-0.284520	-0.762451	0.127686	0.296875	0.229037	-0.628728	-0.373904	-0.642214
24276		11.006076	2.000932	-0.430923	0.412923	0.314125	-0.303025	-0.761719	0.127930	0.274902	0.231312	-0.623652	-0.378589	-0.643602
24277		9.141119	1.675938	-0.232550	0.399253	0.375007	-0.249084	-0.760742	0.125732	0.268311	0.234216	-0.618328	-0.382564	-0.645336
24278		7.769550	1.546590	-0.336891	0.226526	0.387783	-0.182123	-0.769775	0.115967	0.253662	0.236374	-0.613701	-0.384576	-0.647765
24279		7.773401	1.827518	-0.962792	0.210206	0.307064	-0.131574	-0.760986	0.115479	0.249268	0.238380	-0.610009	-0.386238	-0.649526
24280		8.594117	2.223978	-0.893936	0.189779	0.175430	-0.106323	-0.773193	0.115234	0.251221	0.239809	-0.607557	-0.387950	-0.650277
24281		9.725247	2.883423	-0.615412	0.268132	0.149652	-0.122126	-0.777344	0.122559	0.252441	0.241569	-0.604999	-0.390489	-0.650492
24282		10.130914	3.214266	-0.265654	0.361624	0.170153	-0.123528	-0.776367	0.121582	0.238525	0.244158	-0.601961	-0.393780	-0.650359
24283		10.125515	3.594064	0.123020	0.283126	0.194426	-0.084179	-0.776367	0.117676	0.233643	0.246596	-0.599136	-0.396050	-0.650670
24284		9.585514	3.655200	0.088741	0.230873	0.176919	-0.083655	-0.765625	0.120117	0.227295	0.248533	-0.596613	-0.397916	-0.651112
24285		9.271109	3.473033	0.230210	0.177988	0.165094	-0.079794	-0.770264	0.113525	0.224365	0.250072	-0.594354	-0.399388	-0.651688
24286		9.136885	3.248914	0.367199	0.138540	0.163302	-0.059714	-0.769531	0.117188	0.217773	0.251430	-0.592341	-0.400348	-0.652409
24287		9.231181	3.201608	0.476830	0.079700	0.180071	-0.030327	-0.775146	0.116211	0.210449	0.252702	-0.590506	-0.400584	-0.653435
24288		9.279613	3.327606	0.298986	0.073652	0.187413	-0.015383	-0.778564	0.117432	0.212158	0.254080	-0.588698	-0.400623	-0.654507
24289		9.301448	3.346883	0.213221	0.092590	0.184687	-0.003207	-0.780029	0.116699	0.212646	0.255681	-0.586914	-0.400741	-0.655413
24290		9.117369	3.252207	0.483841	0.110295	0.165639	0.024150	-0.777832	0.115479	0.206299	0.257528	-0.585369	-0.400856	-0.656001
24291		9.134939	3.235133	0.654977	0.094322	0.133507	0.060926	-0.779297	0.121582	0.205078	0.259386	-0.584321	-0.400660	-0.656323
24292		9.182139	3.355692	0.684743	0.039140	0.126278	0.107508	-0.781982	0.121582	0.201172	0.261213	-0.583733	-0.399723	-0.656692
24293		9.022421	3.366573	0.585781	-0.031123	0.087900	0.140149	-0.779297	0.123779	0.193115	0.262584	-0.583852	-0.398075	-0.657040
24294		8.914576	3.261024	0.671693	-0.034814	-0.007971	0.149419	-0.773926	0.128418	0.190430	0.263533	-0.584806	-0.396642	-0.656679
24295		8.827466	2.945305	0.308624	-0.046710	-0.130711	0.156407	-0.779785	0.129639	0.192139	0.263861	-0.586829	-0.395482	-0.655442
24296		9.071139	2.678623	0.090929	-0.087642	-0.198332	0.174846	-0.776123	0.133545	0.193604	0.263685	-0.589628	-0.394049	-0.653861
24297		9.267896	2.530607	0.065031	-0.099110	-0.200935	0.213121	-0.778809	0.135986	0.216553	0.263734	-0.592660	-0.392254	-0.652178
24298		9.380651	2.480042	0.027365	-0.083307	-0.144645	0.250735	-0.778809	0.142822	0.212158	0.264445	-0.595386	-0.390108	-0.650691
24299		9.454206	2.658983	0.185475	-0.099178	-0.139266	0.264082	-0.777588	0.142334	0.215332	0.265193	-0.598160	-0.387726	-0.649265
24300		9.519531	2.874377	0.179245	-0.120216	-0.184841	0.251425	-0.774658	0.154053	0.212402	0.265418	-0.601314	-0.385371	-0.647661
24301		9.805980	2.815331	0.080100	-0.104061	-0.161795	0.235502	-0.764160	0.150635	0.225830	0.265808	-0.604110	-0.383247	-0.646157
24302		9.910366	2.654642	-0.051894	-0.105139	-0.161702	0.242785	-0.765625	0.162109	0.229004	0.266186	-0.606969	-0.381009	-0.644644
24303		10.329903	2.547247	-0.145904	-0.322884	-0.173140	0.290330	-0.769531	0.167969	0.234863	0.265288	-0.610836	-0.376742	-0.643869
24304		11.003055	2.470435	-0.112437	-0.314220	-0.130407	0.302051	-0.761230	0.174805	0.234375	0.264749	-0.614361	-0.372309	-0.643315
24305		11.197349	2.168548	-0.496031	-0.151826	-0.053187	0.284023	-0.757812	0.174316	0.235107	0.265700	-0.616615	-0.369093	-0.642620
24306		11.307329	1.881204	-0.744724	-0.085043	0.061259	0.283083	-0.755859	0.178223	0.239746	0.267644	-0.617725	-0.365993	-0.642520
24307		11.383545	1.316492	-1.061946	-0.076597	0.048306	0.258304	-0.758545	0.183105	0.232422	0.269379	-0.618800	-0.363185	-0.642353
24308		11.899389	0.999381	-1.166588	0.028074	0.013077	0.254841	-0.753662	0.187012	0.228760	0.271739	-0.619772	-0.361354	-0.641454
24309		11.930688	0.623542	-1.021769	0.168978	0.014074	0.286163	-0.759521	0.196777	0.240234	0.275444	-0.620388	-0.360401	-0.639813
24310		11.614551	0.387716	-0.880437	0.265247	0.113241	0.300452	-0.755127	0.200684	0.227783	0.280450	-0.619943	-0.359773	-0.638421
24311		11.167794	0.356527	-0.645738	0.262843	0.204136	0.294970	-0.756592	0.205566	0.218262	0.285783	-0.618733	-0.358814	-0.637770
24312		10.589845	0.218478	-0.423255	0.246764	0.255084	0.271901	-0.750977	0.206787	0.211914	0.291011	-0.617051	-0.357684	-0.637670
24313		10.285620	0.036470	-0.207199	0.225808	0.290241	0.242092	-0.756104	0.219727	0.201904	0.295951	-0.615026	-0.356439	-0.638050
24314		10.002143	-0.116157	-0.000838	0.207089	0.299233	0.190288	-0.753662	0.231201	0.190430	0.300430	-0.612723	-0.355466	-0.638715
24315		9.600900	-0.078714	0.387631	0.183175	0.301874	0.125700	-0.748291	0.224365	0.188232	0.304293	-0.610159	-0.354858	-0.639678
24316		9.221763	-0.275163	0.604364	0.114966	0.332521	0.069063	-0.751221	0.231689	0.177979	0.307215	-0.607386	-0.353912	-0.641442
24317		9.067375	-0.072394	0.385139	0.039795	0.367980	-0.000495	-0.748291	0.229248	0.168213	0.309215	-0.604275	-0.352801	-0.644026
24318		8.953723	0.048478	0.405865	0.059963	0.297973	-0.109160	-0.754883	0.224854	0.159180	0.310163	-0.601162	-0.352919	-0.646413
24319		9.044713	-0.325062	0.363944	0.152475	0.199389	-0.197167	-0.752197	0.224854	0.151611	0.310624	-0.598095	-0.354783	-0.648016
24320		9.493227	-0.288056	0.386121	0.172739	0.163836	-0.193305	-0.757080	0.218018	0.145264	0.311148	-0.595232	-0.356959	-0.649204
24321		9.358663	0.178416	0.469533	0.238709	0.163965	-0.192153	-0.762207	0.213867	0.141357	0.312123	-0.592123	-0.359609	-0.650116
24322		9.159779	0.209107	0.377649	0.338817	0.166422	-0.210915	-0.756348	0.206787	0.125732	0.313675	-0.588517	-0.363182	-0.650657
24323		9.514777	0.515961	0.379696	0.342527	0.177760	-0.186294	-0.768555	0.208008	0.126709	0.315503	-0.584904	-0.366561	-0.651136
24324		9.432574	0.967384	0.603921	0.365305	0.174928	-0.154567	-0.759277	0.207520	0.121338	0.317739	-0.581362	-0.369904	-0.651330
24325		9.571873	1.011935	0.609570	0.368068	0.180876	-0.118177	-0.756348	0.202637	0.112793	0.320313	-0.577914	-0.372976	-0.651386
24326		9.195100	0.777719	0.505385	0.323116	0.157619	-0.065196	-0.765137	0.203613	0.103271	0.322874	-0.575069	-0.375380	-0.651259
24327		8.900644	0.926253	0.366485	0.326325	0.160484	-0.048275	-0.755615	0.207275	0.100098	0.325604	-0.572255	-0.377668	-0.651055
24328		8.862026	1.086290	0.267060	0.408343	0.137183	-0.082175	-0.765137	0.203369	0.092285	0.328526	-0.569123	-0.380953	-0.650419
24329		8.932914	0.999778	0.298635	0.446607	0.160516	-0.088112	-0.768555	0.195312	0.075439	0.331772	-0.565597	-0.384484	-0.649769
24330		8.615375	0.828986	0.350331	0.421858	0.171501	-0.083076	-0.763428	0.188477	0.078857	0.334927	-0.562089	-0.387720	-0.649271
24331		8.167522	1.049671	0.394573	0.375013	0.199510	-0.075014	-0.773193	0.201172	0.071289	0.337943	-0.558572	-0.390390	-0.649144
24332		7.969129	1.089559	0.603460	0.331912	0.240847	-0.092979	-0.771729	0.202393	0.063232	0.340706	-0.554798	-0.392651	-0.649572
24333		8.027493	0.995078	0.573157	0.275504	0.277093	-0.092009	-0.773193	0.195312	0.052490	0.343254	-0.550961	-0.394283	-0.650507
24334		8.075819	1.141111	0.597329	0.190012	0.262148	-0.095742	-0.765625	0.193359	0.050049	0.345102	-0.547582	-0.395301	-0.651764
24335		8.450010	1.284059	0.628900	0.093922	0.192645	-0.078960	-0.767090	0.183594	0.039062	0.346082	-0.545259	-0.395717	-0.652938
24336		8.913123	1.419381	0.710487	-0.039909	0.051093	-0.071451	-0.769043	0.187500	0.036621	0.345509	-0.544706	-0.395600	-0.653774
24337		9.275645	1.392791	0.501287	-0.173487	-0.073605	-0.093211	-0.772949	0.190430	0.048584	0.343231	-0.545638	-0.395078	-0.654511
24338		9.677462	1.437592	0.300644	-0.229197	-0.116520	-0.125350	-0.768311	0.181396	0.046143	0.340096	-0.546996	-0.394501	-0.655362
24339		10.056622	1.355623	0.236264	-0.204121	-0.096690	-0.135219	-0.769531	0.179688	0.053711	0.337146	-0.548030	-0.394109	-0.656258
24340		10.207638	1.247334	0.623044	-0.137811	-0.013416	-0.108269	-0.775879	0.183350	0.057373	0.335281	-0.548229	-0.393725	-0.657277
24341		9.976656	1.173033	0.867213	-0.080435	0.066017	-0.066828	-0.769287	0.173828	0.049072	0.334539	-0.547737	-0.393194	-0.658381
24342		9.887352	1.050811	1.113248	-0.012143	0.102854	-0.023139	-0.772461	0.168213	0.046143	0.334805	-0.546871	-0.392771	-0.659218
24343		9.888301	1.004625	1.305009	0.047404	0.114974	0.019578	-0.763672	0.168701	0.049072	0.335888	-0.545865	-0.392494	-0.659666
24344		9.580403	1.203567	1.173374	0.114563	0.115768	0.031107	-0.767334	0.171875	0.047119	0.337527	-0.544625	-0.392685	-0.659741
24345		9.318008	1.382803	0.992539	0.182511	0.096256	0.030877	-0.774658	0.183594	0.045166	0.339528	-0.543256	-0.393517	-0.659347
24346		9.280004	1.414066	0.980135	0.185949	0.079340	0.044829	-0.768066	0.175293	0.038574	0.341582	-0.542077	-0.394351	-0.658758
24347		9.245782	1.616404	1.054265	0.157494	0.080644	0.039642	-0.769043	0.178467	0.041504	0.343404	-0.540979	-0.394979	-0.658336
24348		9.182499	1.788288	1.159272	0.109060	0.118842	0.035265	-0.773926	0.182617	0.034180	0.345050	-0.539752	-0.395071	-0.658428
24349		8.919355	1.720920	1.088275	0.053412	0.086549	0.074242	-0.771973	0.187256	0.035889	0.346480	-0.539220	-0.394581	-0.658407
24350		8.484456	1.570258	0.965717	-0.081197	0.014034	0.124163	-0.770264	0.184570	0.036377	0.347055	-0.540112	-0.392959	-0.658342
24351		8.501020	1.408806	0.736049	-0.064919	-0.062052	0.157955	-0.760254	0.196045	0.031494	0.347643	-0.541723	-0.391572	-0.657535
24352		8.647485	1.439694	0.673939	-0.136325	-0.084872	0.208783	-0.770020	0.186035	0.039795	0.348051	-0.544076	-0.389351	-0.656695
24353		8.523756	1.415129	0.758273	-0.119232	-0.122980	0.216766	-0.765625	0.197021	0.040771	0.348450	-0.546700	-0.387377	-0.655470
24354		8.574836	1.133383	0.739375	-0.120093	-0.097126	0.236844	-0.768799	0.196777	0.042969	0.349131	-0.549205	-0.385143	-0.654329
24355		8.370641	0.958899	0.933954	-0.158264	-0.085526	0.264931	-0.763184	0.213867	0.050537	0.349829	-0.551909	-0.382348	-0.653320
24356		8.218715	1.042091	0.836931	-0.276397	-0.057288	0.271639	-0.758301	0.215088	0.060547	0.349896	-0.554920	-0.378411	-0.653025
24357		8.714875	1.115829	0.787161	-0.323469	-0.061412	0.243859	-0.754150	0.227539	0.063721	0.349380	-0.558025	-0.374289	-0.653031
24358		9.346291	0.919699	0.878389	-0.329599	-0.091949	0.211525	-0.762207	0.225098	0.071289	0.348407	-0.561240	-0.370469	-0.652974
24359		9.677760	0.850885	0.958325	-0.328639	-0.121597	0.184170	-0.759521	0.231201	0.072510	0.347068	-0.564553	-0.366966	-0.652809
24360		9.346802	0.697475	1.103378	-0.306669	-0.104941	0.164145	-0.751953	0.232910	0.078125	0.345791	-0.567529	-0.363703	-0.652732
24361		9.243754	0.578232	1.020537	-0.306147	-0.077203	0.181909	-0.755371	0.243164	0.078125	0.344780	-0.570345	-0.360191	-0.652760
24362		9.801166	0.452015	1.377075	-0.302454	-0.116287	0.211550	-0.754395	0.243164	0.086914	0.343859	-0.573584	-0.356660	-0.652347
24363		9.738498	0.250121	1.307883	-0.253046	-0.131379	0.193545	-0.754639	0.247070	0.090820	0.343065	-0.576643	-0.353713	-0.651672
24364		9.103334	0.099934	0.991648	-0.194319	-0.118567	0.165666	-0.758301	0.247803	0.100342	0.342517	-0.579214	-0.351382	-0.650941
24365		10.121935	0.198295	0.663650	-0.169148	-0.143599	0.215975	-0.750977	0.255371	0.107666	0.342438	-0.582096	-0.348987	-0.649698
24366		11.651610	0.209441	1.114645	-0.172272	-0.221616	0.245515	-0.758301	0.261230	0.114746	0.342233	-0.585745	-0.346681	-0.647759
24367		12.264459	-0.264321	0.844441	-0.161820	-0.221090	0.203505	-0.749268	0.264404	0.118896	0.341757	-0.589152	-0.344754	-0.645947
24368		10.996159	-0.349385	0.719123	-0.098800	-0.210303	0.149188	-0.747559	0.267334	0.118164	0.341349	-0.591959	-0.343684	-0.644163
24369		9.507758	-0.036386	0.483489	-0.032710	-0.133893	0.156534	-0.742188	0.271729	0.126709	0.341820	-0.593892	-0.342767	-0.642621
24370		9.903001	0.199806	1.012508	0.027152	-0.113327	0.151509	-0.741699	0.280273	0.127197	0.342778	-0.595383	-0.342274	-0.640992
24371		10.337072	-0.217714	1.164256	0.021205	-0.156549	0.092441	-0.744385	0.276123	0.130371	0.343040	-0.596987	-0.342363	-0.639310
24372		10.010874	-0.169696	0.441858	0.003336	-0.217765	0.054809	-0.753906	0.282959	0.137939	0.342592	-0.598994	-0.342838	-0.637416
24373		9.455653	0.061907	0.077764	-0.058093	-0.235036	0.045651	-0.741943	0.275146	0.144043	0.341534	-0.601358	-0.342962	-0.635689
24374		9.383063	0.336731	0.084882	0.052542	-0.224576	0.016051	-0.739990	0.284912	0.145020	0.341102	-0.603039	-0.344130	-0.633694
24375		10.015262	0.218536	0.396140	0.060310	-0.244010	-0.001414	-0.736328	0.277832	0.156250	0.340526	-0.604754	-0.345591	-0.631571
24376		10.064162	-0.280979	0.359323	-0.018971	-0.215742	-0.012287	-0.739990	0.281982	0.155518	0.339361	-0.606541	-0.346363	-0.630060
24377		9.659254	-0.528598	-0.071844	0.029567	-0.127564	-0.048022	-0.745117	0.277832	0.156250	0.338676	-0.607263	-0.347424	-0.629148
24378		9.358921	-0.515310	-0.005364	0.015945	-0.072760	-0.012988	-0.744385	0.281494	0.156006	0.338393	-0.607762	-0.347874	-0.628569
24379		9.393512	-0.238808	0.245791	-0.019786	-0.113358	-0.030531	-0.747070	0.281250	0.167236	0.337535	-0.608652	-0.348356	-0.627902
24380		9.324031	-0.490976	0.241379	-0.021740	-0.110132	-0.080592	-0.744629	0.274658	0.162598	0.336266	-0.609316	-0.349172	-0.627486
24381		9.340945	-0.588654	0.008438	-0.022514	-0.070051	-0.121403	-0.744629	0.278320	0.174561	0.334847	-0.609482	-0.350125	-0.627551
24382		9.452794	-0.027106	-0.030367	-0.039000	-0.085957	-0.165814	-0.743652	0.273193	0.175293	0.332878	-0.609657	-0.351344	-0.627748
24383		10.173774	0.747324	-0.178480	0.004353	-0.193501	-0.220198	-0.746338	0.275879	0.184814	0.330337	-0.610249	-0.353762	-0.627157
24384		11.771784	1.252376	-0.353409	0.096456	-0.322588	-0.250687	-0.751709	0.261963	0.177979	0.327687	-0.611329	-0.357666	-0.625279
24385		12.757232	1.752725	-0.065152	0.196363	-0.435927	-0.253718	-0.744873	0.256348	0.187744	0.325261	-0.612835	-0.362833	-0.622086
24386		12.226246	1.769273	0.146029	0.158871	-0.300754	-0.234959	-0.752441	0.265381	0.199707	0.323292	-0.613508	-0.367000	-0.620001
24387		11.294738	1.566394	0.604361	0.066091	-0.062915	-0.211979	-0.744141	0.254639	0.193359	0.321887	-0.612808	-0.369315	-0.620049
24388		9.891993	1.202606	0.848110	-0.063127	-0.029448	-0.140533	-0.747803	0.245850	0.192871	0.320200	-0.612689	-0.369947	-0.620664
24389		8.831526	0.735904	0.199259	-0.176124	-0.112687	-0.075091	-0.749512	0.250000	0.196289	0.317758	-0.613967	-0.369522	-0.620909
24390		8.434916	0.605375	-0.613323	-0.221309	-0.173624	-0.033975	-0.759521	0.241211	0.206299	0.315014	-0.616078	-0.368679	-0.620717
24391		8.536508	0.864077	-1.025357	-0.208101	-0.197744	-0.008014	-0.753174	0.246582	0.213379	0.312437	-0.618443	-0.367808	-0.620184
24392		9.032978	1.255687	-0.743648	-0.183485	-0.211998	-0.007416	-0.745361	0.252197	0.217285	0.310000	-0.620815	-0.367190	-0.619403
24393		9.394957	1.563701	-0.570507	-0.183646	-0.181574	0.001989	-0.749023	0.244873	0.222656	0.307786	-0.622984	-0.366393	-0.618802
24394		9.961143	1.793109	-0.441545	-0.172561	-0.120426	0.007134	-0.748047	0.251221	0.226074	0.305963	-0.624656	-0.365392	-0.618611
24395		10.489426	1.899996	-0.424997	-0.156145	-0.074047	-0.004218	-0.754150	0.240479	0.231201	0.304403	-0.625847	-0.364441	-0.618738
24396		10.539646	1.823491	-0.206915	-0.221256	-0.033740	0.005560	-0.750488	0.248047	0.238525	0.302571	-0.627019	-0.362736	-0.619452
24397		10.202378	1.617067	-0.171284	-0.193487	0.020406	0.016777	-0.749023	0.244629	0.234375	0.301299	-0.627711	-0.360964	-0.620406
24398		10.018022	1.400412	-0.121611	-0.115314	0.040834	0.030251	-0.739502	0.248779	0.238037	0.300836	-0.628004	-0.359616	-0.621116
24399		9.869290	1.397490	0.131812	-0.184934	0.080362	0.080270	-0.744873	0.239990	0.231201	0.300395	-0.628473	-0.357189	-0.622254
24400		9.776296	1.519207	0.235550	-0.204184	0.106241	0.095057	-0.740479	0.246582	0.239502	0.300022	-0.628874	-0.354387	-0.623630
24401		9.972342	1.609395	0.152992	-0.186181	0.119048	0.100626	-0.745850	0.245117	0.233887	0.299891	-0.629126	-0.351633	-0.624996
24402		10.145743	1.536040	-0.004969	-0.152503	0.122399	0.097507	-0.746826	0.241943	0.231445	0.300011	-0.629205	-0.349150	-0.626250
24403		10.474182	1.460168	-0.157317	-0.175509	0.172233	0.105554	-0.747803	0.252930	0.233154	0.300223	-0.629008	-0.346231	-0.627964
24404		10.553839	1.257571	-0.382511	-0.179977	0.216463	0.116090	-0.758301	0.247314	0.233643	0.300680	-0.628517	-0.343034	-0.629989
24405		10.489818	0.988557	-0.298144	-0.168762	0.224993	0.118812	-0.760986	0.256104	0.221436	0.301268	-0.627921	-0.339856	-0.632022
24406		10.564514	0.524314	-0.366907	-0.110500	0.223032	0.106278	-0.758301	0.250732	0.220947	0.302215	-0.627053	-0.337254	-0.633822
24407		10.428787	0.078402	-0.558117	-0.102204	0.197984	0.094550	-0.750732	0.251465	0.208740	0.303017	-0.626300	-0.334892	-0.635434
24408		10.400082	0.104564	-0.948227	-0.058257	0.187732	0.077471	-0.750732	0.256104	0.210693	0.303988	-0.625384	-0.333056	-0.636836
24409		10.967569	0.051324	-0.790582	0.000928	0.155847	0.069487	-0.756592	0.251709	0.209717	0.305225	-0.624460	-0.331875	-0.637767
24410		11.483015	-0.020251	-0.608297	0.027370	0.160443	0.105873	-0.754395	0.257324	0.201172	0.306969	-0.623549	-0.330594	-0.638486
24411		11.727467	0.028414	-0.240565	0.017286	0.192474	0.145492	-0.751465	0.260742	0.197754	0.309090	-0.622578	-0.328807	-0.639333
24412		11.453029	0.092136	0.017908	0.003159	0.214001	0.158704	-0.754883	0.265137	0.192139	0.311292	-0.621537	-0.326718	-0.640347
24413		11.333862	-0.003132	0.090419	0.005569	0.212613	0.161146	-0.748291	0.273682	0.190674	0.313526	-0.620500	-0.324633	-0.641323
24414		11.264101	-0.166297	0.095135	-0.018668	0.197646	0.171533	-0.749023	0.266357	0.176758	0.315598	-0.619713	-0.322336	-0.642225
24415		11.117676	-0.209672	0.126633	-0.010638	0.182225	0.187265	-0.745850	0.274414	0.177490	0.317784	-0.619074	-0.320028	-0.642917
24416		10.753308	-0.255310	0.173714	-0.017235	0.178369	0.196170	-0.740723	0.280273	0.167236	0.319977	-0.618522	-0.317615	-0.643557
24417		10.388027	-0.129735	0.130234	-0.018415	0.169732	0.206851	-0.741455	0.276367	0.167969	0.322222	-0.618075	-0.315153	-0.644077
24418		10.233017	-0.109788	0.366560	-0.050811	0.173858	0.195022	-0.737549	0.283691	0.165039	0.324113	-0.617678	-0.312482	-0.644810
24419		9.867093	-0.095947	0.371461	-0.084997	0.169029	0.165891	-0.737305	0.287598	0.159912	0.325493	-0.617336	-0.309785	-0.645743
24420		9.281047	-0.139454	0.246816	-0.098451	0.122936	0.122616	-0.745361	0.291260	0.150635	0.326245	-0.617246	-0.307504	-0.646540
24421		8.859776	-0.141205	0.341304	-0.042753	0.120270	0.077017	-0.736572	0.291992	0.156738	0.327055	-0.616765	-0.306043	-0.647281
24422		8.755504	-0.277874	0.346916	-0.001167	0.135451	0.037994	-0.740479	0.284424	0.138916	0.327920	-0.615848	-0.305149	-0.648139
24423		8.860303	-0.347262	0.475091	0.047624	0.179439	0.031102	-0.729492	0.290771	0.142090	0.329266	-0.614338	-0.304518	-0.649185
24424		8.727992	-0.664658	0.377331	0.101278	0.196138	0.029716	-0.735107	0.293457	0.136719	0.331089	-0.612465	-0.304274	-0.650142
24425		8.660052	-0.736167	0.500733	0.086404	0.211081	0.069895	-0.732422	0.287109	0.134521	0.333180	-0.610678	-0.303538	-0.651097
24426		8.511162	-0.623268	0.584473	0.029813	0.229188	0.110360	-0.739258	0.292969	0.124023	0.335207	-0.609136	-0.301928	-0.652249
24427		8.322175	-0.337179	0.651463	0.024253	0.221150	0.105644	-0.743408	0.292725	0.115723	0.337135	-0.607652	-0.300355	-0.653365
24428		8.423994	-0.237189	0.755472	0.057332	0.247841	0.060447	-0.737793	0.296631	0.112549	0.339038	-0.605633	-0.299275	-0.654750
24429		8.377231	-0.303255	0.769073	0.077604	0.228437	0.013202	-0.732422	0.300537	0.107422	0.340641	-0.603505	-0.298804	-0.656096
24430		8.428134	-0.235929	0.826770	0.088559	0.206861	-0.023967	-0.729736	0.296875	0.094971	0.341950	-0.601362	-0.298803	-0.657381
24431		8.476710	-0.262014	0.818761	0.056631	0.183053	-0.040022	-0.732178	0.296875	0.099365	0.342792	-0.599487	-0.298757	-0.658676
24432		8.578401	-0.296009	1.050737	0.019413	0.201898	-0.055351	-0.734863	0.293213	0.092041	0.343277	-0.597565	-0.298416	-0.660322
24433		8.617295	-0.334977	1.092992	-0.044764	0.236299	-0.076636	-0.725830	0.289062	0.077393	0.343226	-0.595552	-0.297550	-0.662554
24434		8.518706	-0.275312	1.051366	-0.047046	0.241496	-0.117844	-0.729248	0.281006	0.081787	0.342835	-0.593345	-0.296947	-0.665002
24435		8.684435	-0.181507	1.022948	-0.028686	0.213634	-0.151075	-0.726318	0.300049	0.073730	0.342186	-0.591166	-0.296851	-0.667316
24436		9.165745	-0.128604	1.162274	-0.020661	0.148698	-0.171229	-0.738281	0.289062	0.080078	0.341192	-0.589414	-0.297250	-0.669195
24437		9.604480	-0.123751	1.174877	0.026960	0.115487	-0.174924	-0.737061	0.287109	0.079346	0.340386	-0.587719	-0.298210	-0.670667
24438		9.870164	-0.195340	1.137457	0.096550	0.099821	-0.144752	-0.744385	0.275635	0.068359	0.340285	-0.585968	-0.299597	-0.671632
24439		9.807108	-0.124502	1.208472	0.099637	0.071827	-0.077587	-0.742676	0.275635	0.068359	0.340664	-0.584687	-0.300637	-0.672091
24440		9.805774	-0.028036	1.422769	0.083549	0.100827	-0.010976	-0.735352	0.280029	0.072998	0.341593	-0.583480	-0.300930	-0.672537
24441		9.680973	0.121224	1.447409	0.142246	0.150467	0.023795	-0.732422	0.273926	0.058838	0.343428	-0.581735	-0.301249	-0.672972
24442		9.706297	0.147405	1.754899	0.177576	0.201711	0.051551	-0.739746	0.276367	0.043945	0.345945	-0.579504	-0.301442	-0.673521
24443		9.712099	0.020167	1.809112	0.137865	0.177946	0.078631	-0.732422	0.281982	0.044434	0.348309	-0.577741	-0.301204	-0.673923
24444		9.562090	0.031749	1.815495	0.002270	0.121890	0.101633	-0.732178	0.274414	0.048096	0.349672	-0.577124	-0.299898	-0.674328
24445		9.373743	0.225373	1.631207	0.048989	0.058323	0.068539	-0.739258	0.276123	0.046875	0.350853	-0.576713	-0.299500	-0.674244
24446		9.524188	0.144079	1.417209	0.061984	0.041318	0.034965	-0.732910	0.284912	0.041260	0.351780	-0.576262	-0.299528	-0.674134
24447		9.511690	0.147011	1.407239	0.047027	0.021061	0.015532	-0.737305	0.281738	0.040283	0.352361	-0.575973	-0.299660	-0.674018
24448		9.511181	0.114093	1.576014	0.042895	0.024718	-0.006306	-0.738770	0.283447	0.038330	0.352742	-0.575590	-0.299898	-0.674041
24449		9.427640	0.034330	1.597366	0.025014	0.021780	-0.007500	-0.742432	0.290527	0.040771	0.352972	-0.575306	-0.300007	-0.674114
24450		9.472316	-0.134822	1.611976	-0.015441	-0.000947	0.006478	-0.737793	0.292236	0.045166	0.352945	-0.575444	-0.299775	-0.674114
24451		9.553266	-0.142902	1.516984	-0.039783	-0.004268	0.015791	-0.739746	0.280029	0.048340	0.352807	-0.575753	-0.299284	-0.674140
24452		9.492808	-0.073147	1.531131	-0.042279	-0.005347	0.015261	-0.735596	0.284424	0.046631	0.352639	-0.576080	-0.298778	-0.674172
24453		9.483594	-0.045963	1.459881	-0.019378	-0.011117	0.015996	-0.738037	0.282227	0.044434	0.352624	-0.576358	-0.298487	-0.674072
24454		9.375900	-0.076976	1.587899	0.001888	-0.036156	0.021336	-0.736816	0.285645	0.037598	0.352713	-0.576771	-0.298448	-0.673689
24455		9.367964	-0.063667	1.386219	-0.010689	-0.055752	0.027965	-0.735596	0.282227	0.047363	0.352699	-0.577428	-0.298345	-0.673180
24456		9.379784	-0.046294	1.349778	-0.023932	-0.051161	0.038582	-0.739746	0.284180	0.056885	0.352689	-0.578146	-0.298028	-0.672708
24457		9.013335	-0.074339	1.343653	-0.057146	-0.054849	0.040587	-0.732910	0.289551	0.051025	0.352438	-0.579051	-0.297430	-0.672326
24458		8.553138	0.045622	1.187777	-0.062453	-0.070746	0.028170	-0.732910	0.287598	0.057129	0.351993	-0.580063	-0.296953	-0.671898
24459		8.506671	-0.036287	1.052327	-0.007442	-0.108603	0.004213	-0.734375	0.290527	0.056885	0.351600	-0.581062	-0.297275	-0.671097
24460		8.898088	-0.256960	1.193960	0.012971	-0.095014	0.004662	-0.732178	0.292480	0.054932	0.351413	-0.581857	-0.297708	-0.670314
24461		9.088076	-0.234123	1.386952	-0.048923	-0.038680	0.037503	-0.735352	0.286621	0.050537	0.351264	-0.582573	-0.297140	-0.670023
24462		9.030219	-0.098371	1.300406	-0.119586	-0.045250	0.040022	-0.731445	0.287109	0.063477	0.350596	-0.583659	-0.295989	-0.669936
24463		8.851745	-0.200275	1.213903	-0.130549	-0.133654	0.021116	-0.738525	0.292480	0.064209	0.349351	-0.585467	-0.295262	-0.669329
24464		8.505113	-0.349716	1.236553	-0.129146	-0.189296	0.024454	-0.730469	0.285400	0.068848	0.347942	-0.587741	-0.294768	-0.668288
24465		8.690921	-0.120357	1.117684	-0.096919	-0.176304	0.024687	-0.729248	0.293213	0.072021	0.346813	-0.589764	-0.294478	-0.667220
24466		9.205878	-0.115740	1.289036	-0.074596	-0.141660	0.007262	-0.735107	0.297363	0.074707	0.345836	-0.591332	-0.294357	-0.666392
24467		9.238078	-0.119205	1.446411	-0.086544	-0.197244	-0.026043	-0.734131	0.299805	0.082520	0.344289	-0.593288	-0.294624	-0.665335
24468		8.613159	-0.055388	1.141791	-0.189455	-0.235089	-0.036874	-0.736328	0.299316	0.094727	0.341745	-0.595957	-0.294272	-0.664417
24469		9.139214	-0.169186	0.884641	-0.059031	-0.240617	-0.044643	-0.733887	0.302002	0.102295	0.340075	-0.598083	-0.295073	-0.663007
24470		10.274498	-0.419301	0.987133	0.048448	-0.254207	-0.022428	-0.732910	0.298096	0.105469	0.339340	-0.599942	-0.296654	-0.660995
24471		11.029394	-0.540355	1.335153	0.056663	-0.234891	0.032537	-0.732178	0.291992	0.111328	0.339186	-0.601804	-0.297804	-0.658861
24472		10.513251	-0.465096	1.280889	0.059119	-0.156247	0.060428	-0.727051	0.299805	0.112305	0.339558	-0.603110	-0.298418	-0.657195
24473		9.535789	-0.256028	1.058748	0.059522	-0.112638	0.075833	-0.735596	0.295654	0.122559	0.340234	-0.604109	-0.298742	-0.655779
24474		9.136861	-0.189440	0.979291	0.112279	-0.122164	0.076287	-0.731201	0.300049	0.111572	0.341246	-0.604969	-0.299510	-0.654107
24475		9.387953	-0.321309	1.059869	0.149040	-0.116210	0.092811	-0.729004	0.313232	0.122314	0.342721	-0.605670	-0.300453	-0.652253
24476		9.641283	-0.285103	1.120570	0.105838	-0.089944	0.107100	-0.738281	0.305908	0.130127	0.344080	-0.606400	-0.300814	-0.650692
24477		10.074455	-0.224705	0.935121	0.072223	-0.119158	0.105157	-0.732178	0.308350	0.130371	0.345021	-0.607509	-0.301011	-0.649065
24478		10.271368	-0.278376	1.127482	0.029559	-0.180877	0.096218	-0.729492	0.312256	0.134766	0.345337	-0.609265	-0.301199	-0.647161
24479		10.223435	-0.215958	0.996949	-0.009070	-0.171937	0.079279	-0.731689	0.308838	0.131592	0.345255	-0.611049	-0.301163	-0.645538
24480		9.867814	-0.267527	0.748785	-0.022884	-0.152509	0.043202	-0.724121	0.322510	0.128906	0.344853	-0.612589	-0.301213	-0.644268
24481		10.090157	-0.384704	0.654976	0.003283	-0.172874	0.026767	-0.732666	0.321045	0.134521	0.344480	-0.614107	-0.301718	-0.642785
24482		10.501423	-0.618199	0.714896	0.005802	-0.163196	0.041157	-0.729004	0.318848	0.151855	0.344262	-0.615591	-0.302078	-0.641311
24483		10.269069	-0.697116	0.560930	-0.012923	-0.121670	0.068224	-0.729248	0.318604	0.151611	0.344234	-0.616939	-0.301862	-0.640131
24484		10.279796	-0.763745	0.589213	-0.002689	-0.117946	0.084085	-0.733887	0.331299	0.145752	0.344431	-0.618268	-0.301595	-0.638868
24485		10.651353	-0.752569	0.650155	-0.033093	-0.116161	0.088956	-0.727051	0.316650	0.158203	0.344475	-0.619716	-0.301072	-0.637687
24486		10.586426	-0.737144	0.543428	-0.055333	-0.085812	0.077304	-0.721191	0.316650	0.161377	0.344324	-0.620984	-0.300293	-0.636902
24487		10.153240	-0.641831	0.458359	-0.072051	-0.059063	0.065406	-0.726807	0.326416	0.160156	0.344055	-0.622063	-0.299362	-0.636433
24488		10.108545	-0.604955	0.605721	-0.138582	-0.078606	0.059075	-0.722412	0.325195	0.165039	0.343165	-0.623550	-0.298054	-0.636072
24489		10.175071	-0.529643	0.461432	-0.155385	-0.081304	0.001199	-0.721436	0.330566	0.161621	0.341670	-0.624913	-0.297071	-0.635999
24490		9.688494	-0.561192	0.424986	-0.163197	-0.038345	-0.048982	-0.723389	0.328369	0.167725	0.339894	-0.625771	-0.296252	-0.636489
24491		9.164499	-0.613899	0.134702	-0.170255	-0.037950	-0.094346	-0.729492	0.321045	0.166260	0.337692	-0.626487	-0.295721	-0.637203
24492		9.139626	-0.636335	0.087112	-0.170889	-0.075403	-0.121420	-0.722900	0.324951	0.178223	0.335128	-0.627397	-0.295553	-0.637738
24493		9.410415	-0.750892	0.044283	-0.048162	-0.100387	-0.162424	-0.735352	0.315918	0.180908	0.333103	-0.627842	-0.296784	-0.637790
24494		9.999437	-0.807419	0.059068	-0.028905	-0.068303	-0.148546	-0.729736	0.313965	0.180420	0.331451	-0.627999	-0.297920	-0.637967
24495		10.254038	-0.840828	0.246742	-0.032370	-0.019141	-0.132511	-0.730957	0.320312	0.183594	0.330090	-0.627833	-0.298705	-0.638468
24496		9.969480	-0.642593	0.166824	-0.048213	-0.004921	-0.135704	-0.734375	0.309570	0.184326	0.328638	-0.627605	-0.299335	-0.639146
24497		9.922262	-0.505466	0.163883	-0.056098	-0.026252	-0.151038	-0.741455	0.309082	0.187256	0.326915	-0.627520	-0.300104	-0.639752
24498		10.349579	-0.325649	0.354456	-0.078308	-0.063919	-0.168203	-0.724609	0.309082	0.181641	0.324739	-0.627760	-0.300984	-0.640211
24499		10.469278	-0.274106	0.326263	-0.063170	-0.086712	-0.203160	-0.735107	0.301025	0.184570	0.322322	-0.627983	-0.302357	-0.640567
24500		10.856926	-0.228965	0.307433	-0.057061	-0.075110	-0.211474	-0.732910	0.294922	0.193604	0.319923	-0.628052	-0.303790	-0.641024
24501		10.831328	-0.089457	0.279276	-0.049299	-0.070708	-0.193812	-0.739014	0.289551	0.193848	0.317737	-0.628120	-0.305124	-0.641411
24502		10.407146	0.205010	0.441547	-0.115979	-0.056280	-0.173857	-0.737061	0.287109	0.197266	0.315240	-0.628408	-0.305707	-0.642083
24503		9.761709	0.342745	0.257758	-0.137751	-0.028171	-0.174779	-0.739258	0.285400	0.197021	0.312671	-0.628548	-0.306011	-0.643056
24504		9.536623	0.142947	0.378220	-0.123373	-0.027619	-0.179081	-0.737793	0.280029	0.200684	0.310183	-0.628605	-0.306462	-0.643990
24505		9.311398	0.029732	0.359277	-0.108174	-0.047839	-0.172152	-0.742432	0.279053	0.200928	0.307789	-0.628789	-0.307056	-0.644676
24506		9.041425	0.183855	0.288449	-0.099333	-0.051484	-0.155181	-0.744141	0.271484	0.198242	0.305587	-0.629029	-0.307602	-0.645229
24507		8.975630	0.434000	0.192302	-0.073143	-0.060565	-0.140613	-0.751221	0.267334	0.207764	0.303670	-0.629294	-0.308277	-0.645553
