// Start Time: Unknown
// Update Rate: 40.0Hz
// Filter Profile: human (46.1)
// Firmware Version: 4.6.0
PacketCounter	SampleTimeFine	Acc_X	Acc_Y	Acc_Z	Gyr_X	Gyr_Y	Gyr_Z	Mag_X	Mag_Y	Mag_Z	Quat_q0	Quat_q1	Quat_q2	Quat_q3
23593		9.593939	1.844972	0.836058	0.005596	0.000353	-0.008171	-0.714600	-0.316650	0.469238	-0.192565	-0.674405	0.050407	-0.711024
23594		9.592130	1.814382	0.793322	0.003552	-0.000857	-0.006873	-0.717529	-0.320068	0.466553	-0.192595	-0.674426	0.050320	-0.711003
23595		9.605274	1.760908	0.789627	0.003233	-0.002797	-0.007376	-0.707031	-0.311768	0.457031	-0.192636	-0.674459	0.050236	-0.710966
23596		9.587840	1.835785	0.827596	0.000815	-0.005297	-0.007639	-0.712158	-0.320312	0.473389	-0.192691	-0.674514	0.050180	-0.710903
23597		9.593115	1.757823	0.797356	0.003743	-0.005170	-0.008095	-0.713379	-0.317383	0.472412	-0.192724	-0.674576	0.050094	-0.710841
23598		9.610158	1.817602	0.798374	0.000411	-0.006261	-0.009730	-0.711426	-0.322998	0.473145	-0.192793	-0.674643	0.050035	-0.710764
23599		9.594185	1.825581	0.811338	-0.002349	-0.003610	-0.008989	-0.714111	-0.320312	0.471436	-0.192875	-0.674682	0.050004	-0.710706
23600		9.590203	1.795339	0.812987	0.002158	-0.001338	-0.006538	-0.703857	-0.320312	0.470459	-0.192897	-0.674711	0.049951	-0.710676
23601		9.581689	1.817101	0.788471	0.003668	-0.001367	-0.007187	-0.717773	-0.321045	0.471191	-0.192904	-0.674747	0.049886	-0.710645
23602		9.614534	1.794819	0.800452	0.001441	-0.002205	-0.004205	-0.716309	-0.318604	0.470459	-0.192896	-0.674787	0.049875	-0.710610
23603		9.602715	1.789086	0.810052	0.005637	-0.001083	-0.004687	-0.711670	-0.319092	0.468750	-0.192849	-0.674831	0.049829	-0.710584
23604		9.607418	1.800052	0.784210	0.005551	-0.000107	-0.006275	-0.710938	-0.316650	0.468262	-0.192812	-0.674867	0.049776	-0.710563
23605		9.655406	1.736345	0.776469	-0.000298	0.000425	-0.007791	-0.720459	-0.321533	0.472412	-0.192830	-0.674891	0.049771	-0.710536
23606		9.591256	1.840050	0.772865	0.001782	0.004138	-0.006065	-0.707520	-0.316406	0.468506	-0.192783	-0.674894	0.049775	-0.710546
23607		9.557676	1.834123	0.787355	-0.004316	0.004905	-0.004528	-0.716553	-0.328369	0.471680	-0.192804	-0.674878	0.049836	-0.710551
23608		9.573531	1.734923	0.738729	-0.004829	0.000513	-0.005845	-0.714844	-0.319336	0.469971	-0.192819	-0.674905	0.049899	-0.710517
23609		9.626890	1.691410	0.770109	0.007147	0.004408	-0.010657	-0.709717	-0.320312	0.462891	-0.192762	-0.674941	0.049827	-0.710503
23610		9.628299	1.793725	0.792773	0.004900	-0.002083	-0.012669	-0.711670	-0.314209	0.466797	-0.192753	-0.675014	0.049804	-0.710438
23611		9.612866	1.793740	0.811160	0.001036	0.002347	-0.011618	-0.709961	-0.317383	0.463867	-0.192740	-0.675053	0.049817	-0.710403
23612		9.573229	1.814137	0.788472	0.002739	0.004771	-0.011453	-0.716309	-0.320068	0.475586	-0.192736	-0.675058	0.049813	-0.710400
23613		9.575839	1.813191	0.781002	0.003072	0.003560	-0.012919	-0.712891	-0.312500	0.466797	-0.192674	-0.675115	0.049763	-0.710366
23614		9.578802	1.848239	0.779553	0.008406	0.005408	-0.010684	-0.705566	-0.312744	0.466309	-0.192591	-0.675141	0.049711	-0.710368
23615		9.597049	1.810296	0.783916	0.004827	0.004547	-0.009265	-0.714355	-0.323730	0.472412	-0.192589	-0.675161	0.049683	-0.710351
23616		9.600225	1.819023	0.840375	-0.002201	0.003100	-0.009170	-0.708984	-0.311035	0.467773	-0.192578	-0.675194	0.049691	-0.710322
23617		9.583560	1.785623	0.817170	-0.002051	0.002263	-0.008952	-0.709961	-0.328613	0.470459	-0.192591	-0.675219	0.049733	-0.710292
23618		9.609274	1.761880	0.783277	0.001344	0.004287	-0.011119	-0.714111	-0.323730	0.469238	-0.192638	-0.675221	0.049675	-0.710281
23619		9.592714	1.820264	0.831833	0.003004	0.003423	-0.011550	-0.713379	-0.318115	0.471191	-0.192621	-0.675236	0.049628	-0.710275
23620		9.601745	1.805871	0.775565	0.002848	0.003472	-0.009337	-0.717773	-0.314209	0.464600	-0.192560	-0.675262	0.049597	-0.710269
23621		9.602835	1.790791	0.785165	-0.002235	0.003423	-0.009701	-0.711914	-0.321045	0.468750	-0.192526	-0.675236	0.049655	-0.710299
23622		9.595800	1.801079	0.802518	-0.004583	0.001055	-0.011335	-0.704590	-0.317871	0.458008	-0.192591	-0.675250	0.049676	-0.710266
23623		9.597897	1.813616	0.822572	0.004637	0.005714	-0.010014	-0.705811	-0.324463	0.469727	-0.192707	-0.675182	0.049685	-0.710299
23624		9.618266	1.855538	0.790516	0.001897	0.007244	-0.006314	-0.714600	-0.320557	0.466309	-0.192756	-0.675167	0.049656	-0.710302
23625		9.571395	1.743650	0.793169	-0.000319	0.007978	-0.008194	-0.712646	-0.320801	0.460449	-0.192746	-0.675105	0.049651	-0.710364
23626		9.644508	1.829720	0.795933	0.004610	0.008867	-0.008047	-0.711426	-0.327637	0.464111	-0.192757	-0.675002	0.049641	-0.710459
23627		9.602152	1.777415	0.807033	-0.005495	0.008112	-0.007720	-0.707031	-0.316406	0.469727	-0.192909	-0.674906	0.049689	-0.710506
23628		9.562592	1.827696	0.759751	0.001005	0.009115	-0.009591	-0.719482	-0.323730	0.458984	-0.192895	-0.674904	0.049637	-0.710516
23629		9.569461	1.787680	0.807335	-0.010059	0.005685	-0.008805	-0.712891	-0.309814	0.462402	-0.193004	-0.674755	0.049748	-0.710620
23630		9.583399	1.842183	0.824993	-0.007775	0.011533	-0.005733	-0.715088	-0.313232	0.464355	-0.192933	-0.674639	0.049833	-0.710743
23631		9.606562	1.745649	0.825857	-0.004081	0.011101	-0.005030	-0.716797	-0.325195	0.465332	-0.192826	-0.674539	0.049868	-0.710865
23632		9.619313	1.736719	0.827152	-0.002141	0.009679	-0.007984	-0.712891	-0.318115	0.472168	-0.192862	-0.674438	0.049854	-0.710951
23633		9.583459	1.829458	0.841363	-0.003470	0.005716	-0.009087	-0.713135	-0.322510	0.452148	-0.192779	-0.674471	0.049799	-0.710946
23634		9.595152	1.794072	0.831150	-0.000634	0.006829	-0.011129	-0.718262	-0.316406	0.457275	-0.193002	-0.674277	0.049882	-0.711065
23635		9.572862	1.790933	0.803747	0.003121	0.005748	-0.009363	-0.713135	-0.324219	0.472900	-0.192930	-0.674145	0.049874	-0.711209
23636		9.587735	1.873178	0.830287	0.002870	0.002367	-0.006375	-0.709961	-0.318115	0.461426	-0.192840	-0.674230	0.049767	-0.711161
23637		9.577174	1.809067	0.811564	0.000682	0.001984	-0.005296	-0.715820	-0.313232	0.473145	-0.192844	-0.674208	0.049798	-0.711179
23638		9.604426	1.816467	0.820005	0.002990	0.003893	-0.001757	-0.717773	-0.333740	0.458740	-0.192474	-0.674288	0.049695	-0.711210
23639		9.585386	1.862330	0.849263	-0.004835	0.002534	-0.000929	-0.715576	-0.320557	0.462402	-0.192715	-0.674142	0.049833	-0.711274
23640		9.596546	1.761300	0.821704	-0.001293	0.002941	-0.000441	-0.715820	-0.317871	0.462891	-0.192657	-0.674080	0.049891	-0.711344
23641		9.589072	1.777947	0.834415	0.000648	0.000732	-0.000962	-0.715576	-0.317627	0.474121	-0.192521	-0.674053	0.049923	-0.711404
23642		9.597356	1.789180	0.832539	-0.005204	-0.002372	-0.002558	-0.713135	-0.323975	0.469727	-0.192279	-0.674183	0.049877	-0.711349
23643		9.594681	1.779796	0.813335	-0.002986	0.001301	-0.003041	-0.715576	-0.322754	0.463867	-0.192245	-0.674233	0.049853	-0.711313
23644		9.607117	1.814576	0.814340	-0.011090	0.001289	-0.002120	-0.708740	-0.307861	0.471680	-0.192311	-0.674174	0.049978	-0.711342
23645		9.595140	1.741261	0.844983	-0.008100	0.001568	-0.003943	-0.714844	-0.318359	0.466553	-0.192033	-0.674291	0.049977	-0.711306
23646		9.575907	1.777312	0.809485	-0.004033	-0.004012	-0.004239	-0.718506	-0.321533	0.471436	-0.191935	-0.674342	0.050004	-0.711283
23647		9.593158	1.755453	0.803291	-0.005819	-0.005465	-0.005998	-0.709229	-0.320312	0.465576	-0.191787	-0.674440	0.049955	-0.711234
23648		9.674463	1.749008	0.815446	-0.001291	-0.002709	-0.005438	-0.709961	-0.314941	0.474854	-0.191812	-0.674504	0.049972	-0.711164
23649		9.614684	1.835658	0.843279	-0.013710	-0.002561	-0.006163	-0.714600	-0.322998	0.462646	-0.191648	-0.674668	0.049965	-0.711054
23650		9.586710	1.753060	0.791382	-0.001385	0.001093	-0.004528	-0.706787	-0.320801	0.464600	-0.191710	-0.674610	0.050017	-0.711088
23651		9.584918	1.776808	0.814680	-0.002309	-0.001116	-0.005972	-0.711182	-0.317383	0.464111	-0.191810	-0.674658	0.050059	-0.711013
23652		9.602153	1.760193	0.841547	-0.006471	0.001033	-0.004901	-0.715576	-0.314941	0.461914	-0.191815	-0.674641	0.050148	-0.711022
23653		9.618430	1.747010	0.833018	0.001693	0.007627	-0.004624	-0.714844	-0.316650	0.466064	-0.191686	-0.674525	0.050177	-0.711165
23654		9.627969	1.736638	0.809614	-0.000063	0.005848	-0.005854	-0.708252	-0.312256	0.465088	-0.191540	-0.674488	0.050144	-0.711241
23655		9.585263	1.764706	0.827223	0.002344	0.001921	-0.008155	-0.714600	-0.323975	0.454834	-0.191404	-0.674535	0.050113	-0.711235
23656		9.604815	1.784763	0.815388	0.004380	-0.000471	-0.009520	-0.707520	-0.322754	0.468750	-0.191659	-0.674392	0.050207	-0.711296
23657		9.582830	1.786540	0.817948	0.003302	-0.002634	-0.008750	-0.714600	-0.313965	0.467529	-0.191679	-0.674531	0.050109	-0.711165
23658		9.594153	1.831722	0.813387	0.000896	-0.001532	-0.008950	-0.713623	-0.318848	0.461426	-0.191447	-0.674592	0.050029	-0.711175
23659		9.589599	1.774190	0.804621	0.000157	-0.002080	-0.007146	-0.715820	-0.316162	0.469238	-0.191466	-0.674562	0.050073	-0.711196
23660		9.613503	1.786200	0.820255	0.000804	-0.002137	-0.005676	-0.709717	-0.317139	0.466064	-0.191209	-0.674638	0.049988	-0.711199
23661		9.604954	1.776890	0.821340	-0.000982	-0.003592	-0.007436	-0.721436	-0.313232	0.467773	-0.191160	-0.674718	0.049979	-0.711137
23662		9.595514	1.740566	0.811607	-0.002738	-0.005373	-0.008665	-0.716309	-0.313477	0.467529	-0.190858	-0.674750	0.049925	-0.711192
23663		9.595230	1.742818	0.810124	0.002102	-0.007109	-0.010170	-0.716797	-0.313965	0.463135	-0.190614	-0.674843	0.049837	-0.711175
23664		9.604772	1.769951	0.789895	0.001539	-0.003622	-0.012414	-0.714600	-0.317871	0.467773	-0.190517	-0.674830	0.049817	-0.711215
23665		9.611010	1.734273	0.797998	0.007363	-0.003798	-0.011415	-0.714111	-0.318848	0.472412	-0.190362	-0.674914	0.049661	-0.711187
23666		9.615457	1.818912	0.783650	0.003787	-0.003886	-0.012434	-0.713135	-0.315186	0.464844	-0.190162	-0.675060	0.049439	-0.711118
23667		9.601930	1.806391	0.841215	0.005889	-0.007718	-0.010307	-0.706543	-0.323730	0.458984	-0.190061	-0.675136	0.049396	-0.711075
23668		9.615663	1.820592	0.816927	0.004709	-0.002466	-0.008559	-0.715088	-0.319824	0.458984	-0.190388	-0.675109	0.049497	-0.711006
23669		9.575446	1.853356	0.820408	0.005479	-0.000209	-0.004901	-0.713623	-0.319336	0.461914	-0.190453	-0.675003	0.049578	-0.711084
23670		9.610146	1.767521	0.771590	-0.000406	-0.000176	-0.004526	-0.704834	-0.317383	0.469238	-0.190498	-0.674941	0.049653	-0.711126
23671		9.642475	1.759324	0.811806	-0.006692	-0.001109	-0.006246	-0.715820	-0.321289	0.467529	-0.190513	-0.675055	0.049664	-0.711013
23672		9.588127	1.774861	0.806638	-0.006477	-0.001806	-0.007400	-0.713135	-0.318359	0.469727	-0.190521	-0.675057	0.049667	-0.711008
23673		9.581983	1.734777	0.789437	-0.009779	-0.002454	-0.010945	-0.713867	-0.318115	0.459717	-0.190502	-0.675117	0.049639	-0.710959
23674		9.591478	1.766834	0.802502	-0.007134	-0.000959	-0.011303	-0.709961	-0.313477	0.469482	-0.190674	-0.675016	0.049759	-0.711000
23675		9.611051	1.720761	0.810409	-0.002765	-0.000178	-0.013464	-0.715088	-0.311035	0.460938	-0.190539	-0.675103	0.049646	-0.710961
23676		9.616225	1.765961	0.827660	-0.000179	0.001177	-0.012450	-0.714844	-0.315430	0.470459	-0.190445	-0.675021	0.049653	-0.711064
23677		9.615540	1.764005	0.795919	0.000711	0.000890	-0.014038	-0.710205	-0.314941	0.465576	-0.190247	-0.675081	0.049468	-0.711073
23678		9.599928	1.759161	0.782359	0.003208	-0.000391	-0.014683	-0.716064	-0.315430	0.470215	-0.190200	-0.675120	0.049367	-0.711055
23679		9.590995	1.752053	0.783773	0.005639	-0.001021	-0.016388	-0.711670	-0.322266	0.467285	-0.189974	-0.675194	0.049126	-0.711063
23680		9.597574	1.811555	0.783035	0.008695	-0.002173	-0.014721	-0.708496	-0.316650	0.467773	-0.189993	-0.675262	0.048953	-0.711005
23681		9.600584	1.946397	0.802912	0.005921	-0.000335	-0.011549	-0.717773	-0.318848	0.463867	-0.189912	-0.675340	0.048828	-0.710961
23682		9.603933	1.836668	0.776432	0.004685	0.003983	-0.005994	-0.711914	-0.317139	0.464844	-0.189829	-0.675244	0.048801	-0.711076
23683		9.602811	1.846275	0.772729	-0.007435	0.001155	-0.001941	-0.718262	-0.322998	0.461914	-0.189824	-0.675204	0.048918	-0.711107
23684		9.599624	1.819443	0.807794	-0.007933	0.003199	-0.000692	-0.710205	-0.313965	0.468262	-0.189934	-0.675052	0.049081	-0.711211
23685		9.616417	1.769020	0.793115	-0.001738	0.004328	0.001871	-0.712646	-0.313965	0.465088	-0.189710	-0.675067	0.049095	-0.711255
23686		9.621729	1.716651	0.820215	-0.003950	0.001437	-0.000081	-0.720459	-0.325684	0.465332	-0.189574	-0.675042	0.049175	-0.711310
23687		9.604249	1.703847	0.819653	-0.005429	-0.000905	-0.003838	-0.710938	-0.324219	0.468018	-0.189641	-0.674970	0.049221	-0.711357
23688		9.592231	1.728774	0.804019	0.000907	0.000971	-0.005924	-0.720215	-0.316895	0.464600	-0.189694	-0.675006	0.049169	-0.711312
23689		9.610009	1.771053	0.815379	0.005557	0.000410	-0.008179	-0.715576	-0.321289	0.467041	-0.189529	-0.674957	0.049084	-0.711409
23690		9.595579	1.756111	0.806000	0.007098	0.000068	-0.008296	-0.711426	-0.318848	0.465332	-0.189451	-0.674975	0.048958	-0.711422
23691		9.610030	1.756537	0.754993	0.009812	-0.001907	-0.010096	-0.705566	-0.313965	0.460938	-0.189407	-0.675026	0.048847	-0.711392
23692		9.615257	1.806490	0.803403	0.007244	0.000023	-0.010513	-0.705811	-0.316406	0.463379	-0.189463	-0.675040	0.048854	-0.711364
23693		9.623245	1.784147	0.794909	0.001432	-0.003434	-0.011578	-0.714600	-0.319580	0.469238	-0.189566	-0.675099	0.048864	-0.711280
23694		9.612727	1.793353	0.787452	0.003540	0.000436	-0.011219	-0.711426	-0.319336	0.470215	-0.189482	-0.675139	0.048717	-0.711274
23695		9.591482	1.781510	0.762911	-0.002770	-0.000979	-0.011036	-0.717529	-0.314941	0.464600	-0.189464	-0.675209	0.048628	-0.711218
23696		9.595094	1.812413	0.797249	-0.004869	0.001265	-0.008297	-0.719727	-0.319580	0.466064	-0.189389	-0.675143	0.048641	-0.711300
23697		9.598944	1.801621	0.794020	-0.010170	0.001877	-0.007512	-0.715332	-0.315918	0.465088	-0.189392	-0.675060	0.048676	-0.711376
23698		9.607545	1.706252	0.774786	-0.007280	0.002358	-0.008496	-0.714844	-0.315430	0.462891	-0.189376	-0.675004	0.048705	-0.711431
23699		9.613312	1.777709	0.803088	-0.005614	0.001507	-0.008926	-0.704834	-0.313965	0.467529	-0.189392	-0.674938	0.048757	-0.711486
23700		9.601315	1.772824	0.813589	-0.010076	-0.001133	-0.010859	-0.717041	-0.312744	0.464355	-0.189447	-0.675015	0.048793	-0.711396
23701		9.601982	1.725537	0.780100	-0.004510	0.000527	-0.011669	-0.719727	-0.315430	0.461914	-0.189357	-0.674970	0.048771	-0.711464
23702		9.621791	1.768493	0.747391	0.004098	0.004657	-0.010741	-0.713135	-0.320068	0.467529	-0.189268	-0.674859	0.048710	-0.711597
23703		9.581436	1.870090	0.801259	0.001414	0.006302	-0.008412	-0.714355	-0.320312	0.469727	-0.189232	-0.674836	0.048618	-0.711634
23704		9.598346	1.879686	0.771414	-0.003521	0.004119	-0.004228	-0.711670	-0.313965	0.464111	-0.189140	-0.674838	0.048562	-0.711661
23705		9.590865	1.766576	0.787977	-0.007956	0.003975	-0.003129	-0.709229	-0.317871	0.471680	-0.189109	-0.674786	0.048663	-0.711711
23706		9.605905	1.739613	0.796341	-0.001042	0.002379	-0.002968	-0.709961	-0.311523	0.464844	-0.188953	-0.674870	0.048580	-0.711679
23707		9.593874	1.769110	0.813165	-0.006642	0.001042	-0.002690	-0.705811	-0.319824	0.467529	-0.188869	-0.674870	0.048674	-0.711695
23708		9.596096	1.774807	0.800944	-0.002861	0.001242	-0.005260	-0.711914	-0.319824	0.471436	-0.188927	-0.674927	0.048688	-0.711625
23709		9.597687	1.758637	0.810104	-0.001444	0.001413	-0.005064	-0.714844	-0.322021	0.471924	-0.188812	-0.674993	0.048592	-0.711599
23710		9.598941	1.778510	0.825416	0.002774	0.002254	-0.005007	-0.707275	-0.317139	0.464355	-0.188655	-0.675046	0.048435	-0.711601
23711		9.610215	1.781793	0.783602	0.001642	0.000736	-0.005298	-0.722900	-0.314941	0.468018	-0.188686	-0.675068	0.048469	-0.711570
23712		9.591443	1.720655	0.793586	-0.003470	-0.001852	-0.008705	-0.712646	-0.317871	0.462402	-0.188489	-0.675055	0.048392	-0.711639
23713		9.611425	1.768131	0.791873	0.000198	-0.001933	-0.008528	-0.712158	-0.317383	0.456055	-0.188559	-0.675044	0.048434	-0.711629
23714		9.606764	1.782890	0.795474	0.000802	-0.000869	-0.010022	-0.714600	-0.321777	0.469238	-0.188774	-0.674955	0.048575	-0.711647
23715		9.620015	1.832786	0.778610	-0.000909	-0.000954	-0.005785	-0.712402	-0.312988	0.463867	-0.188722	-0.674996	0.048512	-0.711625
23716		9.603768	1.781341	0.807807	-0.005162	-0.001471	-0.006372	-0.708008	-0.322754	0.468750	-0.188690	-0.674993	0.048581	-0.711633
23717		9.593805	1.753292	0.794545	-0.003689	-0.001158	-0.007550	-0.713623	-0.317627	0.465820	-0.188783	-0.675061	0.048570	-0.711544
23718		9.576723	1.768997	0.804422	-0.005645	0.001037	-0.007026	-0.709717	-0.319824	0.467285	-0.188791	-0.675043	0.048596	-0.711557
23719		9.611402	1.761016	0.800734	-0.004058	0.003663	-0.006012	-0.708252	-0.315186	0.465820	-0.188831	-0.675042	0.048606	-0.711546
23720		9.621585	1.719874	0.802169	-0.001287	0.000577	-0.004847	-0.715088	-0.315674	0.466553	-0.188799	-0.675071	0.048637	-0.711525
23721		9.617941	1.725118	0.810957	-0.000881	0.002803	-0.007089	-0.714844	-0.320312	0.461670	-0.188702	-0.675051	0.048596	-0.711573
23722		9.594621	1.770979	0.816047	-0.001966	-0.001863	-0.009355	-0.713867	-0.320068	0.477539	-0.188811	-0.675015	0.048641	-0.711575
23723		9.581754	1.769520	0.789708	0.004547	0.001694	-0.008184	-0.710938	-0.322754	0.468262	-0.188561	-0.675141	0.048384	-0.711539
23724		9.590979	1.796170	0.771132	0.003094	0.001847	-0.008911	-0.714600	-0.314209	0.469971	-0.188580	-0.675173	0.048289	-0.711510
23725		9.600659	1.791830	0.778219	0.005452	0.000620	-0.007338	-0.708008	-0.320557	0.469482	-0.188357	-0.675225	0.048152	-0.711529
23726		9.599428	1.807063	0.805981	0.006929	0.002964	-0.003577	-0.712891	-0.313965	0.470703	-0.188274	-0.675282	0.048061	-0.711504
23727		9.602021	1.777089	0.787567	0.002731	0.002584	-0.005539	-0.716797	-0.317139	0.465820	-0.188071	-0.675323	0.047960	-0.711525
23728		9.607017	1.762170	0.820503	-0.001667	0.002106	-0.003910	-0.709961	-0.311279	0.468018	-0.187996	-0.675281	0.047972	-0.711584
23729		9.614962	1.768938	0.787593	0.000718	0.004636	-0.003641	-0.714600	-0.314209	0.465576	-0.187849	-0.675287	0.047963	-0.711618
23730		9.587375	1.768030	0.812293	0.003708	0.000858	-0.003631	-0.712402	-0.310059	0.471436	-0.187719	-0.675281	0.047951	-0.711658
23731		9.593016	1.774887	0.823064	-0.002366	-0.002063	-0.002174	-0.705566	-0.319580	0.467773	-0.187475	-0.675362	0.047929	-0.711647
23732		9.606769	1.724628	0.783138	-0.005493	-0.003095	-0.007411	-0.712891	-0.318604	0.462891	-0.187593	-0.675436	0.047974	-0.711543
23733		9.614696	1.742275	0.812755	-0.002587	-0.003398	-0.005958	-0.713135	-0.319092	0.463867	-0.187678	-0.675429	0.048062	-0.711521
23734		9.618700	1.731722	0.808347	0.002885	-0.000279	-0.010261	-0.707031	-0.317627	0.474609	-0.187739	-0.675418	0.048037	-0.711517
23735		9.608210	1.735540	0.768863	0.007677	-0.002122	-0.010393	-0.715088	-0.313477	0.472900	-0.187600	-0.675576	0.047832	-0.711417
23736		9.580911	1.758549	0.770719	0.006258	-0.002297	-0.010590	-0.711182	-0.321289	0.471436	-0.187367	-0.675674	0.047636	-0.711400
23737		9.664415	1.817866	0.755356	0.005391	0.001741	-0.010306	-0.715820	-0.317383	0.461670	-0.187314	-0.675729	0.047466	-0.711372
23738		9.589646	1.792912	0.783503	-0.001532	-0.001228	-0.006728	-0.711670	-0.306885	0.464111	-0.187382	-0.675674	0.047550	-0.711401
23739		9.554783	1.763000	0.749715	0.001955	0.000327	-0.009205	-0.709717	-0.314941	0.476318	-0.187302	-0.675668	0.047574	-0.711426
23740		9.595166	1.762032	0.756356	-0.002550	0.000822	-0.009168	-0.707275	-0.313721	0.462402	-0.187154	-0.675772	0.047432	-0.711376
23741		9.620091	1.798709	0.820202	-0.012558	0.003068	-0.009097	-0.704834	-0.318604	0.476074	-0.187376	-0.675705	0.047624	-0.711368
23742		9.632802	1.699609	0.792894	-0.009069	0.003365	-0.007233	-0.715820	-0.322021	0.466309	-0.187373	-0.675787	0.047575	-0.711294
23743		9.628994	1.705332	0.802444	-0.001204	0.004940	-0.009433	-0.709473	-0.317871	0.470947	-0.187427	-0.675723	0.047528	-0.711344
23744		9.596112	1.807464	0.790452	-0.004242	0.002461	-0.011175	-0.713867	-0.313965	0.470703	-0.187450	-0.675754	0.047468	-0.711313
23745		9.588033	1.762669	0.787200	-0.001550	0.006145	-0.007964	-0.715332	-0.317871	0.468506	-0.187334	-0.675735	0.047393	-0.711366
23746		9.601012	1.749415	0.755837	0.002720	0.010430	-0.008679	-0.717529	-0.319580	0.476562	-0.187263	-0.675658	0.047281	-0.711465
23747		9.595481	1.805090	0.799933	0.000538	0.006735	-0.008201	-0.719727	-0.311768	0.463623	-0.187044	-0.675676	0.047052	-0.711521
23748		9.607121	1.783027	0.816937	0.003720	0.004623	-0.004936	-0.714844	-0.312988	0.470703	-0.186921	-0.675590	0.047063	-0.711635
23749		9.604903	1.801513	0.808717	-0.000549	0.000337	-0.004222	-0.711670	-0.315186	0.465820	-0.186746	-0.675622	0.047020	-0.711653
23750		9.608884	1.699448	0.777869	0.000504	0.002510	-0.004992	-0.712646	-0.314697	0.468750	-0.186727	-0.675605	0.047050	-0.711672
23751		9.589101	1.773250	0.817444	-0.002114	0.001463	-0.006542	-0.719238	-0.318359	0.467285	-0.186670	-0.675615	0.047038	-0.711678
23752		9.578712	1.781032	0.810775	-0.005456	-0.000140	-0.006286	-0.715088	-0.322754	0.472900	-0.186635	-0.675586	0.047039	-0.711715
23753		9.604977	1.735119	0.797760	0.001027	0.000939	-0.008148	-0.705811	-0.312256	0.466797	-0.186530	-0.675633	0.046867	-0.711710
23754		9.631706	1.807154	0.822641	0.002755	0.002267	-0.005009	-0.720703	-0.319092	0.464355	-0.186513	-0.675660	0.046907	-0.711686
23755		9.601489	1.763866	0.785025	-0.003056	-0.001689	-0.004180	-0.708252	-0.322021	0.465088	-0.186487	-0.675615	0.046949	-0.711732
23756		9.598010	1.763566	0.761057	-0.005763	-0.002553	-0.004887	-0.711182	-0.313965	0.465576	-0.186635	-0.675634	0.047053	-0.711669
23757		9.577157	1.760106	0.800381	-0.008309	-0.000964	-0.004775	-0.711670	-0.316650	0.459717	-0.186687	-0.675627	0.047183	-0.711653
23758		9.587121	1.749584	0.775804	-0.001097	0.002702	-0.003501	-0.714600	-0.312500	0.464355	-0.186795	-0.675549	0.047332	-0.711688
23759		9.676426	1.813409	0.772639	-0.002694	0.002893	-0.002011	-0.711426	-0.318848	0.461914	-0.186739	-0.675498	0.047421	-0.711746
23760		9.605916	1.661064	0.791577	-0.016631	-0.000369	-0.002704	-0.721436	-0.319824	0.466309	-0.186948	-0.675433	0.047675	-0.711736
23761		9.581257	1.772459	0.777572	-0.006678	0.001810	-0.005134	-0.706787	-0.319092	0.466309	-0.186917	-0.675370	0.047685	-0.711803
23762		9.585279	1.766194	0.806541	-0.014769	0.002179	-0.006125	-0.709229	-0.311768	0.468262	-0.187117	-0.675351	0.047851	-0.711758
23763		9.595370	1.697826	0.798028	-0.007211	0.004644	-0.006318	-0.714355	-0.316650	0.462646	-0.187115	-0.675338	0.047910	-0.711766
23764		9.635478	1.668770	0.795691	0.001420	0.008489	-0.004842	-0.704834	-0.321045	0.464355	-0.187112	-0.675239	0.047930	-0.711860
23765		9.636712	1.716258	0.822795	0.001565	0.005160	-0.007664	-0.711914	-0.323730	0.468018	-0.187261	-0.675225	0.047970	-0.711831
23766		9.605904	1.737479	0.803071	0.000924	0.005683	-0.011043	-0.716309	-0.313965	0.466797	-0.187342	-0.675207	0.047892	-0.711832
23767		9.611426	1.768603	0.793706	0.003470	0.004096	-0.011155	-0.718750	-0.315430	0.468262	-0.187255	-0.675186	0.047785	-0.711882
23768		9.581579	1.781415	0.777983	-0.000256	0.004017	-0.009963	-0.721680	-0.316162	0.465820	-0.187159	-0.675159	0.047688	-0.711939
23769		9.588125	1.808281	0.804551	0.006439	0.002679	-0.006731	-0.713623	-0.318848	0.464111	-0.186988	-0.675125	0.047570	-0.712024
23770		9.590817	1.783819	0.817895	0.003007	0.001255	-0.005633	-0.712402	-0.320801	0.471191	-0.186980	-0.675114	0.047568	-0.712037
23771		9.616924	1.715280	0.826220	-0.001969	0.000160	-0.004421	-0.718262	-0.317139	0.466553	-0.186938	-0.675161	0.047543	-0.712005
23772		9.611660	1.674723	0.809263	0.003074	0.001867	-0.008914	-0.713867	-0.320068	0.455811	-0.186856	-0.675148	0.047452	-0.712046
23773		9.593534	1.727133	0.825397	0.000508	0.000959	-0.011842	-0.712402	-0.309570	0.465088	-0.187055	-0.675068	0.047520	-0.712064
23774		9.614614	1.731110	0.822102	0.004857	-0.001975	-0.012694	-0.718018	-0.307129	0.468262	-0.186990	-0.675113	0.047451	-0.712044
23775		9.592523	1.813588	0.787658	-0.001243	-0.004596	-0.011776	-0.709717	-0.313965	0.465332	-0.186837	-0.675169	0.047377	-0.712035
23776		9.586559	1.724550	0.780587	-0.001794	-0.002232	-0.011055	-0.714355	-0.313232	0.466309	-0.186894	-0.675207	0.047398	-0.711983
23777		9.613690	1.761441	0.798529	0.006658	-0.001297	-0.008492	-0.718994	-0.308594	0.468750	-0.186783	-0.675244	0.047320	-0.711982
23778		9.598015	1.818196	0.801363	-0.001613	-0.000575	-0.007798	-0.706543	-0.317383	0.466553	-0.186605	-0.675257	0.047261	-0.712020
23779		9.595594	1.724615	0.786807	0.003104	0.001543	-0.008385	-0.716064	-0.308838	0.466553	-0.186658	-0.675289	0.047260	-0.711976
23780		9.594201	1.735324	0.782480	0.002020	-0.000308	-0.008148	-0.714355	-0.323242	0.461670	-0.186521	-0.675302	0.047211	-0.712003
23781		9.653042	1.766756	0.804557	0.003783	-0.001330	-0.009420	-0.710693	-0.311768	0.464355	-0.186625	-0.675290	0.047211	-0.711987
23782		9.620205	1.697345	0.800547	0.000729	-0.000998	-0.008659	-0.714844	-0.319336	0.469238	-0.186623	-0.675309	0.047233	-0.711969
23783		9.579490	1.752172	0.783129	0.002494	0.001739	-0.011236	-0.717773	-0.316162	0.461426	-0.186605	-0.675325	0.047130	-0.711965
23784		9.575322	1.731598	0.781101	-0.004247	-0.000368	-0.013696	-0.711914	-0.314209	0.468018	-0.186699	-0.675277	0.047139	-0.711985
23785		9.603163	1.760748	0.804595	-0.003088	0.004590	-0.014177	-0.714600	-0.322266	0.463135	-0.186744	-0.675262	0.047086	-0.711991
23786		9.639518	1.710256	0.799678	0.000236	0.005736	-0.012525	-0.709229	-0.319336	0.464111	-0.186869	-0.675193	0.047055	-0.712026
23787		9.632013	1.721143	0.817185	0.002680	0.001844	-0.014832	-0.707764	-0.314209	0.470703	-0.187003	-0.675195	0.047019	-0.711991
23788		9.587579	1.780859	0.808027	0.001893	-0.001353	-0.014689	-0.718018	-0.316895	0.464111	-0.187017	-0.675281	0.046935	-0.711911
23789		9.605056	1.757068	0.770654	0.004272	0.001660	-0.016324	-0.712891	-0.314941	0.470703	-0.187019	-0.675257	0.046803	-0.711942
23790		9.590612	1.776103	0.804217	0.001346	0.001479	-0.015876	-0.718994	-0.314209	0.467285	-0.187001	-0.675296	0.046672	-0.711918
23791		9.603732	1.792057	0.781684	0.006343	0.001792	-0.014652	-0.712158	-0.313477	0.466309	-0.186893	-0.675296	0.046494	-0.711959
23792		9.600975	1.812746	0.773178	0.003948	0.002068	-0.012417	-0.720459	-0.317139	0.469727	-0.186866	-0.675304	0.046416	-0.711963
23793		9.583186	1.807024	0.804460	0.001183	0.000581	-0.009844	-0.718750	-0.318604	0.468018	-0.186746	-0.675310	0.046296	-0.711997
23794		9.597170	1.736127	0.786455	-0.001523	-0.000295	-0.010554	-0.711182	-0.311523	0.464600	-0.186710	-0.675311	0.046226	-0.712010
23795		9.600034	1.767579	0.820573	0.000869	-0.000569	-0.012790	-0.717041	-0.318848	0.477539	-0.186728	-0.675327	0.046208	-0.711991
23796		9.605231	1.744403	0.788620	0.001206	-0.002239	-0.012354	-0.704346	-0.323242	0.467285	-0.186583	-0.675426	0.046009	-0.711948
23797		9.610582	1.775889	0.777758	0.001575	-0.000477	-0.012692	-0.709717	-0.316406	0.463867	-0.186747	-0.675479	0.046005	-0.711855
23798		9.606902	1.832001	0.775348	0.001547	0.002344	-0.010183	-0.711182	-0.313477	0.475098	-0.186811	-0.675464	0.046019	-0.711851
23799		9.599525	1.814422	0.781770	0.003833	0.001317	-0.007760	-0.710205	-0.319824	0.471924	-0.186651	-0.675537	0.045902	-0.711831
23800		9.583169	1.766607	0.774313	-0.005865	-0.004893	-0.007092	-0.709717	-0.312988	0.470459	-0.186672	-0.675620	0.045931	-0.711745
23801		9.617816	1.709958	0.780355	0.001876	0.000206	-0.007840	-0.712646	-0.320312	0.469482	-0.186600	-0.675669	0.045896	-0.711720
23802		9.636642	1.708639	0.789661	0.005452	-0.001683	-0.011761	-0.708984	-0.317139	0.465088	-0.186579	-0.675724	0.045789	-0.711680
23803		9.635289	1.797237	0.784786	0.008143	0.002953	-0.012359	-0.712646	-0.314941	0.468506	-0.186610	-0.675728	0.045721	-0.711673
23804		9.591451	1.770679	0.781052	-0.000209	0.004296	-0.012729	-0.714844	-0.317627	0.470215	-0.186615	-0.675711	0.045658	-0.711691
23805		9.597668	1.738965	0.754798	0.003549	0.004068	-0.013391	-0.713623	-0.320557	0.466797	-0.186574	-0.675709	0.045523	-0.711713
23806		9.570904	1.835382	0.794309	0.002621	0.004667	-0.012333	-0.709473	-0.320801	0.461182	-0.186609	-0.675679	0.045447	-0.711737
23807		9.584985	1.792364	0.787619	0.005086	0.003277	-0.011599	-0.714600	-0.323975	0.474609	-0.186729	-0.675643	0.045447	-0.711739
23808		9.620734	1.723118	0.767142	-0.001248	0.002113	-0.011960	-0.720459	-0.314941	0.464111	-0.186725	-0.675675	0.045333	-0.711718
23809		9.623530	1.777060	0.780636	0.003414	0.004578	-0.013080	-0.707764	-0.313721	0.472656	-0.186666	-0.675610	0.045222	-0.711802
23810		9.603465	1.816132	0.814249	0.001494	0.002669	-0.010720	-0.714844	-0.321045	0.460205	-0.186631	-0.675656	0.045161	-0.711771
23811		9.592809	1.770345	0.786906	0.006196	0.004809	-0.011308	-0.716064	-0.320557	0.466797	-0.186689	-0.675586	0.045119	-0.711825
23812		9.588909	1.799238	0.774442	0.002377	0.002396	-0.012311	-0.712891	-0.312988	0.476562	-0.186694	-0.675569	0.045033	-0.711845
23813		9.580504	1.813216	0.755238	-0.001253	0.002111	-0.011963	-0.707764	-0.320801	0.465820	-0.186593	-0.675623	0.044916	-0.711828
23814		9.602242	1.818755	0.820856	-0.007201	-0.001053	-0.011355	-0.708008	-0.310547	0.472900	-0.186770	-0.675635	0.045003	-0.711765
23815		9.599708	1.783870	0.791044	-0.001495	-0.000627	-0.010029	-0.713867	-0.314209	0.469482	-0.186723	-0.675703	0.044982	-0.711714
23816		9.598192	1.794808	0.786429	0.000134	-0.001600	-0.009080	-0.712158	-0.313477	0.466064	-0.186658	-0.675740	0.044946	-0.711698
23817		9.594423	1.800395	0.794325	-0.005583	-0.002962	-0.006589	-0.710205	-0.323242	0.468018	-0.186670	-0.675758	0.045033	-0.711672
23818		9.606604	1.751432	0.799243	-0.000039	-0.000764	-0.009299	-0.705811	-0.320312	0.469971	-0.186735	-0.675786	0.045032	-0.711629
23819		9.609548	1.727855	0.812025	0.002433	-0.001682	-0.010472	-0.711914	-0.321045	0.466553	-0.186793	-0.675855	0.045020	-0.711549
23820		9.584024	1.782635	0.812226	0.004836	0.001015	-0.011577	-0.708740	-0.320801	0.477051	-0.186817	-0.675864	0.044956	-0.711538
23821		9.602042	1.780354	0.753274	0.006106	-0.001251	-0.012198	-0.714600	-0.319824	0.471436	-0.186765	-0.675972	0.044818	-0.711458
23822		9.586460	1.834106	0.792277	0.002878	-0.000571	-0.009748	-0.717041	-0.328613	0.467041	-0.186703	-0.676010	0.044730	-0.711444
23823		9.587523	1.795323	0.753607	-0.000853	-0.003641	-0.009687	-0.709229	-0.318848	0.458984	-0.186746	-0.676029	0.044692	-0.711417
23824		9.613267	1.764113	0.767570	0.004116	-0.000015	-0.007860	-0.706299	-0.321533	0.472656	-0.186827	-0.676003	0.044758	-0.711416
23825		9.637875	1.813121	0.745591	0.001790	0.003824	-0.007777	-0.710693	-0.315186	0.463867	-0.186852	-0.676030	0.044746	-0.711384
23826		9.606552	1.794000	0.800184	-0.003040	0.002184	-0.006876	-0.712891	-0.312256	0.470459	-0.186891	-0.675995	0.044821	-0.711403
23827		9.594023	1.764522	0.763871	-0.001983	0.001079	-0.008248	-0.712646	-0.319336	0.476074	-0.186829	-0.676007	0.044813	-0.711408
23828		9.595765	1.798814	0.762449	0.004361	0.005690	-0.008664	-0.709717	-0.315186	0.466553	-0.186731	-0.676025	0.044695	-0.711424
23829		9.586177	1.798322	0.761699	-0.001192	0.010675	-0.008040	-0.714844	-0.318359	0.467773	-0.186760	-0.675938	0.044715	-0.711498
23830		9.610962	1.720944	0.753164	-0.002175	0.008633	-0.008646	-0.712646	-0.318115	0.473877	-0.186758	-0.675860	0.044692	-0.711574
23831		9.613258	1.779417	0.799655	-0.006259	0.004733	-0.012066	-0.716309	-0.316650	0.468506	-0.186789	-0.675853	0.044658	-0.711574
23832		9.612370	1.787397	0.832922	-0.005998	0.003716	-0.012692	-0.716064	-0.319336	0.458984	-0.186818	-0.675814	0.044632	-0.711605
23833		9.572295	1.850171	0.767270	0.001164	0.003550	-0.008723	-0.709473	-0.310791	0.465576	-0.186855	-0.675736	0.044651	-0.711669
23834		9.581327	1.800031	0.749419	0.000847	0.001460	-0.007852	-0.708252	-0.316162	0.466309	-0.186835	-0.675737	0.044683	-0.711671
23835		9.597883	1.793105	0.772507	0.000680	0.004790	-0.005029	-0.713867	-0.327148	0.468750	-0.186839	-0.675713	0.044737	-0.711690
23836		9.607337	1.842876	0.801611	-0.000562	0.003765	-0.005010	-0.711670	-0.322754	0.467041	-0.186855	-0.675690	0.044746	-0.711707
23837		9.605135	1.762131	0.815286	0.000004	0.000937	-0.003819	-0.713379	-0.321777	0.474365	-0.186859	-0.675691	0.044795	-0.711702
23838		9.595008	1.764159	0.776401	0.002347	0.000532	-0.004678	-0.711914	-0.321289	0.471191	-0.186770	-0.675738	0.044756	-0.711682
23839		9.594031	1.802979	0.850697	-0.007085	-0.002983	-0.005949	-0.708496	-0.320801	0.461426	-0.186805	-0.675782	0.044829	-0.711627
23840		9.598062	1.762868	0.767881	0.000625	0.001684	-0.004784	-0.711426	-0.319824	0.464844	-0.186873	-0.675755	0.044925	-0.711628
23841		9.602018	1.806202	0.785314	-0.002121	0.000650	-0.004119	-0.713379	-0.315186	0.474121	-0.186893	-0.675743	0.045007	-0.711630
23842		9.605285	1.781198	0.798526	-0.001107	-0.000597	-0.004113	-0.711914	-0.317627	0.469482	-0.186789	-0.675791	0.045013	-0.711611
23843		9.590042	1.805640	0.827144	-0.001554	-0.002178	-0.002929	-0.708740	-0.315186	0.470703	-0.186742	-0.675829	0.045076	-0.711584
23844		9.599751	1.749064	0.776297	-0.001554	-0.002178	-0.002929	-0.711426	-0.319336	0.465820	-0.186704	-0.675882	0.045157	-0.711537
23845		9.637935	1.792120	0.784599	0.001374	0.000986	-0.002243	-0.719971	-0.320068	0.463379	-0.186671	-0.675878	0.045218	-0.711546
23846		9.571668	1.824593	0.799975	-0.004247	-0.000107	-0.002508	-0.709961	-0.313965	0.468262	-0.186617	-0.675833	0.045273	-0.711600
23847		9.606171	1.770585	0.770374	-0.002123	0.000181	-0.002209	-0.716797	-0.317871	0.471436	-0.186577	-0.675847	0.045364	-0.711591
23848		9.634311	1.747995	0.804301	-0.009116	-0.000960	-0.004053	-0.713867	-0.312256	0.472168	-0.186548	-0.675853	0.045434	-0.711588
23849		9.590491	1.673320	0.774247	-0.009123	-0.002985	-0.009006	-0.708496	-0.317627	0.465088	-0.186549	-0.675894	0.045484	-0.711546
23850		9.579590	1.731524	0.756444	-0.004027	0.001549	-0.013216	-0.713867	-0.315430	0.465088	-0.186688	-0.675883	0.045532	-0.711517
23851		9.587266	1.796673	0.812779	-0.016865	-0.000467	-0.012259	-0.707520	-0.312256	0.469727	-0.186851	-0.675846	0.045660	-0.711501
23852		9.535536	1.663140	0.795355	-0.017590	-0.005549	-0.018449	-0.712402	-0.316406	0.474854	-0.187083	-0.675899	0.045774	-0.711382
23853		9.537902	1.380125	0.810205	-0.012348	-0.008849	-0.033487	-0.710938	-0.317139	0.463623	-0.187345	-0.676015	0.045658	-0.711211
23854		9.894083	1.573064	0.922976	-0.001482	-0.004651	-0.047900	-0.712891	-0.311035	0.475586	-0.187732	-0.676070	0.045391	-0.711074
23855		9.634744	1.968929	0.815479	-0.013447	0.002878	-0.048952	-0.710693	-0.321289	0.465576	-0.188087	-0.676088	0.045113	-0.710981
23856		9.459643	2.330537	0.666647	-0.004793	-0.001171	-0.028968	-0.706787	-0.323730	0.465332	-0.188336	-0.676101	0.045015	-0.710908
23857		9.498255	2.188425	0.782188	-0.031708	-0.008661	-0.003508	-0.710205	-0.319336	0.463135	-0.188636	-0.676112	0.045417	-0.710793
23858		9.613614	1.860612	0.780704	-0.008870	0.000009	0.014252	-0.716797	-0.321777	0.462646	-0.188532	-0.676070	0.045720	-0.710841
23859		9.598218	1.905468	0.752422	0.022943	0.006593	0.024556	-0.711182	-0.321045	0.468506	-0.188025	-0.676018	0.045765	-0.711022
23860		9.594504	1.776980	0.816356	0.004073	-0.001425	0.025818	-0.709229	-0.315674	0.464111	-0.187691	-0.676039	0.046025	-0.711073
23861		9.645014	1.541841	0.870461	-0.006308	-0.002010	0.016050	-0.717285	-0.318359	0.468750	-0.187546	-0.676030	0.046331	-0.711100
23862		9.661355	1.501456	0.744736	0.015404	-0.002956	-0.000295	-0.717529	-0.326904	0.464844	-0.187276	-0.676091	0.046226	-0.711120
23863		9.610820	1.792146	0.742427	0.012873	-0.000310	-0.005383	-0.713623	-0.320312	0.465088	-0.187162	-0.676104	0.046132	-0.711144
23864		9.601406	1.891361	0.786363	-0.001554	0.001255	-0.003706	-0.703857	-0.316162	0.467773	-0.187148	-0.676080	0.046198	-0.711166
23865		9.604195	1.724638	0.759465	0.002742	0.001512	-0.002575	-0.711182	-0.317627	0.467529	-0.187146	-0.676103	0.046294	-0.711138
23866		9.629220	1.679025	0.790771	0.002953	-0.001669	-0.006781	-0.708008	-0.321045	0.463379	-0.187113	-0.676137	0.046303	-0.711114
23867		9.641771	1.770284	0.767778	0.004989	0.002708	-0.008320	-0.715820	-0.316162	0.471191	-0.187162	-0.676124	0.046327	-0.711112
23868		9.619317	1.842335	0.739265	0.005041	0.004873	-0.004742	-0.714844	-0.313477	0.463623	-0.187020	-0.676110	0.046262	-0.711167
23869		9.561764	1.899647	0.736605	-0.001197	0.002549	-0.002134	-0.718018	-0.317871	0.471191	-0.186933	-0.676066	0.046315	-0.711228
23870		9.656474	1.704983	0.783709	-0.015937	-0.000944	-0.000725	-0.714600	-0.316406	0.466309	-0.186923	-0.676047	0.046471	-0.711239
23871		9.602635	1.618273	0.800396	-0.000718	0.001316	-0.005831	-0.718018	-0.319092	0.467285	-0.186881	-0.676032	0.046492	-0.711263
23872		9.590496	1.702143	0.725520	0.005423	0.005236	-0.013323	-0.710205	-0.329102	0.475098	-0.186837	-0.675996	0.046361	-0.711317
23873		9.597374	1.795234	0.793292	-0.009857	0.005184	-0.016393	-0.716553	-0.312012	0.466553	-0.187060	-0.675984	0.046388	-0.711268
23874		9.604131	1.719961	0.810128	-0.001318	0.003538	-0.017708	-0.714844	-0.319580	0.468262	-0.187074	-0.675953	0.046282	-0.711301
23875		9.628323	1.649134	0.763550	-0.000443	0.003745	-0.021212	-0.708740	-0.320801	0.467285	-0.187175	-0.675935	0.046162	-0.711299
23876		9.624549	1.677374	0.787278	0.003570	0.000512	-0.027459	-0.713379	-0.308350	0.466553	-0.187371	-0.675970	0.046019	-0.711223
23877		9.596026	1.659715	0.832413	0.011387	-0.000282	-0.032697	-0.709717	-0.318115	0.472656	-0.187408	-0.676020	0.045698	-0.711187
23878		9.584075	1.606947	0.820538	0.022191	-0.000099	-0.043052	-0.710449	-0.323242	0.466064	-0.187518	-0.676135	0.045215	-0.711080
23879		9.585595	1.457917	0.823954	0.030782	-0.003925	-0.064166	-0.717529	-0.317871	0.465820	-0.187803	-0.676279	0.044526	-0.710911
23880		9.457298	1.243267	0.869648	0.019821	-0.034166	-0.103007	-0.701660	-0.320068	0.470459	-0.188390	-0.676667	0.043604	-0.710444
23881		9.495990	0.808778	0.861789	0.039080	-0.078310	-0.154266	-0.712646	-0.325195	0.471191	-0.189383	-0.677573	0.042291	-0.709394
23882		9.654246	0.916954	0.917379	0.090672	-0.070418	-0.215370	-0.706543	-0.329102	0.475098	-0.190376	-0.678521	0.039896	-0.708360
23883		9.590276	1.002115	0.895711	0.054147	-0.085280	-0.287010	-0.706055	-0.331055	0.482422	-0.192342	-0.679560	0.037282	-0.706974
23884		9.590306	0.635599	0.865385	0.059184	-0.098560	-0.371388	-0.696777	-0.338379	0.477295	-0.194928	-0.680773	0.033889	-0.705268
23885		9.652558	-0.015027	0.693634	0.092776	-0.109148	-0.472440	-0.688232	-0.342773	0.477783	-0.198212	-0.682164	0.029458	-0.703205
23886		9.802405	-0.051447	1.064302	0.093238	-0.124129	-0.581615	-0.684814	-0.356689	0.484619	-0.202468	-0.683698	0.024179	-0.700699
23887		9.496025	-0.156180	1.455955	-0.004606	-0.167823	-0.769061	-0.685303	-0.379395	0.483398	-0.209158	-0.685383	0.018248	-0.697259
23888		9.400240	-0.691537	2.019695	0.038461	-0.203133	-0.990901	-0.668213	-0.384033	0.494629	-0.217357	-0.687408	0.010110	-0.692910
23889		8.971750	-0.209781	1.168823	0.299191	-0.208323	-1.163462	-0.656494	-0.400391	0.495361	-0.224721	-0.690128	-0.001755	-0.687910
23890		8.045334	1.611644	0.343053	0.575536	-0.271298	-1.281735	-0.651367	-0.428467	0.506836	-0.230667	-0.693949	-0.016805	-0.681868
23891		8.532379	0.542759	0.676965	0.173812	-0.383783	-1.547511	-0.629395	-0.449707	0.518311	-0.242248	-0.697233	-0.030475	-0.673983
23892		8.552221	-0.681487	0.405780	0.124372	-0.354295	-1.860708	-0.617188	-0.481934	0.524170	-0.256744	-0.699685	-0.046542	-0.665100
23893		6.458391	5.822072	-0.994996	0.313766	-0.361651	-1.833070	-0.584473	-0.494385	0.539307	-0.269098	-0.702384	-0.063955	-0.655861
23894		5.925572	12.019226	-2.787665	-0.006069	-0.333127	-1.563722	-0.570801	-0.516113	0.535156	-0.281920	-0.703709	-0.076455	-0.647664
23895		11.904563	2.441991	-1.751023	-0.157779	-0.122730	-1.450804	-0.546631	-0.536865	0.541016	-0.294901	-0.702616	-0.087399	-0.641658
23896		9.525754	2.180131	-0.810661	0.402048	-0.020971	-1.638611	-0.534668	-0.569336	0.551758	-0.304311	-0.702354	-0.104774	-0.634914
23897		0.697396	15.565346	-0.318268	0.579790	-0.112035	-1.323175	-0.516846	-0.577881	0.563232	-0.309847	-0.703688	-0.120183	-0.627992
23898		7.451095	12.812573	-0.596492	0.103385	-0.083211	-0.578359	-0.505371	-0.589355	0.555420	-0.313604	-0.703923	-0.125510	-0.624813
23899		11.857822	9.412564	-0.131946	0.361202	0.051107	-0.345172	-0.505615	-0.585693	0.565186	-0.313072	-0.704450	-0.131329	-0.623288
23900		4.399980	17.445356	-0.602563	0.053185	-0.009325	0.170074	-0.503418	-0.580078	0.562988	-0.311295	-0.705065	-0.130017	-0.623758
23901		10.695354	18.695525	-2.021816	0.349776	-0.006237	1.196347	-0.517334	-0.562500	0.572510	-0.298854	-0.708367	-0.122049	-0.627700
23902		12.497986	21.736023	-4.386760	0.265854	0.101416	2.115171	-0.541748	-0.523193	0.567627	-0.279672	-0.711562	-0.105652	-0.635846
23903		21.121023	14.227657	0.994897	-0.554027	0.145059	2.754137	-0.578613	-0.497070	0.558594	-0.262469	-0.711692	-0.077070	-0.647043
23904		19.818089	1.263724	3.497903	-1.155401	0.395424	2.581020	-0.610352	-0.464600	0.526123	-0.251807	-0.706779	-0.045502	-0.659535
23905		9.861328	-1.515572	-0.973850	-2.318492	0.931026	2.761091	-0.646240	-0.457275	0.487549	-0.249215	-0.692624	-0.004344	-0.676864
23906		4.563032	-5.916873	-1.285328	-1.755222	0.562290	2.741953	-0.682129	-0.415283	0.454834	-0.241535	-0.681942	0.033121	-0.689578
23907		3.362360	-6.387856	1.507472	-0.331523	0.282167	1.990682	-0.712402	-0.380127	0.443848	-0.226956	-0.677484	0.051907	-0.697720
23908		-0.368523	-1.184911	-0.317651	-0.295059	-0.042776	0.425851	-0.710205	-0.381836	0.437500	-0.225514	-0.676741	0.058166	-0.698413
23909		0.558608	-2.592716	0.387947	-0.216245	-0.198493	0.057669	-0.713135	-0.382568	0.440674	-0.226633	-0.677823	0.061192	-0.696742
23910		0.890470	-1.644201	0.126380	0.189607	-0.096385	-0.275622	-0.699463	-0.380859	0.438232	-0.227276	-0.679411	0.057571	-0.695292
23911		0.714464	-0.126005	0.114318	0.489927	0.082598	-0.386794	-0.704346	-0.386475	0.437744	-0.226460	-0.680351	0.049899	-0.695233
23912		-0.092351	-0.116827	0.125615	0.392162	0.115605	-0.409053	-0.697754	-0.385986	0.445801	-0.226682	-0.680703	0.042800	-0.695289
23913		0.335893	-1.143577	0.211573	0.424733	0.108706	-0.506804	-0.698975	-0.394043	0.441162	-0.227452	-0.681220	0.034592	-0.694988
23914		0.770388	-1.670350	1.025908	0.288940	-0.030314	-0.736958	-0.693604	-0.406250	0.465820	-0.231304	-0.682603	0.026011	-0.692730
23915		0.932012	-2.068960	0.284251	0.538692	-0.108226	-1.057325	-0.685303	-0.416260	0.460449	-0.235734	-0.685381	0.012754	-0.688854
23916		4.385236	0.123432	0.630012	1.406328	-0.520182	-2.653878	-0.644043	-0.447998	0.502197	-0.246217	-0.693949	-0.020416	-0.676310
23917		11.154995	-0.976704	0.783692	1.586944	-0.865845	-2.746723	-0.606689	-0.478271	0.531006	-0.255619	-0.704895	-0.054828	-0.659376
23918		21.672808	11.046244	-3.389015	1.896567	-0.253479	-1.700909	-0.577148	-0.480713	0.563477	-0.252920	-0.711558	-0.084415	-0.650070
23919		23.014673	21.026176	-4.599381	0.507393	-0.388736	-1.048753	-0.570801	-0.482910	0.582031	-0.257478	-0.715218	-0.096194	-0.642584
23920		21.360389	28.636047	-0.165239	-0.058810	-0.042639	-0.194764	-0.567627	-0.490967	0.578613	-0.259621	-0.715190	-0.097113	-0.641615
23921		14.494694	33.461439	-3.934836	-1.302256	0.174444	1.274788	-0.586914	-0.492188	0.561035	-0.260753	-0.710951	-0.075703	-0.648710
23922		18.852905	15.343218	-2.793962	-2.039085	0.218454	2.424625	-0.606934	-0.479248	0.531250	-0.258887	-0.704277	-0.038203	-0.659933
23923		14.765862	2.496040	-1.591056	-2.875999	0.398228	2.916952	-0.647461	-0.458252	0.485107	-0.260000	-0.692149	0.010307	-0.673219
23924		6.685103	-8.891290	-3.754012	-3.488948	0.244120	3.283363	-0.683838	-0.429443	0.434570	-0.262318	-0.677073	0.067426	-0.684263
23925		5.142257	-14.267267	1.212491	-0.947257	-0.200048	2.047501	-0.701904	-0.403564	0.430176	-0.252314	-0.673698	0.093335	-0.688301
23926		0.494053	-0.602933	-0.171068	-0.515356	-0.379301	-0.303960	-0.695312	-0.409424	0.426025	-0.258588	-0.675688	0.096331	-0.683592
23927		1.411543	-2.583579	0.988898	-0.483125	-0.390876	-0.861731	-0.688721	-0.435547	0.435059	-0.269302	-0.678463	0.094365	-0.676949
23928		0.382356	-0.745055	1.729711	0.434689	-0.123845	-0.812667	-0.679199	-0.452393	0.436035	-0.272161	-0.681903	0.084203	-0.673681
23929		0.608962	-1.610692	1.685443	1.002850	0.100683	-0.879242	-0.675781	-0.456299	0.446533	-0.271044	-0.685296	0.068031	-0.672515
23930		0.237369	-0.354717	0.957659	0.897982	0.090135	-1.029885	-0.655273	-0.463379	0.457275	-0.271985	-0.688358	0.051457	-0.670477
23931		0.337488	0.379678	1.153860	0.428656	-0.016391	-1.213631	-0.646973	-0.476074	0.457520	-0.278369	-0.690654	0.037569	-0.666406
23932		0.097183	1.023805	0.961995	-0.050028	-0.141663	-1.344564	-0.614990	-0.503906	0.463379	-0.289832	-0.692198	0.026973	-0.660403
23933		-0.053792	1.039940	1.839708	-0.699839	-0.424515	-1.595518	-0.608887	-0.539062	0.471436	-0.308817	-0.693543	0.020573	-0.650544
23934		7.428618	-2.470642	-2.088980	0.290314	-0.548076	-2.479238	-0.562988	-0.577393	0.487549	-0.326077	-0.699415	-0.001129	-0.635997
23935		11.232703	2.587152	-2.019750	0.894245	-0.193234	-2.496961	-0.527100	-0.603516	0.510498	-0.337998	-0.704206	-0.029051	-0.623705
23936		23.156652	5.290114	-6.784570	1.424733	-0.620105	-1.246191	-0.501221	-0.605469	0.547607	-0.335344	-0.714434	-0.048275	-0.612207
23937		22.545523	20.404457	-3.380234	0.217794	-0.592517	-1.120207	-0.468018	-0.610840	0.556152	-0.342300	-0.719176	-0.057215	-0.601949
23938		16.891602	24.554839	-0.588312	1.031728	0.445179	-0.191028	-0.476807	-0.598633	0.567871	-0.334087	-0.720086	-0.068406	-0.604304
23939		12.119991	31.257204	-0.999606	0.252732	0.450013	1.163061	-0.499756	-0.583984	0.571533	-0.322546	-0.718679	-0.061611	-0.612919
23940		21.230657	19.148367	5.132026	-0.057536	0.389936	2.336245	-0.530273	-0.544678	0.555176	-0.304677	-0.716955	-0.041728	-0.625625
23941		21.291786	1.397085	4.320731	-1.026190	0.605572	2.522186	-0.579346	-0.517334	0.520020	-0.293643	-0.709193	-0.013374	-0.640812
23942		10.517854	-10.187945	-1.854235	-1.277758	1.009510	2.812788	-0.628174	-0.494385	0.491211	-0.282013	-0.696299	0.018151	-0.659778
23943		4.779520	-8.917128	-0.530491	-0.361051	0.698212	2.329070	-0.655273	-0.455566	0.455322	-0.265948	-0.688412	0.039047	-0.673674
23944		1.141443	-3.743076	0.995607	0.656212	0.731174	1.134851	-0.680420	-0.426025	0.454102	-0.251101	-0.683749	0.041111	-0.683920
23945		-1.536440	3.995012	-0.590321	0.206798	0.329648	0.443103	-0.682617	-0.414062	0.448486	-0.245655	-0.681331	0.042269	-0.688226
23946		-0.300721	2.336805	-1.319190	-0.257308	0.106964	0.757910	-0.685059	-0.407959	0.435547	-0.241315	-0.679186	0.050750	-0.691302
23947		-0.056723	1.036445	-0.101913	-0.459121	0.071100	0.935289	-0.701416	-0.397461	0.428955	-0.237158	-0.676528	0.062629	-0.694366
23948		0.248503	-0.402915	0.665186	-0.869732	-0.129885	0.862698	-0.707764	-0.384033	0.430176	-0.236865	-0.674314	0.078003	-0.695061
23949		0.823788	-1.779050	0.837259	-0.587472	0.053347	0.702514	-0.719727	-0.377197	0.432617	-0.235648	-0.671387	0.088939	-0.696993
23950		0.278572	-3.203885	1.743072	-0.300734	0.146445	0.331279	-0.726807	-0.381104	0.419189	-0.235332	-0.668853	0.093971	-0.698873
23951		1.299618	-4.823411	1.219504	1.015699	0.379259	-0.331812	-0.719482	-0.367676	0.428711	-0.230101	-0.668847	0.081333	-0.702198
23952		4.547103	8.384311	-4.406759	2.980491	0.043359	-2.937482	-0.696777	-0.392578	0.459229	-0.230605	-0.679116	0.030519	-0.696198
23953		10.261094	9.693341	-0.190790	0.374079	-0.349278	-2.379046	-0.665527	-0.440674	0.479980	-0.247810	-0.683847	0.008163	-0.686205
23954		26.887760	-12.863601	-10.569328	0.403788	-0.509751	-1.191122	-0.647705	-0.450439	0.503662	-0.254436	-0.689523	-0.003844	-0.678089
23955		38.858372	-6.749598	9.336229	1.838139	-0.131788	-1.541745	-0.618896	-0.461670	0.516602	-0.251489	-0.696166	-0.032101	-0.671621
23956		4.203206	34.476334	3.061854	3.096475	0.445154	-1.314068	-0.626465	-0.436279	0.534912	-0.235189	-0.701087	-0.070544	-0.669468
23957		-3.535642	29.813094	-5.913147	-0.617005	-0.095600	-0.043322	-0.628662	-0.456055	0.528076	-0.240988	-0.700040	-0.065309	-0.669032
23958		12.168273	8.855375	-3.883515	-1.157364	-0.046892	1.062851	-0.629883	-0.446045	0.527588	-0.242176	-0.697676	-0.046158	-0.672657
23959		11.642207	1.279465	-0.520834	0.067760	0.477277	1.177872	-0.639648	-0.430664	0.519287	-0.231302	-0.694484	-0.037951	-0.680259
23960		7.720368	4.478641	1.217294	-0.035437	0.474357	1.198191	-0.658691	-0.406250	0.512695	-0.221118	-0.690858	-0.028645	-0.687751
23961		7.395798	0.967062	0.296621	0.126355	0.508788	1.225821	-0.678467	-0.381592	0.500488	-0.209200	-0.687207	-0.020605	-0.695383
23962		7.112042	-1.362064	1.665156	-0.265147	0.246311	0.957196	-0.687988	-0.364502	0.494385	-0.202994	-0.684587	-0.010755	-0.700013
23963		8.454240	-4.145592	3.025470	-0.536754	-0.073418	0.626665	-0.686768	-0.358887	0.483643	-0.202010	-0.683942	-0.000534	-0.701010
23964		9.696502	-1.892789	3.123696	-0.025637	0.029466	0.503346	-0.686523	-0.345947	0.484131	-0.197735	-0.683630	0.003945	-0.702521
23965		11.358032	-0.199638	-0.007623	0.733668	0.079879	0.296600	-0.698730	-0.334961	0.494873	-0.188766	-0.684719	-0.000127	-0.703937
23966		9.753063	4.394842	1.230921	0.151728	-0.056964	0.213925	-0.697266	-0.328613	0.502441	-0.185500	-0.685602	0.000564	-0.703946
23967		9.365830	3.188820	2.874321	-0.267309	-0.120577	0.176455	-0.698975	-0.325928	0.495850	-0.186144	-0.686068	0.004742	-0.703305
23968		9.386950	2.261971	2.209629	-0.234579	-0.101333	0.209062	-0.695312	-0.332031	0.493652	-0.186218	-0.686415	0.008877	-0.702907
23969		9.464694	2.635668	0.032194	-0.140927	-0.084867	0.222481	-0.701660	-0.320068	0.494873	-0.185391	-0.686821	0.012277	-0.702678
23970		9.651776	1.692751	-0.811097	-0.223423	-0.090373	0.203445	-0.702148	-0.330322	0.497314	-0.185410	-0.687075	0.016243	-0.702344
23971		9.457890	1.251090	-0.288824	-0.083498	-0.083845	0.194794	-0.700439	-0.326904	0.501953	-0.184329	-0.687592	0.018907	-0.702056
23972		9.452100	1.186763	0.810274	-0.065463	-0.037626	0.250368	-0.703125	-0.308350	0.494385	-0.182609	-0.687732	0.021780	-0.702285
23973		9.560596	2.106088	1.090505	-0.119517	-0.009452	0.190855	-0.702881	-0.317139	0.496094	-0.181860	-0.687500	0.024559	-0.702615
23974		9.802529	1.701108	-0.024176	-0.068210	0.010705	0.115353	-0.704590	-0.314209	0.497803	-0.181359	-0.687231	0.026199	-0.702948
23975		9.675718	1.299370	-1.397126	0.118505	0.027117	0.057309	-0.704834	-0.311279	0.495605	-0.179766	-0.687259	0.025662	-0.703350
23976		9.982512	1.175404	-0.668271	0.123575	0.054305	0.050433	-0.694336	-0.313232	0.501465	-0.178201	-0.687058	0.024974	-0.703968
23977		10.335863	1.735666	0.487744	0.138761	0.124722	0.005683	-0.692627	-0.307129	0.499023	-0.176930	-0.686298	0.023609	-0.705077
23978		9.976320	2.460405	0.235957	-0.113730	0.106368	-0.053211	-0.701904	-0.312744	0.494385	-0.178333	-0.685155	0.024006	-0.705822
23979		9.687754	1.709610	0.303169	-0.309629	0.100813	-0.108390	-0.704346	-0.311279	0.487549	-0.181903	-0.683622	0.025684	-0.706337
23980		10.043018	0.976574	-0.060127	-0.282664	0.142351	-0.163779	-0.708740	-0.315674	0.482910	-0.185732	-0.681785	0.026556	-0.707084
23981		9.791957	2.227855	0.356051	-0.270775	0.157892	-0.208438	-0.701416	-0.333252	0.485596	-0.189855	-0.679838	0.026914	-0.707850
23982		9.382521	2.239947	1.136816	-0.298414	0.110794	-0.215947	-0.707520	-0.335938	0.474365	-0.194274	-0.678239	0.027566	-0.708159
23983		9.272856	1.822213	1.832486	-0.221463	0.042188	-0.210418	-0.704834	-0.337402	0.469971	-0.197959	-0.677411	0.027752	-0.707924
23984		9.877265	0.253568	0.926906	0.012061	-0.040585	-0.259151	-0.705322	-0.339600	0.479004	-0.200061	-0.677900	0.025660	-0.706944
23985		9.932693	0.153019	0.515214	0.138073	-0.099958	-0.366851	-0.703613	-0.345703	0.468506	-0.202022	-0.679256	0.021695	-0.705214
23986		9.602927	0.638370	1.312712	0.163432	-0.140296	-0.470064	-0.690186	-0.351562	0.483887	-0.204667	-0.681029	0.016758	-0.702873
23987		8.772998	3.352177	0.654213	0.492302	-0.196856	-0.464611	-0.690430	-0.363037	0.490967	-0.204441	-0.684111	0.009121	-0.700080
23988		8.644544	5.669711	-1.687303	-0.120589	-0.510862	-0.275547	-0.684814	-0.364502	0.498779	-0.207760	-0.688305	0.009269	-0.694972
23989		9.007525	2.846306	-1.832981	-0.286357	-0.468049	0.122485	-0.674805	-0.366455	0.499268	-0.209031	-0.691614	0.014149	-0.691214
23990		8.477139	3.876569	-1.025507	0.312596	-0.165745	0.497040	-0.680908	-0.355957	0.503662	-0.201934	-0.693772	0.016308	-0.691113
23991		8.324449	6.150593	3.771927	-0.305734	-0.118146	0.338448	-0.678223	-0.348633	0.511963	-0.201569	-0.693954	0.022308	-0.690869
23992		8.842965	4.843037	7.064667	-0.365378	0.152553	0.173150	-0.677246	-0.351562	0.501221	-0.203207	-0.691677	0.026659	-0.692517
23993		10.016262	4.202183	0.173400	0.042795	0.110769	0.336195	-0.689209	-0.345703	0.492920	-0.199884	-0.690719	0.028970	-0.694345
23994		10.088040	2.638867	-2.456068	-0.717775	-0.082215	0.341941	-0.686035	-0.347656	0.491699	-0.202993	-0.689483	0.038411	-0.694213
23995		9.578591	0.082386	-0.291203	-0.355407	-0.003932	0.345645	-0.687256	-0.343262	0.495117	-0.202972	-0.688445	0.044536	-0.694884
23996		9.213325	0.563217	1.272446	0.054349	0.009731	0.313580	-0.698242	-0.339111	0.492920	-0.199702	-0.688333	0.046791	-0.695793
23997		9.912365	0.693383	1.809286	0.107481	-0.045355	0.236243	-0.691650	-0.329346	0.492188	-0.196614	-0.688861	0.048072	-0.696062
23998		10.083132	1.312676	0.736171	0.262124	-0.005575	0.175742	-0.698730	-0.335449	0.495361	-0.192741	-0.689452	0.047389	-0.696607
23999		9.570922	2.266046	-0.567044	0.032293	-0.048423	0.111660	-0.693115	-0.318604	0.505371	-0.191397	-0.689890	0.048284	-0.696482
24000		9.952905	1.236757	-0.887600	-0.067092	-0.051658	0.073899	-0.699219	-0.324219	0.488037	-0.191213	-0.690152	0.049686	-0.696174
24001		9.648457	2.515323	0.135551	-0.079643	-0.024282	0.078398	-0.698730	-0.323242	0.496338	-0.191131	-0.690124	0.051216	-0.696114
24002		9.640859	1.968078	0.797187	-0.034501	0.005301	0.114582	-0.693115	-0.316895	0.495850	-0.190358	-0.689929	0.052577	-0.696418
24003		9.560273	1.748448	0.633124	0.071482	0.031309	0.139102	-0.691162	-0.309570	0.504395	-0.188469	-0.689745	0.053153	-0.697070
24004		9.947857	1.201724	0.072817	0.129408	0.039085	0.129375	-0.695312	-0.311768	0.494629	-0.186162	-0.689642	0.053104	-0.697795
24005		9.852861	0.943781	0.290140	0.082009	0.039405	0.080287	-0.708008	-0.304443	0.496582	-0.184705	-0.689445	0.053076	-0.698379
24006		9.665165	0.927965	0.338434	0.159132	0.054177	0.038196	-0.694092	-0.306885	0.498779	-0.182947	-0.689317	0.051970	-0.699051
24007		9.618342	1.823729	0.379427	0.089384	0.032069	0.005970	-0.698730	-0.296875	0.508301	-0.182074	-0.689253	0.051262	-0.699394
24008		9.788340	1.890206	0.217092	0.038405	0.028583	-0.005869	-0.703125	-0.301758	0.497803	-0.181719	-0.689116	0.050875	-0.699649
24009		9.786149	1.597969	0.219651	-0.006963	0.043320	-0.000265	-0.701904	-0.301270	0.500732	-0.181729	-0.688731	0.050924	-0.700022
24010		9.406658	1.489595	0.641610	0.012560	0.054832	-0.005661	-0.699707	-0.301025	0.498291	-0.181623	-0.688298	0.050726	-0.700490
24011		9.509628	1.627402	0.578668	0.063548	0.067062	-0.014731	-0.699951	-0.299805	0.496338	-0.181169	-0.687878	0.049980	-0.701073
24012		9.651925	1.915484	0.189168	0.030708	0.051170	-0.021338	-0.699707	-0.303223	0.503662	-0.181045	-0.687526	0.049502	-0.701484
24013		9.724583	1.715396	0.404622	0.010043	0.059674	-0.010868	-0.700195	-0.303711	0.491943	-0.181017	-0.687054	0.049277	-0.701969
24014		9.501451	1.876525	0.665155	0.002573	0.040287	-0.004876	-0.703125	-0.298584	0.496094	-0.180994	-0.686720	0.049225	-0.702306
24015		9.581304	1.484383	0.598689	0.071694	0.035719	-0.002440	-0.706299	-0.303711	0.487793	-0.180340	-0.686585	0.048579	-0.702652
24016		9.690729	1.821963	0.507054	0.094075	0.039073	0.004053	-0.706299	-0.298584	0.495117	-0.179451	-0.686454	0.047804	-0.703060
24017		9.641437	2.092446	0.494876	0.059961	0.051252	0.017717	-0.700439	-0.296387	0.494385	-0.178733	-0.686139	0.047404	-0.703577
24018		9.546039	1.949881	0.551181	0.002860	0.043062	0.029657	-0.700195	-0.303711	0.487305	-0.178397	-0.685765	0.047629	-0.704011
24019		9.579249	1.551428	0.468263	0.018058	0.043457	0.031171	-0.702148	-0.287109	0.479736	-0.177937	-0.685414	0.047753	-0.704462
24020		9.622265	1.458966	0.616086	0.013053	0.038359	0.019783	-0.710205	-0.283691	0.493896	-0.177583	-0.685095	0.047798	-0.704858
24021		9.656168	1.545827	0.552491	-0.004024	0.045138	0.003576	-0.703125	-0.291504	0.482178	-0.177509	-0.684699	0.047824	-0.705259
24022		9.689303	1.705223	0.411826	-0.046678	0.041309	-0.006262	-0.710938	-0.297852	0.482666	-0.177912	-0.684241	0.048183	-0.705578
24023		9.652122	1.635741	0.636501	-0.105406	0.024454	-0.015302	-0.707764	-0.295898	0.487061	-0.178892	-0.683801	0.049026	-0.705698
24024		9.653877	1.485851	0.694811	-0.063217	0.029156	-0.018825	-0.712646	-0.299561	0.489014	-0.179539	-0.683425	0.049450	-0.705869
24025		9.722030	1.641865	0.549283	-0.037208	0.039622	-0.016444	-0.713867	-0.304688	0.486572	-0.179951	-0.683013	0.049644	-0.706149
24026		9.681487	1.761618	0.457112	-0.037654	0.050066	-0.012181	-0.703125	-0.297852	0.488525	-0.180346	-0.682502	0.049866	-0.706527
24027		9.694470	1.684340	0.547960	-0.063214	0.046610	-0.013916	-0.704346	-0.303711	0.492676	-0.180965	-0.681977	0.050300	-0.706844
24028		9.632443	1.501248	0.608901	-0.072819	0.044373	-0.018661	-0.710693	-0.298584	0.480713	-0.181718	-0.681458	0.050795	-0.707116
24029		9.637873	1.533757	0.714347	-0.049996	0.032972	-0.027043	-0.706543	-0.299072	0.485840	-0.182323	-0.681079	0.051022	-0.707309
24030		9.652834	1.713684	0.733311	-0.044599	0.034522	-0.025123	-0.708252	-0.304932	0.488525	-0.182871	-0.680707	0.051220	-0.707511
24031		9.617532	1.647075	0.680949	-0.044977	0.035725	-0.023663	-0.708496	-0.302490	0.473877	-0.183419	-0.680326	0.051442	-0.707720
24032		9.639146	1.605181	0.699227	-0.055253	0.030414	-0.029651	-0.712646	-0.304199	0.470459	-0.184096	-0.679954	0.051705	-0.707882
24033		9.625323	1.654891	0.775773	-0.038183	0.032021	-0.025708	-0.703857	-0.306641	0.469482	-0.184591	-0.679599	0.051843	-0.708085
24034		9.546307	1.767683	0.931947	-0.050654	0.018554	-0.020739	-0.706787	-0.300537	0.476318	-0.185153	-0.679338	0.052180	-0.708164
24035		9.543983	1.691279	0.847224	-0.011426	0.023551	-0.019559	-0.704590	-0.304932	0.476318	-0.185356	-0.679129	0.052149	-0.708313
24036		9.582017	1.671704	0.708999	-0.006165	0.028575	-0.016169	-0.711426	-0.311279	0.479980	-0.185499	-0.678888	0.052101	-0.708510
24037		9.610281	1.743433	0.685981	-0.018282	0.014966	-0.017909	-0.713867	-0.303711	0.471436	-0.185760	-0.678740	0.052186	-0.708577
24038		9.637311	1.692826	0.726302	-0.013561	0.013305	-0.015800	-0.704102	-0.312500	0.472900	-0.185938	-0.678604	0.052224	-0.708658
24039		9.593738	1.753926	0.811940	-0.030703	0.005331	-0.017907	-0.712158	-0.311035	0.478027	-0.186306	-0.678511	0.052449	-0.708634
24040		9.607129	1.586505	0.735539	-0.006802	0.010264	-0.018892	-0.706299	-0.314453	0.474121	-0.186471	-0.678430	0.052428	-0.708670
24041		9.646868	1.799385	0.698906	-0.013520	0.010484	-0.018317	-0.710449	-0.304443	0.473633	-0.186701	-0.678331	0.052485	-0.708700
24042		9.632295	1.693866	0.687071	-0.032657	0.007882	-0.021554	-0.706055	-0.302979	0.468262	-0.187090	-0.678209	0.052660	-0.708701
24043		9.604006	1.616479	0.691384	-0.018809	0.011066	-0.018928	-0.708984	-0.308594	0.473877	-0.187339	-0.678087	0.052724	-0.708747
24044		9.626806	1.767640	0.778119	-0.021030	0.005176	-0.019801	-0.714844	-0.304443	0.467285	-0.187622	-0.678017	0.052827	-0.708731
24045		9.631450	1.657093	0.706628	-0.001171	0.010538	-0.014786	-0.711426	-0.313477	0.470459	-0.187675	-0.677930	0.052762	-0.708806
24046		9.600089	1.866337	0.731598	-0.013773	0.004209	-0.011975	-0.708740	-0.315430	0.465820	-0.187834	-0.677874	0.052875	-0.708808
24047		9.612286	1.657351	0.704607	-0.021433	-0.000135	-0.015067	-0.705322	-0.315918	0.473633	-0.188090	-0.677837	0.053045	-0.708763
24048		9.599985	1.657934	0.747804	-0.015004	0.003774	-0.015259	-0.705566	-0.309326	0.470703	-0.188302	-0.677795	0.053157	-0.708739
24049		9.612983	1.730686	0.771611	-0.026031	0.004266	-0.019134	-0.710205	-0.316895	0.470215	-0.188622	-0.677721	0.053313	-0.708713
24050		9.605559	1.700806	0.795539	-0.007228	-0.003872	-0.015330	-0.708008	-0.306396	0.481201	-0.188756	-0.677756	0.053364	-0.708640
24051		9.587769	1.718881	0.871803	0.003247	-0.010575	-0.014682	-0.712646	-0.315186	0.464600	-0.188769	-0.677893	0.053327	-0.708508
24052		9.587108	1.678521	0.739107	0.005197	-0.009270	-0.015985	-0.711426	-0.312256	0.464355	-0.188789	-0.677994	0.053262	-0.708411
24053		9.613642	1.764033	0.735556	0.010758	-0.011463	-0.012700	-0.703125	-0.318848	0.479004	-0.188724	-0.678126	0.053175	-0.708309
24054		9.640461	1.867276	0.746758	-0.003387	-0.011784	-0.008354	-0.704346	-0.314209	0.473877	-0.188776	-0.678253	0.053288	-0.708165
24055		9.685392	1.677154	0.766791	-0.002851	-0.008821	-0.003500	-0.711914	-0.307129	0.468750	-0.188764	-0.678343	0.053413	-0.708072
24056		9.610150	1.639604	0.736632	0.004120	-0.010177	-0.003319	-0.709961	-0.311768	0.471924	-0.188657	-0.678446	0.053446	-0.708000
24057		9.580684	1.814173	0.714978	-0.002633	-0.009507	-0.004663	-0.714111	-0.305176	0.472168	-0.188638	-0.678534	0.053545	-0.707913
24058		9.597304	1.732437	0.675513	-0.013860	-0.012063	-0.003815	-0.704102	-0.306885	0.469238	-0.188680	-0.678614	0.053732	-0.707811
24059		9.601422	1.712222	0.718280	-0.018782	-0.013304	-0.002599	-0.710938	-0.317383	0.479492	-0.188769	-0.678697	0.053993	-0.707687
24060		9.628482	1.666813	0.746960	-0.008707	-0.015229	-0.002651	-0.705078	-0.310791	0.467529	-0.188798	-0.678830	0.054193	-0.707537
24061		9.668887	1.719409	0.658221	0.004904	-0.014113	0.000854	-0.708252	-0.317383	0.473877	-0.188664	-0.678969	0.054282	-0.707433
24062		9.643742	1.702328	0.651586	-0.012969	-0.012783	-0.003495	-0.702637	-0.313232	0.469482	-0.188740	-0.679062	0.054508	-0.707305
24063		9.647910	1.627972	0.718847	0.011036	0.000899	-0.004134	-0.703125	-0.310303	0.471436	-0.188621	-0.679091	0.054477	-0.707312
24064		9.598151	1.718796	0.714627	0.013025	-0.007115	-0.004705	-0.709961	-0.309570	0.471924	-0.188475	-0.679198	0.054436	-0.707251
24065		9.598643	1.660874	0.703300	0.014451	-0.012493	-0.007320	-0.711914	-0.312988	0.481934	-0.188325	-0.679351	0.054361	-0.707149
24066		9.644259	1.685824	0.664186	0.022136	-0.007992	-0.005622	-0.705566	-0.313965	0.472168	-0.188110	-0.679495	0.054235	-0.707078
24067		9.649876	1.804183	0.693767	0.018949	-0.004750	-0.001485	-0.708008	-0.314941	0.470459	-0.187897	-0.679589	0.054172	-0.707049
24068		9.639359	1.791103	0.670292	0.010850	-0.002750	0.003876	-0.705811	-0.309814	0.472168	-0.187707	-0.679637	0.054220	-0.707050
24069		9.605211	1.678014	0.656404	0.005514	-0.008220	0.004619	-0.711426	-0.303467	0.475586	-0.187540	-0.679726	0.054323	-0.707001
24070		9.609459	1.638052	0.684257	0.003197	-0.010214	0.001044	-0.708252	-0.311523	0.486816	-0.187394	-0.679829	0.054395	-0.706935
24071		9.639973	1.643456	0.682230	0.009840	-0.000624	-0.002204	-0.708740	-0.303223	0.475586	-0.187265	-0.679887	0.054397	-0.706913
24072		9.625041	1.578909	0.622926	0.004707	-0.006167	-0.005926	-0.717773	-0.306641	0.473633	-0.187175	-0.679965	0.054393	-0.706863
24073		9.618886	1.719255	0.741883	0.008637	-0.006519	-0.009679	-0.700928	-0.309570	0.475830	-0.187082	-0.680043	0.054319	-0.706818
24074		9.636104	1.690237	0.715249	0.009045	-0.008035	-0.010623	-0.706299	-0.307373	0.475830	-0.187032	-0.680158	0.054275	-0.706723
24075		9.627034	1.739140	0.654419	0.010060	-0.009404	-0.009235	-0.700439	-0.312256	0.479736	-0.186943	-0.680281	0.054220	-0.706633
24076		9.587953	1.746763	0.633053	0.003959	-0.005810	-0.007946	-0.703857	-0.308350	0.473633	-0.186926	-0.680370	0.054250	-0.706550
24077		9.653985	1.722519	0.579902	0.004214	-0.004469	-0.004135	-0.702881	-0.306396	0.476318	-0.186852	-0.680429	0.054284	-0.706510
24078		9.676398	1.746286	0.658345	-0.014823	-0.011037	-0.004628	-0.699463	-0.316162	0.476318	-0.186935	-0.680508	0.054494	-0.706395
24079		9.604888	1.650819	0.644390	-0.007066	-0.009205	-0.006850	-0.706543	-0.306641	0.479736	-0.187015	-0.680594	0.054651	-0.706280
24080		9.609288	1.699731	0.646401	-0.004226	-0.011868	-0.006208	-0.710449	-0.302979	0.473145	-0.187016	-0.680707	0.054751	-0.706162
24081		9.599377	1.690034	0.690210	-0.018293	-0.014269	-0.009027	-0.708252	-0.309570	0.479736	-0.187135	-0.680793	0.054932	-0.706034
24082		9.652911	1.594004	0.651070	-0.011348	-0.006152	-0.010993	-0.713623	-0.301270	0.486572	-0.187249	-0.680839	0.055046	-0.705950
24083		9.676900	1.655122	0.647211	-0.004116	-0.002151	-0.013341	-0.708496	-0.307861	0.477295	-0.187283	-0.680876	0.055031	-0.705906
24084		9.652084	1.710670	0.671536	-0.016430	0.000075	-0.014630	-0.709717	-0.307861	0.477783	-0.187468	-0.680853	0.055137	-0.705872
24085		9.612732	1.646535	0.662094	-0.021033	0.001357	-0.018431	-0.709473	-0.308350	0.479248	-0.187723	-0.680809	0.055244	-0.705838
24086		9.629350	1.711157	0.645237	-0.021685	0.004172	-0.019627	-0.705078	-0.313232	0.485352	-0.187997	-0.680744	0.055342	-0.705820
24087		9.628813	1.752470	0.676969	-0.026701	0.002955	-0.016166	-0.710449	-0.300293	0.474121	-0.188308	-0.680693	0.055541	-0.705771
24088		9.633683	1.848417	0.664146	-0.005879	0.007059	-0.007569	-0.709473	-0.310059	0.479004	-0.188304	-0.680620	0.055558	-0.705841
24089		9.604181	1.779339	0.625376	-0.010890	-0.000667	-0.000851	-0.708984	-0.306641	0.473633	-0.188319	-0.680610	0.055733	-0.705833
24090		9.627460	1.680736	0.621096	-0.013421	0.003001	0.002861	-0.701172	-0.306885	0.481934	-0.188314	-0.680549	0.055940	-0.705877
24091		9.627302	1.703731	0.669065	-0.014291	0.000759	0.001399	-0.703125	-0.302979	0.475586	-0.188341	-0.680535	0.056163	-0.705865
24092		9.632355	1.672543	0.650972	-0.013625	0.001343	-0.000422	-0.704346	-0.308350	0.474609	-0.188360	-0.680504	0.056345	-0.705875
24093		9.672473	1.621199	0.645340	0.000119	0.002602	-0.000557	-0.715820	-0.309326	0.470459	-0.188286	-0.680489	0.056421	-0.705903
24094		9.640128	1.697887	0.633038	-0.001654	-0.002174	-0.000710	-0.704590	-0.310547	0.469238	-0.188211	-0.680487	0.056508	-0.705918
24095		9.630034	1.649462	0.649134	-0.002325	-0.001992	-0.003579	-0.705078	-0.304443	0.482910	-0.188195	-0.680497	0.056603	-0.705905
24096		9.635960	1.597642	0.651572	0.001311	0.001788	-0.006944	-0.706299	-0.310303	0.481445	-0.188145	-0.680516	0.056598	-0.705901
24097		9.620703	1.687295	0.677237	-0.014249	0.002730	-0.012135	-0.714600	-0.307129	0.481689	-0.188299	-0.680487	0.056707	-0.705879
24098		9.646676	1.661677	0.656443	-0.014234	0.002878	-0.013521	-0.703613	-0.312500	0.482910	-0.188434	-0.680447	0.056774	-0.705876
24099		9.591371	1.730193	0.697198	-0.009319	0.000880	-0.013122	-0.702393	-0.312744	0.482422	-0.188565	-0.680455	0.056845	-0.705828
24100		9.625928	1.693964	0.694207	0.002148	-0.006826	-0.011667	-0.708984	-0.317139	0.475830	-0.188583	-0.680558	0.056848	-0.705724
24101		9.680059	1.722474	0.659574	0.007447	-0.002404	-0.004941	-0.700439	-0.302490	0.473145	-0.188511	-0.680602	0.056860	-0.705699
24102		9.635228	1.708741	0.646360	-0.008995	0.001113	-0.004081	-0.706055	-0.308105	0.473633	-0.188524	-0.680584	0.056972	-0.705704
24103		9.619523	1.617170	0.622564	0.000324	0.002689	-0.006412	-0.705322	-0.309570	0.479980	-0.188495	-0.680568	0.056992	-0.705726
24104		9.608487	1.666906	0.678237	-0.001136	0.002938	-0.008530	-0.702637	-0.311035	0.479004	-0.188503	-0.680564	0.057011	-0.705726
24105		9.668628	1.623720	0.633108	0.013044	0.005333	-0.007930	-0.708252	-0.308105	0.484131	-0.188398	-0.680574	0.056916	-0.705752
24106		9.665758	1.712417	0.653721	0.005235	0.009689	-0.006198	-0.705566	-0.318115	0.470459	-0.188321	-0.680529	0.056870	-0.705819
24107		9.621873	1.695748	0.679065	-0.005310	0.007823	-0.008539	-0.710938	-0.305176	0.478027	-0.188415	-0.680448	0.056957	-0.705866
24108		9.607554	1.596763	0.661032	-0.000813	0.008111	-0.011880	-0.703857	-0.311768	0.478516	-0.188422	-0.680389	0.056904	-0.705925
24109		9.612748	1.763090	0.675620	-0.007028	0.000999	-0.015917	-0.701660	-0.314453	0.472656	-0.188559	-0.680394	0.056931	-0.705882
24110		9.639200	1.646698	0.647479	0.001052	0.001380	-0.016840	-0.706299	-0.310791	0.482178	-0.188655	-0.680403	0.056896	-0.705850
24111		9.644204	1.670831	0.642125	0.013631	0.007024	-0.014974	-0.710205	-0.314697	0.480225	-0.188599	-0.680408	0.056722	-0.705874
24112		9.605740	1.676663	0.660097	-0.002673	0.001789	-0.018944	-0.709717	-0.310547	0.473633	-0.188725	-0.680411	0.056682	-0.705841
24113		9.620260	1.668690	0.695097	0.005508	-0.001111	-0.020478	-0.709473	-0.310791	0.472412	-0.188775	-0.680445	0.056546	-0.705806
24114		9.627595	1.731278	0.673938	0.003043	-0.000117	-0.020681	-0.706787	-0.303223	0.481445	-0.188850	-0.680461	0.056430	-0.705780
24115		9.643698	1.696056	0.698520	0.007874	0.003817	-0.017990	-0.708496	-0.313965	0.474854	-0.188823	-0.680480	0.056249	-0.705782
24116		9.619094	1.779643	0.688507	-0.006122	-0.005472	-0.017044	-0.706543	-0.314209	0.476074	-0.188956	-0.680526	0.056272	-0.705700
24117		9.600242	1.689310	0.639240	-0.005079	-0.006691	-0.017043	-0.710205	-0.311279	0.471191	-0.189083	-0.680591	0.056291	-0.705602
24118		9.620664	1.700854	0.666958	-0.003357	-0.004690	-0.017183	-0.708496	-0.312012	0.480225	-0.189176	-0.680624	0.056269	-0.705548
24119		9.647945	1.673209	0.680617	-0.004730	-0.001989	-0.018475	-0.711670	-0.320312	0.475098	-0.189295	-0.680657	0.056243	-0.705486
24120		9.649248	1.682248	0.668342	0.010041	0.006332	-0.014095	-0.703125	-0.311279	0.475098	-0.189295	-0.680627	0.056141	-0.705523
24121		9.617575	1.785919	0.659198	0.008192	0.004981	-0.015027	-0.709961	-0.312988	0.476562	-0.189288	-0.680622	0.056022	-0.705539
24122		9.607048	1.670804	0.647846	0.003487	-0.003012	-0.013637	-0.711670	-0.312500	0.470703	-0.189296	-0.680667	0.055969	-0.705498
24123		9.633641	1.696795	0.637695	0.010056	-0.002808	-0.012523	-0.707520	-0.312256	0.476562	-0.189236	-0.680706	0.055864	-0.705485
24124		9.657361	1.690715	0.675017	0.003569	0.002844	-0.015824	-0.713379	-0.311279	0.478027	-0.189268	-0.680704	0.055779	-0.705484
24125		9.636264	1.733186	0.627217	0.009859	0.001571	-0.017145	-0.707031	-0.316895	0.476807	-0.189236	-0.680724	0.055612	-0.705487
24126		9.603839	1.754040	0.606436	0.002364	0.001930	-0.017192	-0.708252	-0.319580	0.465332	-0.189318	-0.680729	0.055554	-0.705465
24127		9.606184	1.796584	0.660608	-0.009618	0.001984	-0.013896	-0.702393	-0.316650	0.485352	-0.189494	-0.680668	0.055650	-0.705469
24128		9.626912	1.750646	0.646038	-0.005098	0.006644	-0.007798	-0.712646	-0.312744	0.477783	-0.189560	-0.680641	0.055727	-0.705471
24129		9.675968	1.741630	0.674128	-0.006036	0.007063	-0.005344	-0.712158	-0.311035	0.476318	-0.189570	-0.680567	0.055793	-0.705534
24130		9.645083	1.686462	0.663234	-0.003647	0.003769	-0.007358	-0.705566	-0.312744	0.484131	-0.189568	-0.680527	0.055820	-0.705572
24131		9.628620	1.655228	0.648305	0.008763	0.004844	-0.009920	-0.705078	-0.310547	0.477295	-0.189502	-0.680543	0.055731	-0.705581
24132		9.620988	1.766811	0.692175	-0.002510	0.008555	-0.010930	-0.705078	-0.311523	0.478760	-0.189538	-0.680481	0.055719	-0.705632
24133		9.601214	1.646811	0.611482	-0.001875	0.003875	-0.016113	-0.711670	-0.316650	0.477051	-0.189615	-0.680471	0.055672	-0.705624
24134		9.636199	1.626389	0.592770	-0.000925	0.001117	-0.023024	-0.712402	-0.313477	0.483643	-0.189760	-0.680474	0.055581	-0.705590
24135		9.644380	1.692664	0.708790	0.005023	0.001187	-0.024246	-0.707275	-0.306152	0.480225	-0.189837	-0.680510	0.055400	-0.705549
24136		9.613416	1.757330	0.704565	0.015938	-0.001328	-0.021752	-0.708984	-0.304688	0.482422	-0.189764	-0.680592	0.055120	-0.705511
24137		9.617901	1.750422	0.699660	0.025543	0.001166	-0.018338	-0.705078	-0.308594	0.478760	-0.189565	-0.680676	0.054762	-0.705512
24138		9.629841	1.786771	0.691352	0.023270	0.003808	-0.015258	-0.698486	-0.315430	0.477295	-0.189399	-0.680723	0.054480	-0.705532
24139		9.615690	1.808106	0.643682	0.021419	0.004939	-0.013124	-0.702393	-0.309814	0.475830	-0.189290	-0.680762	0.054287	-0.705539
24140		9.593796	1.790077	0.631809	0.001438	-0.000911	-0.013116	-0.705566	-0.315430	0.473633	-0.189307	-0.680793	0.054245	-0.705508
24141		9.604982	1.516574	0.627048	-0.005085	-0.011861	-0.021798	-0.706543	-0.316650	0.477539	-0.189479	-0.680897	0.054242	-0.705361
24142		9.640566	1.601850	0.698257	-0.003346	-0.017029	-0.033917	-0.705078	-0.303955	0.472900	-0.189738	-0.681068	0.054132	-0.705135
24143		9.647099	1.764683	0.667650	0.019054	-0.006252	-0.033689	-0.711670	-0.319580	0.478027	-0.189735	-0.681185	0.053730	-0.705053
24144		9.615992	1.826359	0.630009	0.009998	-0.003163	-0.030556	-0.716064	-0.313232	0.478271	-0.189862	-0.681251	0.053500	-0.704974
24145		9.572324	1.822787	0.603238	0.016414	0.000069	-0.026062	-0.703613	-0.315674	0.472656	-0.189842	-0.681292	0.053193	-0.704962
24146		9.625366	1.837759	0.554119	0.012437	-0.001795	-0.025904	-0.708252	-0.313477	0.475098	-0.189908	-0.681346	0.052978	-0.704908
24147		9.638565	1.892409	0.665347	-0.004402	-0.000312	-0.021081	-0.707764	-0.321045	0.476074	-0.190044	-0.681342	0.052919	-0.704880
24148		9.586284	1.836581	0.657426	-0.004762	0.008494	-0.011788	-0.704834	-0.311035	0.472168	-0.190156	-0.681256	0.052967	-0.704929
24149		9.572368	1.805716	0.599009	-0.001450	0.007136	-0.011802	-0.706787	-0.316406	0.478516	-0.190181	-0.681186	0.052934	-0.704992
24150		9.584124	1.762429	0.613957	-0.020338	0.000307	-0.014555	-0.705322	-0.319580	0.478271	-0.190411	-0.681149	0.053082	-0.704955
24151		9.654332	1.680294	0.660221	-0.009774	0.008131	-0.014410	-0.709229	-0.313721	0.481445	-0.190577	-0.681071	0.053141	-0.704982
24152		9.656505	1.814152	0.677548	-0.011914	0.007481	-0.011932	-0.701660	-0.308105	0.477783	-0.190682	-0.680995	0.053186	-0.705023
24153		9.627537	1.815630	0.668004	-0.004987	0.011816	-0.008941	-0.700684	-0.319580	0.467041	-0.190687	-0.680901	0.053168	-0.705114
24154		9.575559	1.790188	0.659184	-0.006846	0.007523	-0.008775	-0.702148	-0.320312	0.469238	-0.190807	-0.680806	0.053281	-0.705165
24155		9.605760	1.747370	0.647576	0.002763	0.004934	-0.010105	-0.713135	-0.320801	0.477051	-0.190851	-0.680762	0.053299	-0.705193
24156		9.621493	1.824192	0.614081	0.001018	0.011589	-0.009628	-0.704102	-0.326904	0.480225	-0.190874	-0.680658	0.053285	-0.705289
24157		9.604525	1.784107	0.650030	-0.001827	0.010817	-0.007251	-0.708740	-0.321289	0.478760	-0.190964	-0.680582	0.053378	-0.705331
24158		9.594397	1.774217	0.698460	-0.005378	0.004654	-0.008333	-0.705078	-0.311035	0.478516	-0.191038	-0.680539	0.053459	-0.705346
24159		9.619443	1.756807	0.673764	0.003325	0.008194	-0.008009	-0.703857	-0.308838	0.481201	-0.190968	-0.680496	0.053390	-0.705412
24160		9.621858	1.824680	0.695348	0.001693	0.011271	-0.005362	-0.696777	-0.315918	0.477783	-0.190874	-0.680432	0.053334	-0.705504
24161		9.611736	1.761463	0.663166	0.004011	0.010657	-0.003451	-0.697510	-0.315186	0.481201	-0.190821	-0.680381	0.053349	-0.705566
24162		9.609390	1.757547	0.678037	0.000978	0.008369	-0.005754	-0.704834	-0.319092	0.468750	-0.190801	-0.680355	0.053365	-0.705595
24163		9.628665	1.770580	0.672224	0.001828	0.005350	-0.007649	-0.707275	-0.320068	0.479980	-0.190818	-0.680300	0.053397	-0.705641
24164		9.622409	1.725067	0.713654	-0.000217	0.004811	-0.008803	-0.703613	-0.315918	0.479736	-0.190848	-0.680279	0.053423	-0.705651
24165		9.683756	1.527566	0.711583	0.030276	0.005121	-0.014249	-0.707764	-0.316895	0.471436	-0.190645	-0.680340	0.053111	-0.705671
24166		9.720511	1.786910	0.712124	0.019208	-0.007889	-0.025131	-0.703125	-0.321045	0.473877	-0.190633	-0.680458	0.052849	-0.705580
24167		9.798100	1.553010	0.882320	-0.064305	-0.009457	-0.043001	-0.705322	-0.326172	0.476807	-0.191529	-0.680419	0.053213	-0.705348
24168		9.722711	1.414778	0.952564	-0.018654	0.047362	-0.058678	-0.707031	-0.311768	0.483398	-0.192232	-0.680002	0.052923	-0.705580
24169		9.703732	1.621311	0.824822	-0.014254	0.079954	-0.071894	-0.695801	-0.324219	0.473877	-0.192901	-0.679342	0.052275	-0.706082
24170		9.547561	1.738030	0.620780	-0.008317	0.088835	-0.078686	-0.701172	-0.320801	0.472412	-0.193712	-0.678617	0.051618	-0.706605
24171		9.485163	1.860337	0.386411	0.001885	0.069610	-0.078027	-0.706055	-0.326660	0.468018	-0.194367	-0.678075	0.050875	-0.706999
24172		9.497741	2.200059	0.174122	-0.045922	0.061636	-0.075149	-0.707031	-0.324219	0.473145	-0.195425	-0.677463	0.050626	-0.707312
24173		9.566561	2.483206	0.163702	-0.129178	0.064458	-0.057730	-0.706299	-0.327637	0.461670	-0.196993	-0.676632	0.051212	-0.707630
24174		9.580785	2.544804	0.351279	-0.202678	0.082026	-0.037306	-0.712891	-0.325195	0.457520	-0.199031	-0.675417	0.052595	-0.708118
24175		9.539750	2.372785	0.473449	-0.259771	0.092239	-0.013677	-0.715820	-0.331299	0.456055	-0.201287	-0.673933	0.054601	-0.708743
24176		9.553981	1.949426	0.707214	-0.292194	0.093779	0.003689	-0.705811	-0.331055	0.452637	-0.203680	-0.672336	0.057052	-0.709383
24177		9.603852	1.334985	0.966699	-0.261735	0.090288	-0.002118	-0.705566	-0.331787	0.450195	-0.205865	-0.670871	0.059192	-0.709963
24178		9.611646	1.053198	1.139345	-0.207194	0.073171	-0.037495	-0.706299	-0.338867	0.450928	-0.207877	-0.669726	0.060581	-0.710340
24179		9.659920	0.737115	1.326955	-0.176124	0.040501	-0.099990	-0.705322	-0.347900	0.443604	-0.210189	-0.669007	0.061285	-0.710277
24180		9.662176	0.666577	1.872894	-0.152486	-0.013828	-0.178169	-0.711914	-0.350830	0.443604	-0.213011	-0.668869	0.061327	-0.709563
24181		9.585122	0.760170	2.098381	-0.069986	-0.053272	-0.250161	-0.705811	-0.351807	0.455811	-0.215709	-0.669334	0.060110	-0.708413
24182		9.908380	1.216460	1.911904	-0.035753	-0.126529	-0.315582	-0.699463	-0.362061	0.450439	-0.218599	-0.670632	0.058192	-0.706457
24183		10.062703	1.513919	1.773478	-0.024062	-0.259198	-0.366368	-0.693848	-0.368408	0.458496	-0.221793	-0.673130	0.056164	-0.703242
24184		9.936594	1.805752	1.906716	0.074653	-0.286502	-0.395376	-0.693115	-0.383789	0.459229	-0.224375	-0.676151	0.053087	-0.699755
24185		9.907941	2.092611	1.569706	0.209646	-0.247008	-0.400450	-0.689697	-0.381104	0.470703	-0.225946	-0.679148	0.048746	-0.696656
24186		9.253673	3.451318	1.110401	0.286998	-0.217751	-0.378125	-0.684570	-0.378418	0.474121	-0.226598	-0.682080	0.043764	-0.693905
24187		8.540423	5.052520	0.560144	0.011810	-0.232082	-0.335327	-0.682861	-0.386475	0.474854	-0.229163	-0.684298	0.041527	-0.691011
24188		8.250380	6.087544	0.576356	-0.579508	-0.299990	-0.323520	-0.676270	-0.404053	0.469482	-0.236649	-0.685343	0.044699	-0.687244
24189		8.342191	4.610320	0.675693	-0.917575	-0.301223	-0.253352	-0.672363	-0.416992	0.472900	-0.246449	-0.685260	0.051414	-0.683402
24190		8.127822	3.734505	1.033701	-0.620464	-0.103683	-0.120076	-0.664307	-0.421631	0.475830	-0.252625	-0.684266	0.056066	-0.681775
24191		8.134319	3.522522	0.941248	-0.073157	0.097975	0.029226	-0.678955	-0.432861	0.472168	-0.252942	-0.683197	0.056633	-0.682682
24192		7.809990	4.532929	0.686842	0.169520	0.249289	0.198512	-0.676025	-0.417725	0.466553	-0.249897	-0.681436	0.056156	-0.685597
24193		7.808753	6.543892	0.495832	-0.155268	0.300199	0.322526	-0.683838	-0.416992	0.454590	-0.248537	-0.678129	0.059301	-0.689097
24194		8.826512	2.604689	-1.630324	-0.412500	0.108446	0.660733	-0.686768	-0.398926	0.458740	-0.246319	-0.675356	0.068148	-0.691793
24195		9.940148	3.047331	-3.490415	-0.704790	-0.363673	0.684075	-0.695557	-0.398193	0.454346	-0.245823	-0.675714	0.081041	-0.690228
24196		12.730777	-1.014656	1.534705	-0.889493	-0.395070	0.728095	-0.692139	-0.394287	0.458496	-0.246451	-0.675571	0.096023	-0.688219
24197		9.778269	1.809156	4.564322	-0.205515	-0.223144	0.688697	-0.698242	-0.383301	0.460449	-0.241792	-0.676038	0.104220	-0.688220
24198		9.208740	1.260560	1.593479	-0.223354	-0.256679	0.600275	-0.700928	-0.384033	0.463623	-0.237966	-0.676796	0.111901	-0.687603
24199		10.241848	-0.787376	-1.295151	-0.291681	-0.335886	0.538072	-0.698486	-0.372314	0.478760	-0.235186	-0.678069	0.119918	-0.685952
24200		10.021813	1.694972	-0.361893	-0.222902	-0.253901	0.508581	-0.705322	-0.367920	0.469971	-0.232094	-0.678905	0.126745	-0.684950
24201		10.248539	-0.086319	0.013485	-0.381218	-0.186323	0.417224	-0.696289	-0.360107	0.471436	-0.231286	-0.678747	0.134046	-0.683989
24202		10.022775	-0.381903	-0.123382	-0.259254	-0.125655	0.325824	-0.706055	-0.357178	0.481689	-0.230291	-0.678584	0.139308	-0.683435
24203		10.308120	-0.570471	-0.145144	-0.340095	-0.114419	0.199187	-0.708252	-0.353027	0.474854	-0.231017	-0.678317	0.144097	-0.682461
24204		10.123822	-0.775233	0.270687	-0.373430	-0.107509	0.057728	-0.699219	-0.357910	0.473877	-0.233255	-0.678100	0.147997	-0.681080
24205		9.996085	-0.828443	0.507019	-0.342669	-0.119361	-0.062655	-0.704346	-0.356201	0.480225	-0.236253	-0.678299	0.150652	-0.679263
24206		9.780917	0.233403	0.443895	-0.247686	-0.108255	-0.154239	-0.699463	-0.371582	0.466309	-0.239188	-0.678848	0.151660	-0.677462
24207		9.456282	-0.012394	0.011256	-0.141549	-0.107560	-0.222224	-0.693604	-0.372559	0.467041	-0.241934	-0.679769	0.151331	-0.675633
24208		9.798001	0.719830	-0.078526	-0.030020	-0.086002	-0.244957	-0.695557	-0.384521	0.479492	-0.243960	-0.680882	0.149804	-0.674123
24209		9.576846	1.884692	0.230859	-0.103059	-0.099171	-0.255452	-0.699951	-0.375488	0.472656	-0.246642	-0.681921	0.148797	-0.672318
24210		9.480810	1.037159	0.790572	-0.085713	-0.137322	-0.247648	-0.685791	-0.388184	0.473633	-0.249050	-0.683262	0.147887	-0.670266
24211		9.687823	0.992982	0.287926	0.045853	-0.097556	-0.255422	-0.689697	-0.386963	0.475342	-0.250501	-0.684702	0.145682	-0.668737
24212		9.750088	1.696080	-0.316888	0.079490	-0.091823	-0.247666	-0.684326	-0.390137	0.479248	-0.251605	-0.686162	0.143261	-0.667348
24213		9.692919	1.533925	-0.369576	0.093614	-0.083882	-0.248316	-0.677734	-0.405518	0.481934	-0.252606	-0.687599	0.140682	-0.666037
24214		9.974863	0.712221	-0.070171	0.181956	-0.074022	-0.276445	-0.683594	-0.402344	0.488037	-0.253121	-0.689279	0.137100	-0.664851
24215		10.591523	0.035442	-0.318117	0.104200	-0.077921	-0.393066	-0.680908	-0.414062	0.489502	-0.255246	-0.690923	0.133171	-0.663129
24216		10.776980	-1.104926	0.129825	-0.040428	-0.092761	-0.618308	-0.669678	-0.423096	0.499512	-0.260470	-0.692569	0.128559	-0.660285
24217		10.766718	-1.729550	1.609820	-0.302270	-0.160365	-0.945145	-0.668457	-0.439453	0.500000	-0.270499	-0.694389	0.123461	-0.655294
24218		11.504081	-1.061084	1.870624	-0.623730	-0.331292	-1.188297	-0.650146	-0.467773	0.486816	-0.284961	-0.696734	0.119435	-0.647375
24219		12.057924	0.612446	3.162623	-0.648326	-0.388300	-1.326823	-0.627441	-0.503906	0.481445	-0.300610	-0.699419	0.114612	-0.638209
24220		12.699173	1.317359	2.195660	-0.274702	-0.353780	-1.314863	-0.614014	-0.522217	0.487061	-0.312871	-0.702984	0.106766	-0.629704
24221		13.607305	1.759328	1.082896	0.334474	-0.210068	-1.203681	-0.595703	-0.546631	0.496826	-0.318980	-0.707464	0.094485	-0.623553
24222		13.189007	3.090663	1.318418	0.730367	-0.082567	-1.248614	-0.590332	-0.554199	0.504883	-0.322018	-0.712381	0.078210	-0.618628
24223		11.874629	6.932287	0.197026	0.801113	-0.240119	-1.641556	-0.566162	-0.574707	0.517090	-0.327160	-0.718883	0.058480	-0.610535
24224		10.008340	9.940545	-0.707342	0.145569	-0.772283	-2.045210	-0.527100	-0.599365	0.533203	-0.340704	-0.726604	0.042289	-0.595129
24225		9.443410	9.452895	-1.701656	-0.886474	-1.363363	-2.389764	-0.491455	-0.650635	0.537354	-0.365504	-0.733769	0.033083	-0.571748
24226		9.337367	6.833831	-1.384376	-0.990716	-1.338113	-2.640349	-0.426514	-0.689453	0.536621	-0.392543	-0.739350	0.022146	-0.546609
24227		8.025333	7.493303	-1.053867	-0.507234	-1.157903	-2.731380	-0.376221	-0.724609	0.537842	-0.415203	-0.745018	0.006133	-0.522031
24228		6.509133	7.678777	-0.826615	-0.287695	-1.040928	-2.658042	-0.321289	-0.760742	0.539307	-0.434780	-0.750056	-0.011270	-0.498252
24229		5.563533	7.031482	-0.844829	-0.179257	-1.014858	-2.354042	-0.270752	-0.783936	0.540771	-0.450959	-0.754699	-0.026616	-0.475770
24230		5.289431	7.223660	-1.003957	-0.125516	-0.902877	-1.978369	-0.225098	-0.801514	0.538330	-0.463966	-0.758438	-0.039351	-0.456025
24231		4.742138	6.752378	-0.893289	-0.242712	-0.649656	-1.572432	-0.193359	-0.817627	0.544189	-0.475378	-0.759802	-0.049006	-0.440812
24232		4.077143	5.756852	-0.558787	-0.292545	-0.409813	-1.062870	-0.173828	-0.824463	0.531494	-0.484138	-0.759603	-0.054983	-0.430803
24233		3.939015	5.594174	-0.747196	-0.189111	-0.124478	-0.535348	-0.156738	-0.834473	0.531494	-0.488820	-0.758754	-0.058223	-0.426565
24234		3.892939	5.804046	-0.700590	-0.249679	0.162072	0.023780	-0.159668	-0.833496	0.523438	-0.490877	-0.756390	-0.057578	-0.428484
24235		3.760800	5.722413	-0.846889	-0.593944	0.417572	0.533385	-0.182861	-0.840332	0.506836	-0.493240	-0.750858	-0.051836	-0.436165
24236		3.540009	4.936451	-0.675659	-0.882548	0.592957	0.967236	-0.209717	-0.841309	0.486328	-0.495720	-0.742701	-0.041522	-0.448256
24237		3.630961	5.408747	-0.820611	-0.813890	0.798013	1.377861	-0.249756	-0.845947	0.468506	-0.494946	-0.733726	-0.029040	-0.464577
24238		3.735859	4.918100	-0.681086	-0.939344	0.943565	1.661198	-0.282715	-0.848633	0.436523	-0.493320	-0.722787	-0.014119	-0.483750
24239		4.034662	4.508614	-0.519313	-0.639929	1.000718	1.780024	-0.329102	-0.840576	0.418457	-0.487926	-0.712854	-0.000250	-0.503753
24240		5.123985	5.193326	-0.989599	-0.242539	1.057908	1.761969	-0.382568	-0.823730	0.398682	-0.478762	-0.704487	0.010603	-0.523806
24241		6.075100	6.038320	-1.007504	0.053652	1.059394	1.629509	-0.423584	-0.801270	0.391846	-0.467550	-0.697454	0.018335	-0.542787
24242		6.733174	5.958520	-1.142771	0.204488	0.955639	1.288899	-0.453857	-0.782227	0.383301	-0.457069	-0.691735	0.022663	-0.558639
24243		7.034870	6.263187	-1.174411	0.436317	0.818450	0.933182	-0.475098	-0.774902	0.378418	-0.446875	-0.688163	0.023079	-0.571141
24244		7.453296	5.947017	-0.461882	0.429616	0.650137	0.659598	-0.497803	-0.763672	0.379639	-0.438564	-0.685683	0.022147	-0.580526
24245		7.612305	5.610251	-0.100599	0.547688	0.520089	0.451661	-0.513184	-0.749023	0.382080	-0.430647	-0.684755	0.019281	-0.587607
24246		8.089580	5.688020	-0.231791	0.762958	0.409740	0.300023	-0.509033	-0.740479	0.391602	-0.421917	-0.685746	0.014124	-0.592908
24247		8.568020	6.561899	-0.417959	0.727044	0.276112	0.174094	-0.519531	-0.735352	0.418213	-0.414371	-0.687481	0.008876	-0.596312
24248		7.611049	5.777800	-0.217806	0.391485	0.098333	0.123437	-0.520996	-0.725098	0.418457	-0.410023	-0.688766	0.006594	-0.597862
24249		6.613960	4.768797	-0.082642	0.271081	-0.018483	0.133712	-0.530029	-0.725342	0.415771	-0.406619	-0.690292	0.005901	-0.598434
24250		6.070701	4.859396	0.030783	0.439589	-0.020200	0.185953	-0.531738	-0.710938	0.432861	-0.401369	-0.692666	0.004417	-0.599248
24251		5.477875	5.266320	0.174340	0.410183	-0.075850	0.245817	-0.535400	-0.708740	0.433594	-0.395889	-0.695280	0.003928	-0.599869
24252		5.681415	5.829639	0.967546	0.225837	-0.150509	0.304671	-0.537598	-0.695068	0.439941	-0.391569	-0.697516	0.005716	-0.600093
24253		11.189837	8.712951	-1.220563	-0.352121	-0.356281	-0.157476	-0.532227	-0.705078	0.439453	-0.395717	-0.698474	0.008799	-0.596208
24254		16.130510	1.760316	2.210975	-0.549168	-0.264993	-0.331154	-0.525635	-0.724365	0.442139	-0.402871	-0.697756	0.011384	-0.592201
24255		13.288922	4.542347	1.027567	1.027995	0.021376	-0.227646	-0.519287	-0.706055	0.458252	-0.395495	-0.702761	0.001778	-0.591361
24256		5.553017	6.941021	-0.307829	0.227235	-0.147493	-0.212575	-0.516113	-0.710449	0.460938	-0.394993	-0.704989	-0.000940	-0.589042
24257		4.485185	6.165097	-1.084800	-0.049792	-0.210031	-0.239657	-0.510986	-0.719727	0.462646	-0.397132	-0.706296	-0.001550	-0.586028
24258		8.714457	5.728354	-0.601442	0.006946	-0.072130	-0.181885	-0.509033	-0.715820	0.465332	-0.398346	-0.706869	-0.002750	-0.584508
24259		10.408121	5.920445	-0.615477	0.284627	-0.013935	-0.083769	-0.508301	-0.709473	0.465088	-0.396372	-0.708396	-0.005413	-0.583981
24260		7.225505	7.372155	-0.741108	-0.048970	-0.021849	-0.019553	-0.506104	-0.713379	0.470947	-0.396882	-0.708329	-0.005028	-0.583720
24261		7.690011	5.391972	-0.123549	0.042972	0.071619	0.039195	-0.505371	-0.708496	0.475586	-0.396141	-0.708039	-0.005265	-0.584573
24262		9.112818	5.898792	-0.279029	0.332535	0.112672	0.080372	-0.517334	-0.704346	0.472168	-0.392523	-0.708877	-0.007465	-0.585972
24263		8.130280	5.707421	0.222591	0.240839	0.075490	0.048085	-0.513672	-0.706543	0.472412	-0.389953	-0.709524	-0.009094	-0.586881
24264		8.014774	5.757771	0.166034	0.258350	0.044295	0.054702	-0.516113	-0.703857	0.480957	-0.387192	-0.710478	-0.010625	-0.587529
24265		8.581166	4.977829	-0.365840	0.222286	0.031552	0.026769	-0.514160	-0.701660	0.488525	-0.384950	-0.711340	-0.012082	-0.587931
24266		8.376309	5.146930	-0.509439	0.139317	0.037159	-0.035093	-0.518311	-0.689697	0.486328	-0.383899	-0.711749	-0.013504	-0.588093
24267		8.160185	4.992807	-0.186543	0.061794	0.042995	-0.087187	-0.515869	-0.693115	0.484131	-0.383906	-0.711732	-0.014860	-0.588075
24268		7.974928	4.954013	0.498809	0.066045	0.013020	-0.131689	-0.508057	-0.708496	0.485596	-0.384214	-0.711947	-0.016489	-0.587571
24269		8.152580	5.444468	0.870500	0.011167	-0.049465	-0.170975	-0.508301	-0.706299	0.499023	-0.385333	-0.712346	-0.017737	-0.586317
24270		7.796172	5.387238	0.587773	0.010256	-0.105606	-0.204086	-0.508301	-0.701904	0.492920	-0.386693	-0.713139	-0.019027	-0.584413
24271		8.029342	5.998165	0.004061	-0.052730	-0.147088	-0.220415	-0.502930	-0.708008	0.498535	-0.388735	-0.713920	-0.019810	-0.582075
24272		8.222519	5.921187	-0.791939	-0.068375	-0.147059	-0.212482	-0.501221	-0.706787	0.485596	-0.390854	-0.714618	-0.020410	-0.579774
24273		8.534598	6.780181	-1.217695	0.028721	-0.080213	-0.175527	-0.490234	-0.713867	0.488037	-0.391820	-0.715311	-0.021705	-0.578219
24274		7.787623	6.652006	-0.995787	0.037978	-0.023472	-0.098528	-0.492676	-0.709473	0.492920	-0.392141	-0.715658	-0.022645	-0.577535
24275		7.985963	7.249130	-1.155314	0.030008	0.041782	-0.001820	-0.493408	-0.716064	0.503906	-0.391804	-0.715521	-0.022998	-0.577919
24276		8.581208	6.121688	-0.893942	-0.052441	0.129111	0.045914	-0.492188	-0.710205	0.492920	-0.391833	-0.714362	-0.022761	-0.579341
24277		8.308299	5.176873	-0.642973	-0.003843	0.200481	0.043696	-0.494629	-0.708984	0.490723	-0.391424	-0.712921	-0.023239	-0.581369
24278		8.196500	4.931172	0.056017	0.023651	0.191607	-0.007113	-0.501221	-0.715576	0.481201	-0.391140	-0.711661	-0.024324	-0.583057
24279		8.430697	5.032970	0.572501	0.077513	0.187293	-0.049728	-0.489990	-0.717041	0.484131	-0.390698	-0.710679	-0.026144	-0.584472
24280		9.034006	5.492571	0.601598	0.065623	0.116946	-0.098636	-0.501709	-0.715332	0.489990	-0.390749	-0.710132	-0.027955	-0.585018
24281		10.620305	5.654022	0.427659	0.001979	0.047374	-0.197002	-0.501953	-0.715576	0.489502	-0.392089	-0.709745	-0.029852	-0.584497
24282		10.982288	4.988197	0.297381	0.160628	0.014467	-0.196647	-0.498047	-0.713379	0.485840	-0.392025	-0.710371	-0.032744	-0.583624
24283		9.357288	5.452847	0.084121	0.581890	-0.032386	-0.185441	-0.492432	-0.710693	0.497559	-0.388147	-0.713384	-0.038367	-0.582196
24284		6.147541	5.761990	0.507408	0.683827	0.085086	-0.168866	-0.481934	-0.703125	0.505615	-0.383161	-0.715997	-0.045143	-0.581805
24285		5.039182	5.743220	-0.240125	0.689190	0.339847	-0.258667	-0.485352	-0.700439	0.514648	-0.378610	-0.716668	-0.053972	-0.583205
24286		4.955383	5.861129	-1.453224	0.759867	0.398412	-0.326393	-0.484619	-0.694580	0.516602	-0.373836	-0.717116	-0.064201	-0.584696
24287		4.937697	7.039739	-1.406562	0.343442	0.141041	-0.317269	-0.486328	-0.695801	0.516846	-0.372906	-0.717448	-0.070096	-0.584205
24288		5.270874	5.701490	-0.999795	-0.208257	0.017279	-0.313936	-0.484863	-0.701416	0.517578	-0.376997	-0.716095	-0.071362	-0.583086
24289		4.877407	4.869874	-0.299122	0.148915	0.128287	-0.178601	-0.481445	-0.698975	0.522949	-0.376793	-0.715724	-0.074553	-0.583274
24290		4.749500	5.571564	-0.241123	0.431486	0.207278	0.025478	-0.483643	-0.696777	0.523926	-0.372486	-0.716281	-0.078357	-0.584856
24291		5.350798	6.493905	-0.336233	0.280280	0.200891	0.226871	-0.490234	-0.690430	0.529297	-0.368063	-0.716355	-0.079214	-0.587444
24292		9.249070	8.486867	-1.297317	-0.055239	0.127734	0.090449	-0.491699	-0.686523	0.528809	-0.367711	-0.715275	-0.078500	-0.589074
24293		11.197798	5.462693	0.331505	-0.389622	-0.127612	-0.089598	-0.492920	-0.695068	0.519775	-0.371914	-0.714350	-0.075766	-0.587914
24294		10.603582	5.136252	1.000246	0.154624	-0.166098	0.091032	-0.481445	-0.687988	0.520508	-0.369963	-0.716397	-0.075228	-0.586723
24295		8.691950	7.082876	0.802484	0.088802	-0.204648	-0.017941	-0.488037	-0.693115	0.523682	-0.369440	-0.718315	-0.074987	-0.584735
24296		6.756430	4.918015	0.955169	0.140408	-0.140352	-0.024258	-0.485840	-0.686035	0.527100	-0.368437	-0.719988	-0.075479	-0.583245
24297		6.271619	6.250103	-0.654849	0.301575	-0.046424	-0.039644	-0.485352	-0.686279	0.552002	-0.365997	-0.721695	-0.077724	-0.582375
24298		7.004537	5.828345	-1.218005	0.197315	-0.076771	-0.028518	-0.489258	-0.679932	0.545166	-0.364434	-0.723148	-0.078984	-0.581383
24299		8.186083	6.019511	-1.411268	0.165288	-0.159171	0.004266	-0.486328	-0.687744	0.549805	-0.362999	-0.725081	-0.079340	-0.579823
24300		9.189614	5.689394	-0.584217	0.101504	-0.173558	-0.018864	-0.483398	-0.678711	0.548584	-0.362333	-0.726802	-0.079361	-0.578079
24301		8.381873	5.469182	-0.164700	0.351088	-0.019879	-0.045996	-0.474609	-0.682617	0.562744	-0.359434	-0.728507	-0.082128	-0.577355
24302		6.840761	6.891831	-0.855452	0.460797	-0.013001	-0.019555	-0.476562	-0.670410	0.570068	-0.355340	-0.730665	-0.085460	-0.576679
24303		7.175377	6.293815	-1.027497	0.169840	-0.089643	0.018562	-0.481934	-0.666748	0.573730	-0.353694	-0.732108	-0.086018	-0.575777
24304		7.740777	6.446872	-1.058982	0.264896	-0.053514	0.069981	-0.474365	-0.655762	0.573730	-0.350760	-0.733759	-0.086957	-0.575329
24305		8.120223	7.009920	-0.817043	0.252561	-0.024266	0.140188	-0.476318	-0.658691	0.575195	-0.347401	-0.735212	-0.087289	-0.575462
24306		7.499823	7.219381	-0.854134	0.203649	-0.044703	0.192801	-0.475586	-0.651611	0.587891	-0.344141	-0.736648	-0.086683	-0.575675
24307		7.760155	6.929214	-0.422381	0.146045	-0.079831	0.261442	-0.484131	-0.646484	0.584473	-0.340945	-0.738152	-0.084890	-0.575918
24308		8.157492	7.008884	-0.431882	0.106889	-0.187302	0.328176	-0.485107	-0.643311	0.583740	-0.337738	-0.740317	-0.081741	-0.575484
24309		7.697746	7.200333	-0.739710	0.062548	-0.244080	0.403311	-0.494141	-0.633789	0.600830	-0.334454	-0.742757	-0.077331	-0.574867
24310		7.876804	6.345182	-1.529022	0.068092	-0.281920	0.472075	-0.492676	-0.630127	0.600098	-0.330631	-0.745524	-0.072188	-0.574166
24311		8.129416	6.633470	-2.126542	0.083211	-0.264022	0.538098	-0.500977	-0.620605	0.600830	-0.326169	-0.748245	-0.066594	-0.573853
24312		8.281024	5.607657	-2.277852	0.010514	-0.155524	0.565518	-0.500977	-0.621582	0.604980	-0.322079	-0.749872	-0.060666	-0.574697
24313		7.919579	5.972226	-2.174365	0.160920	-0.082930	0.613929	-0.511230	-0.604004	0.609619	-0.316171	-0.751576	-0.055635	-0.576258
24314		8.309401	5.738855	-1.729282	0.065465	-0.043874	0.659797	-0.518799	-0.581543	0.607666	-0.310769	-0.752602	-0.049652	-0.578401
24315		8.172933	5.527879	-2.108840	0.143814	-0.085730	0.707971	-0.523682	-0.579834	0.615967	-0.304270	-0.754205	-0.043633	-0.580250
24316		8.336873	4.733834	-2.339916	0.205510	-0.067728	0.727839	-0.531494	-0.564941	0.615967	-0.297022	-0.755859	-0.037924	-0.582252
24317		8.289210	4.764519	-1.660629	0.352481	-0.003241	0.713322	-0.540771	-0.546631	0.623291	-0.288433	-0.757509	-0.033654	-0.584682
24318		8.796818	4.733479	-0.764369	0.435138	0.086186	0.704575	-0.551758	-0.531982	0.628174	-0.279051	-0.758721	-0.030398	-0.587834
24319		8.797903	4.343517	-0.384750	0.486657	0.110371	0.679637	-0.561279	-0.511230	0.623291	-0.269326	-0.759841	-0.027835	-0.591042
24320		8.735712	4.217793	-0.675897	0.545132	0.122967	0.675290	-0.570068	-0.494385	0.626709	-0.259045	-0.760971	-0.025779	-0.594268
24321		8.533047	5.106558	-0.853710	0.390136	0.108639	0.669050	-0.584717	-0.480225	0.634033	-0.250265	-0.761620	-0.022575	-0.597322
24322		8.454161	5.074476	-0.873071	0.265219	0.048150	0.714092	-0.586670	-0.468506	0.625000	-0.242328	-0.762269	-0.017827	-0.599921
24323		8.988380	3.822818	-0.966199	0.213847	0.082978	0.735088	-0.602783	-0.447266	0.633301	-0.234712	-0.762433	-0.012579	-0.602866
24324		8.578430	4.357626	-1.836084	0.380797	0.102398	0.780553	-0.604004	-0.430176	0.637939	-0.225109	-0.762866	-0.008243	-0.606047
24325		8.783548	4.355685	-2.430988	0.164163	0.103913	0.816879	-0.613770	-0.418213	0.634766	-0.217275	-0.762596	-0.001922	-0.609290
24326		8.781651	3.668211	-2.452835	0.231539	0.165263	0.858373	-0.626709	-0.401367	0.627197	-0.208465	-0.761950	0.004125	-0.613154
24327		8.388668	4.136094	-1.793636	0.115541	0.160775	0.912401	-0.630859	-0.376953	0.631348	-0.200320	-0.760929	0.011590	-0.617029
24328		8.978452	3.166257	-1.039782	0.091660	0.145751	0.970759	-0.646973	-0.362793	0.629150	-0.191905	-0.759848	0.019807	-0.620814
24329		9.248619	2.306492	-1.204165	0.000049	0.134764	0.977161	-0.660645	-0.349365	0.615967	-0.184283	-0.758513	0.028823	-0.624394
24330		9.217167	1.881131	-1.581925	0.090500	0.141477	0.969730	-0.664062	-0.341064	0.620850	-0.175845	-0.757217	0.037053	-0.627955
24331		8.764195	2.099377	-1.169795	-0.110935	0.114695	0.957732	-0.679932	-0.310547	0.618896	-0.169380	-0.755581	0.046820	-0.631044
24332		8.820329	0.453301	-0.794609	-0.050816	0.079909	0.952714	-0.685791	-0.292969	0.614990	-0.162314	-0.754239	0.056100	-0.633744
24333		9.261134	-0.186714	-1.322245	0.080571	0.078482	0.863670	-0.693604	-0.279297	0.612061	-0.154691	-0.753137	0.063499	-0.636257
24334		9.687913	-2.947956	-1.648916	-0.019585	0.068261	0.641957	-0.689697	-0.269043	0.612305	-0.149758	-0.752027	0.069632	-0.638106
24335		9.641450	-4.333152	-1.011236	-0.053071	0.030895	0.295389	-0.692139	-0.269043	0.606689	-0.147868	-0.751422	0.072860	-0.638898
24336		9.664044	-3.502788	-0.476987	-0.129115	-0.094383	-0.080967	-0.690674	-0.271240	0.607910	-0.149593	-0.752010	0.073421	-0.637740
24337		10.098363	-2.102041	-0.656373	-0.068283	-0.181458	-0.371196	-0.689941	-0.273438	0.619385	-0.152977	-0.753658	0.070947	-0.635267
24338		9.746716	0.016619	-1.020171	-0.020775	-0.198665	-0.535567	-0.679443	-0.289795	0.616211	-0.157187	-0.755651	0.066576	-0.632338
24339		9.649922	2.280105	-2.202125	0.221699	-0.159268	-0.520341	-0.671875	-0.292725	0.625488	-0.159027	-0.757756	0.060374	-0.629977
24340		9.205588	3.430835	-2.153867	0.204145	-0.136534	-0.417973	-0.673828	-0.291992	0.630859	-0.160230	-0.759539	0.055222	-0.627994
24341		9.311803	3.972398	-1.383497	0.174993	-0.099117	-0.266210	-0.664307	-0.303955	0.629883	-0.160530	-0.760848	0.051646	-0.626637
24342		9.339410	3.321901	-2.052953	0.206052	-0.099756	-0.144630	-0.668213	-0.302002	0.628174	-0.159597	-0.762133	0.048996	-0.625524
24343		9.724780	1.596429	-2.052407	0.007664	-0.093783	-0.115274	-0.653320	-0.308594	0.633545	-0.160325	-0.762953	0.048157	-0.624403
24344		9.532461	1.394636	-1.155904	0.066470	-0.072222	-0.138739	-0.657227	-0.309570	0.636963	-0.160694	-0.763735	0.046603	-0.623469
24345		9.494299	2.246018	-1.784878	0.116754	-0.047587	-0.152253	-0.665039	-0.301270	0.642822	-0.160701	-0.764430	0.044476	-0.622772
24346		9.377690	1.232742	-1.706930	-0.032125	-0.079352	-0.180955	-0.654053	-0.310303	0.638916	-0.162317	-0.765086	0.043275	-0.621631
24347		9.604252	-0.225781	-1.019803	-0.059534	-0.109715	-0.271589	-0.655273	-0.310303	0.644531	-0.164895	-0.765963	0.041500	-0.619991
24348		9.311505	1.225789	-1.211847	-0.086307	-0.075389	-0.370781	-0.650635	-0.318604	0.641846	-0.168502	-0.766557	0.038905	-0.618453
24349		9.482419	0.496923	-1.942853	-0.112231	-0.103422	-0.462837	-0.646484	-0.326172	0.645508	-0.173054	-0.767335	0.035693	-0.616421
24350		9.562082	-0.323740	-2.365643	0.007366	-0.059944	-0.544439	-0.641602	-0.337891	0.650146	-0.177096	-0.768044	0.030682	-0.614658
24351		8.976788	1.601176	-1.524409	0.089539	-0.091465	-0.652260	-0.626953	-0.336426	0.645264	-0.181162	-0.769176	0.024089	-0.612347
24352		9.608016	0.190062	-0.482850	-0.222626	-0.155705	-0.777934	-0.631836	-0.369141	0.649658	-0.189143	-0.770066	0.018806	-0.608991
24353		9.325484	3.465954	0.412049	-0.283812	0.093489	-0.821945	-0.622559	-0.381592	0.645752	-0.198113	-0.768837	0.013014	-0.607842
24354		8.898798	2.845502	-1.083394	-1.031841	0.128471	-0.935613	-0.618164	-0.416992	0.634277	-0.215089	-0.765348	0.011708	-0.606500
24355		8.619188	1.285849	-3.087022	-0.213246	-0.157565	-0.900769	-0.604980	-0.424805	0.637695	-0.223888	-0.766055	0.005303	-0.602499
24356		7.112559	5.532326	-2.633828	-0.119409	-0.242772	-0.856517	-0.593262	-0.445068	0.647705	-0.231400	-0.767570	-0.001164	-0.597736
24357		8.859449	4.152384	-1.383868	-0.603134	-0.282687	-0.846921	-0.577881	-0.459473	0.644043	-0.243451	-0.767872	-0.003814	-0.592528
24358		9.117952	4.551009	-2.401939	-0.106305	-0.199657	-0.770374	-0.576172	-0.478027	0.652344	-0.250113	-0.768968	-0.009683	-0.588250
24359		9.443722	2.458710	-1.905983	-0.204478	-0.181202	-0.823126	-0.562988	-0.493652	0.646973	-0.258075	-0.769533	-0.015396	-0.583934
24360		8.209249	3.747033	-2.497846	0.084359	-0.157588	-0.854421	-0.546143	-0.504883	0.651611	-0.263461	-0.770761	-0.023577	-0.579620
24361		6.948538	6.909770	-2.877839	0.221343	-0.089717	-0.704351	-0.538086	-0.505859	0.654541	-0.266397	-0.771919	-0.031521	-0.576351
24362		10.229720	4.682797	-2.004862	-0.437192	-0.091792	-0.688459	-0.529297	-0.526123	0.651611	-0.275534	-0.770832	-0.034584	-0.573326
24363		9.265663	3.461398	-1.368886	0.206232	0.007164	-0.765291	-0.522217	-0.537842	0.653809	-0.278960	-0.771143	-0.043325	-0.570651
24364		5.043122	4.990520	-2.018159	0.237969	-0.040490	-0.730176	-0.516357	-0.546875	0.663330	-0.281838	-0.771852	-0.051765	-0.567567
24365		8.125479	10.916205	-3.150661	-0.083327	-0.229983	-0.356002	-0.499512	-0.546143	0.668213	-0.285265	-0.772971	-0.053654	-0.564146
24366		10.846334	2.840667	-1.810799	-0.256675	-0.005046	-0.427258	-0.506836	-0.558594	0.664551	-0.290699	-0.771813	-0.055843	-0.562743
24367		8.020192	6.221634	-1.704563	0.327612	0.073090	-0.416176	-0.496338	-0.556885	0.664795	-0.290351	-0.772204	-0.062307	-0.561708
24368		8.125018	4.394917	-1.447899	-0.067672	0.070891	-0.497789	-0.492920	-0.567139	0.657227	-0.294384	-0.771081	-0.066771	-0.560637
24369		6.065165	7.297151	-2.637249	0.159139	0.056905	-0.345053	-0.484619	-0.563232	0.666504	-0.295169	-0.770995	-0.071291	-0.559786
24370		9.330120	7.085855	-2.145957	-0.172324	0.039501	-0.192367	-0.482910	-0.567139	0.658447	-0.298082	-0.769931	-0.071976	-0.559619
24371		8.399493	4.528310	-1.884923	-0.112170	0.101850	-0.226592	-0.481934	-0.575195	0.656738	-0.300597	-0.768615	-0.073643	-0.559865
24372		7.805600	4.391792	-1.479707	0.106770	0.118932	-0.262364	-0.489990	-0.569824	0.660400	-0.301244	-0.767961	-0.077242	-0.559930
24373		7.425409	5.235938	-1.748811	0.025721	0.093679	-0.298581	-0.479492	-0.584473	0.657471	-0.302926	-0.767130	-0.080545	-0.559695
24374		7.850082	6.705797	-2.185034	-0.018512	0.061218	-0.214184	-0.473877	-0.579346	0.650879	-0.304492	-0.766439	-0.082578	-0.559496
24375		8.485441	5.210786	-1.472111	-0.137985	0.070517	-0.237207	-0.472168	-0.589844	0.657227	-0.307346	-0.765196	-0.084042	-0.559420
24376		8.097348	4.793533	-1.616337	-0.022791	0.082075	-0.285447	-0.472900	-0.591064	0.653076	-0.309420	-0.764255	-0.086814	-0.559139
24377		6.927958	5.477718	-1.700418	0.000593	0.053265	-0.308617	-0.473389	-0.597900	0.647949	-0.311457	-0.763570	-0.089859	-0.558463
24378		8.134867	6.509847	-2.002336	-0.139705	-0.006382	-0.254496	-0.468750	-0.600342	0.644531	-0.314522	-0.762806	-0.091169	-0.557577
24379		8.381965	5.263443	-1.451798	-0.153219	0.003214	-0.285097	-0.468506	-0.604004	0.649902	-0.317911	-0.761875	-0.092719	-0.556670
24380		6.769886	5.073495	-1.563524	0.001872	0.016692	-0.292505	-0.459473	-0.614258	0.642822	-0.319845	-0.761447	-0.095483	-0.555680
24381		8.184691	6.208536	-1.713024	-0.092602	-0.017701	-0.293504	-0.458496	-0.613281	0.654053	-0.322738	-0.760872	-0.097440	-0.554454
24382		8.069001	5.625966	-1.414062	-0.047659	0.009486	-0.327861	-0.449463	-0.618652	0.651855	-0.325387	-0.760234	-0.100167	-0.553294
24383		7.311062	6.369726	-1.529542	-0.041357	0.007753	-0.316825	-0.449707	-0.618164	0.650635	-0.327903	-0.759636	-0.102815	-0.552143
24384		7.416049	7.722921	-2.159583	-0.036036	0.004349	-0.236361	-0.448486	-0.630615	0.642822	-0.329805	-0.759176	-0.104732	-0.551281
24385		8.173236	7.179223	-2.143602	-0.069606	0.047696	-0.146361	-0.440674	-0.635010	0.640869	-0.331360	-0.758394	-0.105728	-0.551236
24386		7.035233	7.340576	-2.099755	0.027287	0.098566	-0.045442	-0.447510	-0.623779	0.645020	-0.331237	-0.757794	-0.106642	-0.551958
24387		6.280633	7.248308	-2.016771	-0.078393	0.071162	0.069234	-0.439209	-0.629639	0.639160	-0.331341	-0.757094	-0.105656	-0.553045
24388		8.162252	6.519598	-1.085963	-0.153393	0.051049	0.130728	-0.446533	-0.638428	0.634521	-0.331770	-0.756302	-0.103470	-0.554283
24389		7.769780	5.795141	-0.724813	0.016979	0.064655	0.124101	-0.449219	-0.628418	0.631348	-0.330621	-0.756110	-0.102574	-0.555397
24390		7.332381	5.307230	-0.969982	-0.041331	0.010850	0.074735	-0.459473	-0.630371	0.636230	-0.330427	-0.755984	-0.101527	-0.555877
24391		7.595520	5.242403	-1.399158	-0.105297	-0.037720	0.019893	-0.458008	-0.631348	0.636719	-0.331272	-0.755858	-0.100361	-0.555756
24392		8.232416	4.910720	-1.628621	-0.125040	-0.094895	-0.057687	-0.449463	-0.629883	0.635254	-0.332914	-0.755948	-0.099553	-0.554797
24393		7.783948	4.847339	-2.249883	-0.023527	-0.167207	-0.125609	-0.449707	-0.636963	0.638428	-0.334156	-0.756875	-0.099786	-0.552741
24394		6.923440	6.178839	-2.320930	-0.048256	-0.148062	-0.115227	-0.445557	-0.631348	0.638428	-0.335537	-0.757576	-0.099821	-0.550935
24395		8.259732	5.904996	-1.706246	-0.145942	-0.025442	-0.126057	-0.447266	-0.642578	0.639160	-0.337754	-0.757004	-0.099813	-0.550368
24396		7.990501	5.861273	-1.179896	0.003924	-0.004840	-0.133085	-0.441650	-0.635498	0.643555	-0.338579	-0.756912	-0.100979	-0.549775
24397		7.157403	5.967757	-0.857169	-0.040764	-0.103689	-0.146951	-0.435303	-0.643555	0.638428	-0.340036	-0.757289	-0.101564	-0.548246
24398		6.405476	6.347945	-0.935508	0.004552	-0.103929	-0.146671	-0.426025	-0.637939	0.642090	-0.341074	-0.757857	-0.102438	-0.546651
24399		7.373037	6.171827	-1.264004	0.029265	-0.074610	-0.141757	-0.424561	-0.648926	0.641113	-0.341799	-0.758333	-0.103573	-0.545323
24400		7.531581	5.988743	-1.566187	0.070195	-0.132581	-0.122471	-0.421143	-0.645996	0.645508	-0.342090	-0.759401	-0.104536	-0.543468
24401		6.772772	6.476406	-1.322601	-0.051157	-0.158577	-0.089258	-0.421875	-0.649414	0.643799	-0.343334	-0.760165	-0.104257	-0.541666
24402		6.668871	5.996257	-1.179833	0.075092	-0.073831	-0.074695	-0.420654	-0.653320	0.647217	-0.343169	-0.760912	-0.105054	-0.540566
24403		6.758058	6.323862	-1.907446	0.267321	-0.027954	-0.008190	-0.419678	-0.638184	0.656250	-0.340667	-0.762256	-0.106711	-0.539930
24404		7.613377	7.114839	-2.235674	0.202099	-0.081238	0.063535	-0.429199	-0.637939	0.663574	-0.338352	-0.763768	-0.107046	-0.539183
24405		7.791555	6.365378	-2.141897	0.202391	-0.096404	0.100371	-0.429199	-0.631592	0.656250	-0.335801	-0.765424	-0.106968	-0.538443
24406		7.201009	6.649436	-1.925756	0.300970	-0.058861	0.133968	-0.429932	-0.631836	0.667480	-0.332033	-0.767277	-0.107376	-0.538061
24407		7.226697	6.674990	-1.722561	0.250190	-0.054013	0.152625	-0.420166	-0.627686	0.663818	-0.328617	-0.768901	-0.107282	-0.537860
24408		7.918444	6.390830	-1.311892	0.165569	-0.068323	0.158177	-0.423340	-0.619873	0.674072	-0.326005	-0.770272	-0.106490	-0.537644
24409		8.052084	6.735651	-1.635456	0.167518	-0.108740	0.172779	-0.429932	-0.618652	0.679688	-0.323318	-0.771933	-0.105419	-0.537095
24410		7.441616	6.994473	-2.217220	0.068142	-0.094878	0.185301	-0.427246	-0.614014	0.675537	-0.321484	-0.773108	-0.103616	-0.536858
24411		7.944830	7.346273	-2.411512	0.075673	-0.054378	0.258360	-0.431396	-0.609375	0.681641	-0.319036	-0.774127	-0.101314	-0.537288
24412		7.599800	7.746511	-1.801857	-0.147092	0.017517	0.289214	-0.438721	-0.602783	0.678955	-0.318435	-0.773803	-0.097512	-0.538813
24413		7.450897	7.702403	-1.899374	-0.392521	-0.031322	0.365018	-0.437744	-0.603271	0.675049	-0.319740	-0.772895	-0.091142	-0.540456
24414		7.520386	7.441556	-1.856680	-0.405739	-0.024324	0.492376	-0.447754	-0.614502	0.658203	-0.320286	-0.771990	-0.083482	-0.542659
24415		7.804954	7.051559	-2.129512	-0.458343	-0.069995	0.597899	-0.449219	-0.609375	0.655762	-0.320667	-0.771235	-0.074228	-0.544849
24416		7.523898	6.578786	-2.474906	-0.341453	-0.083249	0.689154	-0.454834	-0.604004	0.648682	-0.319273	-0.771051	-0.064849	-0.547120
24417		7.156520	6.869205	-2.675814	-0.380048	-0.088503	0.782270	-0.471680	-0.610596	0.649658	-0.317585	-0.770741	-0.054283	-0.549683
24418		7.708706	5.852384	-3.240183	-0.250380	-0.064666	0.893972	-0.481934	-0.596436	0.647705	-0.313828	-0.770759	-0.043614	-0.552758
24419		7.607075	5.189335	-3.235511	-0.127395	-0.052696	0.931327	-0.493164	-0.583008	0.647217	-0.308565	-0.771090	-0.033496	-0.555954
24420		7.485584	4.430686	-3.978960	-0.020956	-0.044755	0.941851	-0.511475	-0.574219	0.636719	-0.302150	-0.771675	-0.024053	-0.559146
24421		8.615384	4.895981	-3.038722	-0.035926	-0.001686	0.993478	-0.520264	-0.563477	0.645508	-0.295475	-0.771801	-0.014134	-0.562865
24422		8.341947	3.865143	-1.647795	-0.037330	0.209191	0.947637	-0.536377	-0.551758	0.632568	-0.289048	-0.770317	-0.005439	-0.568360
24423		7.771211	5.836666	-0.763306	-0.050308	0.241346	0.974412	-0.546143	-0.535156	0.632080	-0.282523	-0.768437	0.003515	-0.574172
24424		8.755132	4.127936	-0.626735	-0.226298	0.248418	0.958130	-0.562256	-0.522217	0.624023	-0.277749	-0.765765	0.013524	-0.579894
24425		8.833986	3.571390	-1.410772	-0.267036	0.311185	0.932305	-0.578369	-0.522217	0.622314	-0.273512	-0.762375	0.023355	-0.586029
24426		8.515428	3.296547	-2.265650	-0.397826	0.287905	0.916629	-0.599854	-0.508545	0.604736	-0.270598	-0.758587	0.034083	-0.591743
24427		7.908183	3.199342	-2.684729	-0.135844	0.204057	0.927896	-0.617920	-0.494385	0.599121	-0.265034	-0.756175	0.043265	-0.596728
24428		8.916110	2.380991	-1.886589	-0.245200	0.066366	0.898882	-0.620361	-0.484375	0.596191	-0.260602	-0.754335	0.053437	-0.600175
24429		8.915699	0.893308	-2.045598	0.173109	0.142509	0.878007	-0.625244	-0.458496	0.594727	-0.252401	-0.753206	0.060015	-0.604461
24430		8.841330	2.748632	-0.847994	0.180089	0.109734	0.825701	-0.635010	-0.445068	0.589600	-0.244452	-0.752300	0.066125	-0.608207
24431		9.148731	2.023378	-1.032141	0.121264	0.033291	0.770893	-0.645996	-0.430664	0.599854	-0.237403	-0.751753	0.072416	-0.610952
24432		8.997185	2.232131	-1.310548	0.232903	0.094932	0.726569	-0.653809	-0.419678	0.598877	-0.229664	-0.751040	0.077238	-0.614189
24433		9.088076	0.242666	-1.479931	0.430306	0.032167	0.673673	-0.651855	-0.405029	0.589111	-0.220410	-0.751348	0.080237	-0.616813
24434		9.200587	0.512826	-0.347556	0.409623	0.000376	0.539130	-0.655273	-0.391357	0.603760	-0.212350	-0.751907	0.082237	-0.618692
24435		10.151500	-1.017804	0.165705	0.471539	0.003680	0.351791	-0.656982	-0.360352	0.604736	-0.205140	-0.752751	0.081981	-0.620131
24436		10.077198	-0.290951	-0.015079	0.553164	-0.011541	0.190334	-0.665527	-0.351807	0.613037	-0.198369	-0.754046	0.079595	-0.621071
24437		9.772781	0.330805	-0.616838	0.461352	-0.036452	0.034788	-0.664795	-0.345215	0.620605	-0.193640	-0.755427	0.076521	-0.621272
24438		9.653049	1.250308	-0.686339	-0.069307	-0.018919	-0.115149	-0.666748	-0.353760	0.609131	-0.195100	-0.755515	0.076114	-0.620757
24439		10.143341	0.920215	-1.295885	-0.144908	0.045464	-0.182040	-0.666992	-0.362793	0.613525	-0.197865	-0.754977	0.075518	-0.620610
24440		9.428385	2.070146	-2.187250	0.131827	-0.022353	-0.162078	-0.658447	-0.353271	0.619629	-0.197799	-0.755625	0.073136	-0.620127
24441		8.978682	4.286462	-1.772073	0.120935	-0.001443	-0.080280	-0.657715	-0.364746	0.610840	-0.197207	-0.756008	0.071544	-0.620035
24442		9.615047	3.456891	-1.086963	-0.197013	0.065467	-0.023584	-0.662598	-0.364502	0.597656	-0.199258	-0.755032	0.072802	-0.620422
24443		9.603956	0.814936	-2.189683	-0.324151	-0.036718	-0.004600	-0.656494	-0.367188	0.603516	-0.202264	-0.754506	0.075473	-0.619770
24444		9.211488	1.901240	-1.777087	-0.017452	-0.009913	-0.022434	-0.658203	-0.373047	0.608154	-0.202535	-0.754559	0.075529	-0.619610
24445		9.344420	1.518781	-1.449667	-0.029673	-0.032008	-0.058388	-0.664795	-0.374756	0.612061	-0.203182	-0.754786	0.075402	-0.619137
24446		9.598636	1.817782	-1.705577	0.017282	-0.054303	-0.065916	-0.656494	-0.374268	0.611084	-0.203421	-0.755311	0.074896	-0.618479
24447		9.388370	2.261678	-1.549817	0.031694	-0.035078	-0.058010	-0.662109	-0.374512	0.608887	-0.203482	-0.755716	0.074306	-0.618035
24448		9.299091	2.009326	-1.164442	0.080001	-0.023074	-0.054256	-0.662109	-0.370361	0.607666	-0.203068	-0.756146	0.073347	-0.617759
24449		9.603749	1.803006	-1.085854	-0.100891	-0.011825	-0.087330	-0.664307	-0.365723	0.611572	-0.204625	-0.756060	0.073439	-0.617340
24450		9.471617	1.322598	-1.752133	-0.022241	-0.053614	-0.118124	-0.657959	-0.370361	0.614990	-0.205625	-0.756525	0.072727	-0.616522
24451		9.337289	2.123689	-1.620182	0.041598	-0.067849	-0.126846	-0.657227	-0.385742	0.620605	-0.206079	-0.757271	0.071483	-0.615600
24452		9.478650	1.826158	-1.059860	0.009667	-0.043628	-0.146794	-0.649658	-0.377197	0.618408	-0.207028	-0.757761	0.070251	-0.614819
24453		9.637628	1.671229	-1.080739	-0.084464	-0.037825	-0.189708	-0.650879	-0.387939	0.616211	-0.209189	-0.757999	0.069308	-0.613901
24454		9.602769	2.030689	-0.630450	-0.230685	0.045522	-0.248101	-0.650146	-0.388428	0.607422	-0.213263	-0.757253	0.068728	-0.613484
24455		9.752345	1.669783	-0.514073	-0.656355	0.238499	-0.355380	-0.648682	-0.408203	0.605225	-0.222335	-0.753941	0.069871	-0.614213
24456		9.434880	-0.396470	-2.287292	0.010777	0.056788	-0.406925	-0.655273	-0.417480	0.608398	-0.225347	-0.753880	0.065910	-0.613628
24457		9.314065	0.599352	-1.773936	-0.005922	-0.046534	-0.508841	-0.640381	-0.420898	0.605713	-0.229205	-0.754624	0.061414	-0.611749
24458		8.763947	1.817397	-0.862810	0.184952	-0.055626	-0.575242	-0.637695	-0.430908	0.613281	-0.231750	-0.756000	0.054858	-0.609710
24459		8.194521	4.235752	-1.259991	-0.055663	-0.100469	-0.604707	-0.630371	-0.439941	0.610596	-0.236752	-0.756999	0.049987	-0.606961
24460		9.765131	1.704309	-1.806121	0.062147	-0.087196	-0.542671	-0.624023	-0.446533	0.609375	-0.240164	-0.758168	0.044763	-0.604566
24461		9.319726	1.849427	-1.563752	0.329312	-0.028870	-0.577457	-0.616455	-0.452881	0.607910	-0.241326	-0.759673	0.037018	-0.602735
24462		8.374608	4.671041	-0.562731	0.006400	-0.213715	-0.647301	-0.607178	-0.466553	0.621094	-0.245989	-0.761574	0.031614	-0.598745
24463		8.642908	2.431100	-1.302534	-0.064458	-0.269261	-0.729788	-0.600098	-0.473389	0.626465	-0.251900	-0.763647	0.026115	-0.593892
24464		9.245478	2.341409	-2.034557	-0.152808	-0.272175	-0.771418	-0.581055	-0.494141	0.621338	-0.258921	-0.765402	0.020866	-0.588799
24465		7.748421	5.338342	-2.642706	0.173665	-0.224425	-0.690690	-0.569580	-0.498779	0.627197	-0.262238	-0.767766	0.013864	-0.584444
24466		8.466485	3.863285	-2.702002	-0.046259	-0.234504	-0.672623	-0.566162	-0.501221	0.630371	-0.267502	-0.769419	0.008661	-0.579967
24467		10.406397	1.332436	-1.549255	-0.053196	-0.201148	-0.826438	-0.553711	-0.518066	0.635254	-0.273902	-0.770752	0.001890	-0.575253
24468		7.676328	3.981733	-2.100865	0.418934	-0.049665	-0.751965	-0.542480	-0.518066	0.648193	-0.275198	-0.772524	-0.008060	-0.572195
24469		7.578031	8.118708	-1.180696	-0.106637	-0.186041	-0.663646	-0.530518	-0.529785	0.650391	-0.280911	-0.773405	-0.012950	-0.568125
24470		8.429039	4.824830	-2.257286	0.002359	-0.158193	-0.571552	-0.517822	-0.536133	0.651367	-0.284894	-0.774436	-0.017832	-0.564594
24471		10.089562	4.451085	-1.796019	-0.154666	-0.144821	-0.646015	-0.511719	-0.559326	0.650391	-0.290904	-0.774750	-0.022372	-0.560925
24472		7.887253	5.098410	-1.819344	0.020697	-0.085338	-0.676764	-0.496826	-0.560547	0.650146	-0.295421	-0.775218	-0.028614	-0.557624
24473		7.748414	4.340562	-1.618848	-0.147838	-0.111718	-0.674442	-0.494629	-0.581543	0.660400	-0.301531	-0.775194	-0.033578	-0.554099
24474		8.407794	6.112198	-2.086940	-0.183030	-0.174068	-0.610790	-0.481934	-0.585205	0.650146	-0.307549	-0.775442	-0.037439	-0.550183
24475		8.029905	5.136397	-2.159129	-0.066993	-0.116494	-0.579641	-0.473145	-0.583252	0.656982	-0.312179	-0.775706	-0.042019	-0.546863
24476		7.062296	5.330531	-2.006965	-0.149565	-0.101848	-0.550240	-0.472656	-0.603516	0.663574	-0.317354	-0.775525	-0.045849	-0.543825
24477		8.311620	6.222257	-3.425503	-0.085833	-0.110187	-0.450724	-0.460205	-0.612793	0.661621	-0.321240	-0.775677	-0.049095	-0.541035
24478		8.483901	5.064066	-2.704454	0.134667	0.028809	-0.456580	-0.449463	-0.609375	0.664062	-0.322943	-0.775748	-0.054434	-0.539407
24479		8.151145	5.584472	-2.104390	0.072169	0.087445	-0.481955	-0.445557	-0.620361	0.657471	-0.325366	-0.775127	-0.059837	-0.538271
24480		6.219210	6.260308	-2.150077	0.228178	0.058709	-0.417613	-0.437744	-0.613281	0.657959	-0.325864	-0.775354	-0.065533	-0.536977
24481		8.394049	6.053944	-2.312764	0.090934	0.038777	-0.337733	-0.439941	-0.618652	0.658936	-0.327157	-0.775200	-0.069463	-0.535917
24482		8.495801	5.652482	-2.235148	0.276037	0.128541	-0.370297	-0.433594	-0.617432	0.673340	-0.326789	-0.775154	-0.075313	-0.535419
24483		6.533030	6.343617	-2.574320	0.154475	0.115518	-0.358648	-0.430908	-0.624023	0.668213	-0.327517	-0.774686	-0.080190	-0.534942
24484		7.684135	7.020091	-2.497409	0.030971	0.094351	-0.259902	-0.436523	-0.616699	0.662354	-0.328805	-0.773940	-0.083186	-0.534774
24485		8.473947	6.326968	-1.778714	0.117995	0.164917	-0.235059	-0.430664	-0.632568	0.666016	-0.328997	-0.773094	-0.086828	-0.535301
24486		6.845736	5.946214	-1.897629	0.124149	0.169978	-0.233989	-0.423340	-0.632080	0.670898	-0.329126	-0.772232	-0.090502	-0.535857
24487		6.886220	6.594192	-1.785561	0.055977	0.102339	-0.174003	-0.431152	-0.625488	0.666992	-0.329585	-0.771602	-0.092864	-0.536079
24488		8.180015	6.946771	-2.111765	0.063013	0.108530	-0.110251	-0.424805	-0.628906	0.666016	-0.329530	-0.771027	-0.094697	-0.536618
24489		7.782827	6.591798	-2.290590	0.056750	0.107686	-0.112322	-0.425049	-0.623047	0.664551	-0.329556	-0.770428	-0.096496	-0.537142
24490		6.865407	4.036265	-2.384668	-0.043141	0.011202	-0.131834	-0.425049	-0.624756	0.662598	-0.330785	-0.770039	-0.097422	-0.536778
24491		7.397982	6.147507	-1.710141	0.231135	0.093613	-0.141001	-0.429688	-0.626221	0.664795	-0.329333	-0.770214	-0.100614	-0.536831
24492		7.938224	6.205696	-1.207043	0.100679	0.084317	-0.164732	-0.419922	-0.619385	0.669922	-0.329306	-0.769877	-0.103118	-0.536856
24493		6.804010	5.563528	-1.240082	-0.015265	0.059995	-0.194999	-0.429688	-0.625732	0.669434	-0.330622	-0.769182	-0.105043	-0.536669
24494		7.464193	6.900297	-1.842644	0.006228	0.016015	-0.150929	-0.421143	-0.628418	0.667480	-0.331490	-0.768924	-0.106507	-0.536215
24495		8.045188	6.021683	-1.899980	0.001084	0.068704	-0.174863	-0.422119	-0.625244	0.667725	-0.332504	-0.768257	-0.108378	-0.536169
24496		6.852748	6.598820	-2.025373	-0.005556	0.093311	-0.161696	-0.422363	-0.633789	0.668945	-0.333450	-0.767410	-0.110189	-0.536424
24497		7.416175	6.664180	-2.174225	-0.137456	0.068781	-0.128739	-0.426025	-0.630859	0.666748	-0.335479	-0.766220	-0.110691	-0.536757
24498		7.790151	6.382994	-1.886999	-0.040143	0.092470	-0.112568	-0.409180	-0.632812	0.657715	-0.336423	-0.765297	-0.111802	-0.537253
24499		6.819465	6.573536	-1.653856	-0.007975	0.079765	-0.086333	-0.417480	-0.639160	0.656738	-0.336915	-0.764632	-0.112807	-0.537682
24500		7.531643	7.045571	-1.639645	-0.089639	0.042450	-0.041101	-0.414062	-0.638916	0.660889	-0.337936	-0.763934	-0.112672	-0.538060
24501		7.542962	6.737021	-1.370483	-0.023611	0.055492	-0.016101	-0.420166	-0.643311	0.659180	-0.338135	-0.763463	-0.112807	-0.538576
24502		7.335349	6.425208	-1.460405	-0.112881	0.018032	-0.010059	-0.415039	-0.642090	0.659424	-0.339200	-0.762872	-0.112121	-0.538886
