// Start Time: Unknown
// Update Rate: 40.0Hz
// Filter Profile: human (46.1)
// Firmware Version: 4.6.0
PacketCounter	SampleTimeFine	Acc_X	Acc_Y	Acc_Z	Gyr_X	Gyr_Y	Gyr_Z	Mag_X	Mag_Y	Mag_Z	Quat_q0	Quat_q1	Quat_q2	Quat_q3
23593		9.742831	0.439352	-0.195225	-0.002493	0.005715	0.007119	-0.745361	0.046631	-0.364258	0.693439	-0.065293	-0.711182	-0.095392
23594		9.712118	0.440452	-0.163132	-0.005452	0.004542	0.008162	-0.748779	0.049316	-0.369385	0.693484	-0.065408	-0.711129	-0.095373
23595		9.727789	0.466595	-0.185511	0.003624	0.011067	0.007998	-0.737549	0.056885	-0.379883	0.693598	-0.065436	-0.711028	-0.095280
23596		9.737152	0.463823	-0.185789	0.001727	0.012062	0.006761	-0.743896	0.048340	-0.364258	0.693715	-0.065466	-0.710920	-0.095217
23597		9.716845	0.474580	-0.186465	-0.004188	0.007162	0.004263	-0.746094	0.048828	-0.363525	0.693781	-0.065529	-0.710849	-0.095226
23598		9.727071	0.481756	-0.156732	-0.007933	0.006904	0.005565	-0.743896	0.048340	-0.364502	0.693842	-0.065634	-0.710775	-0.095259
23599		9.750459	0.437823	-0.133774	-0.012998	0.006675	0.009544	-0.741699	0.051270	-0.366699	0.693904	-0.065813	-0.710691	-0.095309
23600		9.732138	0.407979	-0.147779	-0.006375	0.008029	0.012183	-0.735107	0.045410	-0.366455	0.693993	-0.065955	-0.710595	-0.095278
23601		9.733527	0.444749	-0.154340	0.004076	0.009714	0.008539	-0.747559	0.046631	-0.367676	0.694105	-0.065975	-0.710496	-0.095186
23602		9.719302	0.453639	-0.136555	0.003018	0.009306	0.010275	-0.748535	0.048096	-0.370117	0.694218	-0.066017	-0.710395	-0.095090
23603		9.716230	0.422021	-0.134923	0.001174	0.007654	0.010250	-0.740967	0.048096	-0.368652	0.694320	-0.066073	-0.710300	-0.095014
23604		9.758430	0.434471	-0.136265	0.002794	0.003178	0.010944	-0.741699	0.048584	-0.370117	0.694389	-0.066128	-0.710241	-0.094913
23605		9.737115	0.433934	-0.138043	0.004776	0.008725	0.013254	-0.749756	0.044189	-0.366943	0.694517	-0.066177	-0.710129	-0.094781
23606		9.731377	0.489230	-0.110503	0.010134	0.009214	0.019243	-0.740723	0.049316	-0.370850	0.694662	-0.066224	-0.710013	-0.094558
23607		9.703911	0.488105	-0.100541	0.002625	-0.001680	0.014304	-0.745361	0.037842	-0.368164	0.694706	-0.066301	-0.709978	-0.094441
23608		9.721353	0.444676	-0.128441	-0.009196	0.003898	0.006878	-0.744385	0.049805	-0.370605	0.694785	-0.066378	-0.709882	-0.094528
23609		9.718647	0.443866	-0.167196	-0.007674	0.006874	0.007163	-0.737549	0.045410	-0.375488	0.694898	-0.066454	-0.709757	-0.094585
23610		9.780957	0.415137	-0.156394	-0.006184	0.004573	0.009067	-0.739502	0.054932	-0.371582	0.694994	-0.066533	-0.709651	-0.094613
23611		9.737043	0.408008	-0.162984	-0.010900	-0.005696	0.010490	-0.738770	0.049316	-0.372803	0.694985	-0.066702	-0.709641	-0.094641
23612		9.713283	0.387928	-0.136340	-0.005570	-0.001202	0.012170	-0.745605	0.045654	-0.363770	0.695022	-0.066825	-0.709596	-0.094620
23613		9.734848	0.382963	-0.132611	0.006884	0.005613	0.008295	-0.745605	0.055664	-0.372559	0.695099	-0.066792	-0.709533	-0.094545
23614		9.711073	0.443094	-0.162030	0.004829	0.001356	0.007865	-0.735352	0.052490	-0.373779	0.695167	-0.066802	-0.709479	-0.094446
23615		9.722596	0.459510	-0.164844	-0.003130	-0.001713	0.008434	-0.745117	0.043945	-0.365967	0.695199	-0.066898	-0.709442	-0.094413
23616		9.747951	0.434435	-0.143674	-0.008976	-0.001415	0.010103	-0.738281	0.057129	-0.370117	0.695193	-0.067010	-0.709431	-0.094467
23617		9.732490	0.404522	-0.150843	-0.009706	-0.003546	0.009016	-0.740234	0.037842	-0.369141	0.695185	-0.067187	-0.709419	-0.094485
23618		9.709418	0.415917	-0.194140	0.000976	0.002486	0.005257	-0.745361	0.042969	-0.369141	0.695228	-0.067128	-0.709380	-0.094508
23619		9.741161	0.449946	-0.140517	-0.001381	0.000920	0.001998	-0.742188	0.050049	-0.368164	0.695239	-0.067079	-0.709367	-0.094561
23620		9.723742	0.431659	-0.156354	-0.010205	-0.001705	0.005241	-0.749512	0.051514	-0.373047	0.695219	-0.067189	-0.709365	-0.094642
23621		9.708438	0.403094	-0.194289	-0.008705	-0.002249	0.006604	-0.743164	0.046143	-0.370605	0.695215	-0.067273	-0.709355	-0.094688
23622		9.718413	0.409538	-0.135660	-0.004944	-0.000241	0.004772	-0.736816	0.049316	-0.379639	0.695216	-0.067295	-0.709346	-0.094732
23623		9.732362	0.446465	-0.169016	-0.002982	-0.000374	0.006143	-0.735107	0.041260	-0.366943	0.695289	-0.067322	-0.709275	-0.094710
23624		9.710221	0.467078	-0.181112	-0.009946	0.000409	0.008869	-0.745361	0.048096	-0.367676	0.695282	-0.067412	-0.709262	-0.094789
23625		9.691305	0.437071	-0.135551	-0.013378	-0.003322	0.007878	-0.741943	0.045410	-0.377441	0.695220	-0.067549	-0.709298	-0.094887
23626		9.775485	0.436314	-0.163536	-0.018090	-0.004293	0.003373	-0.742432	0.040527	-0.374268	0.695221	-0.067623	-0.709269	-0.095043
23627		9.757461	0.388196	-0.140533	-0.010339	-0.003838	0.002405	-0.735840	0.051270	-0.369385	0.695203	-0.067580	-0.709273	-0.095166
23628		9.697035	0.482326	-0.136890	-0.009696	-0.001791	0.008462	-0.750244	0.043945	-0.375488	0.695198	-0.067745	-0.709258	-0.095203
23629		9.693950	0.451741	-0.168703	-0.016794	-0.003141	0.008357	-0.742676	0.056396	-0.374512	0.695180	-0.067805	-0.709254	-0.095319
23630		9.751042	0.404948	-0.200588	-0.027610	-0.003765	0.003894	-0.745605	0.056885	-0.370605	0.695161	-0.068087	-0.709218	-0.095520
23631		9.738066	0.425798	-0.216401	-0.011714	-0.003312	0.001838	-0.746582	0.042969	-0.370605	0.695111	-0.068235	-0.709241	-0.095613
23632		9.756883	0.402512	-0.152420	-0.014922	-0.002673	0.000715	-0.744385	0.052490	-0.363770	0.695047	-0.068224	-0.709280	-0.095801
23633		9.750683	0.373862	-0.194111	-0.014902	-0.006695	0.005004	-0.741455	0.046631	-0.382080	0.694902	-0.068433	-0.709383	-0.095938
23634		9.741262	0.345510	-0.214298	-0.007496	-0.003042	-0.002000	-0.746826	0.051270	-0.375000	0.694976	-0.068314	-0.709313	-0.096004
23635		9.724869	0.367040	-0.177078	0.010926	0.002078	-0.003594	-0.745361	0.044434	-0.360840	0.695016	-0.068119	-0.709302	-0.095934
23636		9.751172	0.433768	-0.181590	0.005143	0.001095	-0.003818	-0.741455	0.051025	-0.374512	0.694897	-0.067993	-0.709420	-0.096014
23637		9.711080	0.409627	-0.200644	-0.000263	0.000435	0.000938	-0.746582	0.052979	-0.362061	0.694941	-0.067961	-0.709382	-0.095998
23638		9.728781	0.427214	-0.215431	0.002958	0.001556	0.001525	-0.745850	0.034668	-0.378662	0.694836	-0.068024	-0.709478	-0.096008
23639		9.747620	0.482919	-0.176754	0.004345	0.002791	0.001548	-0.746338	0.044678	-0.373291	0.694920	-0.067636	-0.709436	-0.095981
23640		9.706050	0.498090	-0.213129	-0.002476	0.002767	-0.000031	-0.745605	0.049316	-0.375977	0.694937	-0.067506	-0.709426	-0.096026
23641		9.720165	0.486678	-0.196994	-0.006792	0.003497	-0.002647	-0.743896	0.046631	-0.361816	0.694988	-0.067445	-0.709371	-0.096098
23642		9.742731	0.494500	-0.192658	-0.014211	0.003474	-0.002491	-0.739990	0.040771	-0.366211	0.694869	-0.067541	-0.709446	-0.096345
23643		9.733142	0.466171	-0.179986	-0.014626	0.002561	0.000723	-0.743896	0.043457	-0.369629	0.694818	-0.067514	-0.709470	-0.096550
23644		9.735246	0.456307	-0.200977	-0.015352	0.002584	0.001650	-0.740967	0.057373	-0.364014	0.694789	-0.067509	-0.709476	-0.096722
23645		9.710424	0.457865	-0.150639	-0.013041	0.004642	0.001688	-0.744141	0.048340	-0.369385	0.694732	-0.067835	-0.709479	-0.096882
23646		9.732502	0.484959	-0.185801	-0.008390	0.004344	0.003506	-0.750732	0.046387	-0.365967	0.694726	-0.067874	-0.709469	-0.096965
23647		9.688311	0.479220	-0.160524	-0.013646	0.002492	0.001400	-0.739990	0.045898	-0.371338	0.694608	-0.067920	-0.709556	-0.097142
23648		9.789029	0.488055	-0.202158	-0.016199	0.002241	-0.000794	-0.737549	0.053711	-0.358643	0.694626	-0.067917	-0.709515	-0.097317
23649		9.764576	0.411892	-0.187788	-0.010566	0.001874	0.001713	-0.743408	0.043213	-0.372314	0.694492	-0.068207	-0.709592	-0.097507
23650		9.692929	0.516714	-0.157520	0.003337	0.004019	0.008531	-0.737061	0.044922	-0.370361	0.694547	-0.068021	-0.709568	-0.097419
23651		9.691186	0.524885	-0.165481	-0.001842	0.005186	0.008583	-0.740479	0.045410	-0.370850	0.694624	-0.067948	-0.709504	-0.097390
23652		9.730619	0.459916	-0.180687	-0.021996	0.004184	0.006093	-0.745117	0.052246	-0.373291	0.694653	-0.068031	-0.709444	-0.097562
23653		9.733410	0.479610	-0.240540	-0.007060	0.006470	0.002856	-0.745117	0.049072	-0.368896	0.694714	-0.068093	-0.709372	-0.097613
23654		9.744829	0.446511	-0.162776	-0.005245	0.002446	0.001933	-0.739502	0.050049	-0.369141	0.694670	-0.068102	-0.709403	-0.097691
23655		9.751819	0.425480	-0.165810	-0.005987	0.000707	0.003392	-0.745605	0.042725	-0.377686	0.694657	-0.068163	-0.709401	-0.097755
23656		9.730671	0.427649	-0.198702	-0.000360	0.008659	0.005663	-0.737793	0.041992	-0.365723	0.694802	-0.067890	-0.709293	-0.097694
23657		9.731660	0.435473	-0.165868	0.008428	0.006006	0.004059	-0.744141	0.047363	-0.367676	0.694802	-0.067666	-0.709319	-0.097663
23658		9.728439	0.484572	-0.191351	-0.004259	0.004524	0.004640	-0.747314	0.045654	-0.376953	0.694763	-0.067680	-0.709348	-0.097723
23659		9.723250	0.464543	-0.199837	-0.002353	0.005277	0.005346	-0.747070	0.048340	-0.365967	0.694850	-0.067515	-0.709284	-0.097677
23660		9.741531	0.460767	-0.173646	0.000026	0.006055	0.003510	-0.739502	0.045166	-0.368408	0.694776	-0.067533	-0.709348	-0.097733
23661		9.736511	0.469969	-0.159468	-0.005027	0.007200	0.004364	-0.752197	0.051514	-0.369141	0.694802	-0.067486	-0.709318	-0.097795
23662		9.724605	0.471641	-0.195266	-0.007599	0.003045	0.000680	-0.746582	0.052246	-0.365967	0.694703	-0.067590	-0.709389	-0.097911
23663		9.717236	0.462577	-0.182121	-0.003958	0.005081	-0.001935	-0.747070	0.049316	-0.372803	0.694617	-0.067699	-0.709445	-0.098043
23664		9.733584	0.470578	-0.164924	-0.004278	0.006407	-0.001669	-0.747314	0.049072	-0.369873	0.694644	-0.067643	-0.709414	-0.098112
23665		9.727642	0.471604	-0.182083	-0.001490	0.004844	0.002673	-0.742432	0.046875	-0.365967	0.694618	-0.067635	-0.709436	-0.098143
23666		9.723328	0.460428	-0.159479	-0.001849	0.005179	0.008574	-0.742920	0.047607	-0.370850	0.694578	-0.067670	-0.709470	-0.098155
23667		9.736113	0.486470	-0.160321	-0.002687	0.006986	0.008160	-0.737305	0.043945	-0.376953	0.694625	-0.067668	-0.709427	-0.098138
23668		9.726326	0.505409	-0.164507	-0.001779	0.006047	0.008710	-0.745850	0.043945	-0.376465	0.694797	-0.067491	-0.709287	-0.098050
23669		9.726454	0.503357	-0.163202	-0.007635	0.004200	0.008327	-0.743164	0.041992	-0.374512	0.694871	-0.067367	-0.709230	-0.098028
23670		9.724437	0.511257	-0.140417	-0.015580	0.002520	0.005756	-0.736572	0.045410	-0.367188	0.694906	-0.067268	-0.709192	-0.098116
23671		9.749723	0.458600	-0.170763	-0.014940	0.008191	0.004977	-0.746582	0.042480	-0.367920	0.694927	-0.067350	-0.709140	-0.098285
23672		9.721674	0.508597	-0.146640	-0.009766	0.003369	0.011767	-0.742432	0.046875	-0.369141	0.694853	-0.067354	-0.709205	-0.098343
23673		9.700098	0.507606	-0.118454	-0.020376	-0.000415	0.012487	-0.745117	0.048096	-0.377686	0.694790	-0.067565	-0.709229	-0.098469
23674		9.720929	0.444545	-0.128657	-0.030096	0.000786	0.003170	-0.739746	0.050781	-0.366455	0.694834	-0.067676	-0.709147	-0.098670
23675		9.742702	0.442286	-0.155011	-0.013472	0.007766	0.000567	-0.747803	0.051758	-0.373779	0.694815	-0.067850	-0.709120	-0.098878
23676		9.760030	0.430497	-0.159618	-0.007118	0.005221	0.000146	-0.744141	0.048828	-0.366455	0.694834	-0.067879	-0.709089	-0.098952
23677		9.736293	0.413577	-0.163002	-0.010413	-0.002941	0.001656	-0.742432	0.051270	-0.373779	0.694692	-0.067985	-0.709196	-0.099109
23678		9.728545	0.424861	-0.190586	-0.007671	0.002180	0.000524	-0.746826	0.050781	-0.364746	0.694725	-0.068017	-0.709150	-0.099179
23679		9.727952	0.422934	-0.127700	0.004708	0.007119	0.002272	-0.742676	0.045654	-0.368408	0.694645	-0.068053	-0.709220	-0.099216
23680		9.719600	0.453763	-0.162730	-0.000580	0.003899	0.003224	-0.741455	0.047607	-0.372559	0.694620	-0.067958	-0.709250	-0.099243
23681		9.718323	0.493512	-0.179862	-0.005059	-0.000995	-0.001181	-0.747559	0.043945	-0.373047	0.694614	-0.067878	-0.709255	-0.099307
23682		9.756596	0.528137	-0.169017	-0.004182	0.002863	0.000194	-0.739502	0.049561	-0.376465	0.694607	-0.067688	-0.709274	-0.099348
23683		9.753367	0.527108	-0.146332	-0.015245	0.005094	0.006950	-0.747070	0.039795	-0.376221	0.694728	-0.067772	-0.709140	-0.099401
23684		9.717982	0.461124	-0.168792	-0.025337	0.002969	0.010348	-0.740479	0.052490	-0.371582	0.694762	-0.067713	-0.709096	-0.099518
23685		9.702950	0.460992	-0.183285	-0.016133	0.003756	0.010137	-0.741943	0.049316	-0.371338	0.694790	-0.067972	-0.709032	-0.099602
23686		9.720041	0.446058	-0.157631	-0.012252	0.003979	0.009680	-0.750244	0.041504	-0.375244	0.694807	-0.068104	-0.708995	-0.099660
23687		9.747218	0.460996	-0.174392	-0.012702	0.003191	0.007116	-0.739746	0.041504	-0.368896	0.694809	-0.067957	-0.709000	-0.099708
23688		9.752684	0.428410	-0.146527	-0.008430	0.002957	0.006536	-0.750000	0.048340	-0.374268	0.694790	-0.067868	-0.709016	-0.099789
23689		9.733118	0.419577	-0.139602	0.001347	0.006405	0.003413	-0.746826	0.041504	-0.370605	0.694818	-0.067753	-0.709004	-0.099752
23690		9.723899	0.469359	-0.152288	0.005407	0.005707	0.004436	-0.740967	0.045654	-0.375977	0.694808	-0.067507	-0.709042	-0.099717
23691		9.707243	0.509877	-0.153135	0.009554	0.005499	0.003050	-0.736328	0.051270	-0.380371	0.694920	-0.067242	-0.708977	-0.099584
23692		9.727550	0.496672	-0.149039	0.004745	0.004455	0.003475	-0.737061	0.047363	-0.375977	0.695114	-0.067100	-0.708822	-0.099428
23693		9.765132	0.471911	-0.151237	-0.006474	0.004715	0.001622	-0.743896	0.044678	-0.370117	0.695220	-0.067021	-0.708721	-0.099454
23694		9.725867	0.505722	-0.155981	-0.000991	0.002591	0.003877	-0.740723	0.042480	-0.372559	0.695178	-0.066952	-0.708763	-0.099499
23695		9.702600	0.545389	-0.114225	-0.007452	0.002886	0.007221	-0.749512	0.045898	-0.375000	0.695194	-0.066881	-0.708749	-0.099540
23696		9.733490	0.462717	-0.149495	-0.027420	0.000637	0.003547	-0.746582	0.042725	-0.371826	0.695147	-0.066991	-0.708753	-0.099757
23697		9.729175	0.424250	-0.180799	-0.019174	0.003254	0.002130	-0.744873	0.046875	-0.372803	0.695101	-0.066993	-0.708769	-0.099962
23698		9.728227	0.443368	-0.157862	-0.003649	0.002005	-0.001681	-0.742920	0.048828	-0.377930	0.695081	-0.066907	-0.708786	-0.100037
23699		9.759089	0.468781	-0.134534	-0.008777	0.002287	-0.000993	-0.735107	0.048340	-0.372803	0.695148	-0.066833	-0.708722	-0.100076
23700		9.727022	0.434545	-0.157225	-0.017990	-0.000633	-0.002830	-0.747803	0.051025	-0.372559	0.695154	-0.066909	-0.708681	-0.100280
23701		9.737413	0.443883	-0.159403	-0.001456	0.004085	-0.002424	-0.751465	0.047363	-0.374512	0.695132	-0.066893	-0.708695	-0.100338
23702		9.722667	0.504523	-0.129298	-0.003972	0.001193	-0.003437	-0.744629	0.043701	-0.371338	0.695084	-0.066785	-0.708743	-0.100409
23703		9.743244	0.543327	-0.174132	-0.018543	-0.001538	-0.000441	-0.744629	0.041504	-0.371094	0.695000	-0.066814	-0.708791	-0.100629
23704		9.742094	0.483518	-0.157718	-0.024047	-0.003087	0.004108	-0.741943	0.046387	-0.375244	0.694901	-0.066892	-0.708848	-0.100864
23705		9.713278	0.425961	-0.132216	-0.017008	-0.000485	0.006162	-0.740967	0.044434	-0.368164	0.694913	-0.066957	-0.708817	-0.100952
23706		9.721782	0.464423	-0.182775	-0.004745	0.004467	0.007152	-0.738525	0.050293	-0.372559	0.694888	-0.066990	-0.708828	-0.101025
23707		9.725769	0.493413	-0.211925	-0.005786	0.001167	0.001745	-0.738037	0.045898	-0.369141	0.694905	-0.067042	-0.708799	-0.101078
23708		9.726014	0.471781	-0.172203	-0.016529	-0.000446	0.003620	-0.742676	0.043945	-0.366699	0.694853	-0.067165	-0.708812	-0.101261
23709		9.715652	0.462131	-0.169145	-0.010468	0.002228	0.004987	-0.744141	0.040283	-0.365479	0.694771	-0.067233	-0.708864	-0.101411
23710		9.733225	0.477945	-0.152302	0.004852	0.002654	0.004826	-0.740967	0.048340	-0.374023	0.694681	-0.067100	-0.708961	-0.101439
23711		9.740771	0.536357	-0.180351	0.006546	0.004848	0.000860	-0.752930	0.047852	-0.374268	0.694747	-0.066969	-0.708918	-0.101378
23712		9.720810	0.576989	-0.159952	-0.005928	0.001567	0.003484	-0.743408	0.046875	-0.376709	0.694705	-0.066958	-0.708956	-0.101403
23713		9.709616	0.508921	-0.170791	-0.019660	0.003213	0.004631	-0.743408	0.046387	-0.382568	0.694757	-0.067024	-0.708883	-0.101512
23714		9.709050	0.478420	-0.161961	-0.011063	-0.000287	0.002137	-0.745361	0.042969	-0.367676	0.694856	-0.066901	-0.708800	-0.101498
23715		9.798921	0.525901	-0.155738	-0.004911	0.002883	0.001104	-0.743164	0.051758	-0.375732	0.694777	-0.066865	-0.708863	-0.101628
23716		9.738265	0.512383	-0.146364	-0.009392	0.006917	0.007316	-0.738281	0.040039	-0.370117	0.694862	-0.066974	-0.708768	-0.101630
23717		9.704261	0.534536	-0.162790	-0.012992	0.006109	0.012576	-0.743896	0.044922	-0.373047	0.694890	-0.067013	-0.708727	-0.101707
23718		9.687061	0.493821	-0.138868	-0.013900	-0.001639	0.009683	-0.739746	0.043945	-0.375488	0.694851	-0.067094	-0.708748	-0.101770
23719		9.721133	0.488891	-0.159887	-0.015121	0.002552	0.003116	-0.737061	0.047119	-0.376465	0.694896	-0.067067	-0.708691	-0.101874
23720		9.737898	0.496746	-0.173602	-0.006453	0.006477	0.001087	-0.748535	0.044678	-0.372559	0.695008	-0.066991	-0.708584	-0.101905
23721		9.773293	0.481149	-0.153628	-0.006368	0.005051	0.004962	-0.744141	0.039551	-0.375732	0.694993	-0.066964	-0.708594	-0.101959
23722		9.721206	0.436462	-0.139726	-0.010319	-0.000463	0.006961	-0.744873	0.045166	-0.363525	0.694989	-0.066855	-0.708602	-0.101996
23723		9.720075	0.425275	-0.139943	0.004439	0.001336	0.005482	-0.743652	0.041504	-0.370361	0.694858	-0.066898	-0.708717	-0.102064
23724		9.739646	0.459308	-0.091237	0.017655	0.006728	0.003987	-0.744385	0.044189	-0.369385	0.694879	-0.066626	-0.708741	-0.101938
23725		9.724634	0.531376	-0.161544	0.009351	0.007141	0.006718	-0.737549	0.040527	-0.372803	0.694884	-0.066523	-0.708754	-0.101872
23726		9.721818	0.530254	-0.169482	0.001095	0.004527	0.008093	-0.743652	0.048340	-0.371094	0.694940	-0.066389	-0.708719	-0.101821
23727		9.723673	0.517810	-0.159825	-0.003350	0.001266	0.008892	-0.747070	0.045166	-0.375488	0.694911	-0.066486	-0.708739	-0.101821
23728		9.727934	0.524769	-0.149584	-0.006017	0.003202	0.007898	-0.742432	0.049561	-0.376221	0.694931	-0.066466	-0.708724	-0.101803
23729		9.741885	0.531527	-0.172642	-0.005424	0.005714	0.010740	-0.744141	0.048340	-0.374756	0.695012	-0.066537	-0.708646	-0.101744
23730		9.727445	0.511498	-0.178370	-0.010561	0.003868	0.009386	-0.741699	0.053223	-0.369873	0.695040	-0.066638	-0.708606	-0.101763
23731		9.709615	0.491235	-0.162685	-0.013982	0.004059	0.009830	-0.733887	0.044678	-0.369873	0.695025	-0.066931	-0.708580	-0.101861
23732		9.724054	0.478239	-0.177253	-0.006658	0.003718	0.006406	-0.744141	0.047119	-0.378418	0.695045	-0.066965	-0.708547	-0.101928
23733		9.745080	0.473320	-0.141850	-0.001069	0.006135	0.002022	-0.744385	0.044189	-0.375000	0.695132	-0.066840	-0.708478	-0.101894
23734		9.750004	0.511395	-0.139245	-0.003218	0.003160	0.003415	-0.737793	0.045166	-0.365967	0.695148	-0.066744	-0.708470	-0.101904
23735		9.722595	0.464313	-0.143372	-0.006213	0.004494	0.008963	-0.745361	0.048828	-0.366943	0.695109	-0.066864	-0.708484	-0.101992
23736		9.704719	0.444234	-0.127802	-0.003721	0.003483	0.008486	-0.736084	0.042969	-0.368408	0.695038	-0.067007	-0.708533	-0.102045
23737		9.786516	0.472171	-0.140234	0.003995	0.002683	0.004942	-0.744629	0.043213	-0.381348	0.695027	-0.066917	-0.708554	-0.102037
23738		9.731136	0.477905	-0.121550	0.007213	0.003949	-0.000180	-0.740723	0.054932	-0.378906	0.695126	-0.066603	-0.708503	-0.101919
23739		9.710161	0.607325	-0.103855	0.002042	0.004971	0.005573	-0.739014	0.048096	-0.367920	0.695230	-0.066641	-0.708410	-0.101825
23740		9.677843	0.521247	-0.109626	-0.021713	0.000603	0.009314	-0.736572	0.046387	-0.378418	0.695162	-0.066931	-0.708423	-0.102018
23741		9.746618	0.465114	-0.196634	-0.031331	0.000462	0.003826	-0.735352	0.044678	-0.363770	0.695206	-0.067096	-0.708331	-0.102242
23742		9.739832	0.464388	-0.153528	-0.015190	-0.002919	-0.003652	-0.747559	0.037842	-0.372803	0.695067	-0.067194	-0.708417	-0.102523
23743		9.762398	0.451150	-0.110693	-0.008762	-0.000185	-0.005595	-0.740723	0.043945	-0.368408	0.694996	-0.066973	-0.708487	-0.102669
23744		9.730215	0.417532	-0.133801	-0.013128	0.001682	-0.000620	-0.743164	0.049316	-0.370850	0.694933	-0.067008	-0.708518	-0.102859
23745		9.722415	0.400277	-0.183403	0.002285	0.002774	0.005168	-0.745361	0.043945	-0.370605	0.694916	-0.067033	-0.708534	-0.102846
23746		9.716727	0.456896	-0.125557	0.014304	-0.000926	0.002264	-0.749756	0.042969	-0.362549	0.694860	-0.066830	-0.708624	-0.102739
23747		9.746754	0.542449	-0.159174	0.007412	0.000357	0.002482	-0.749756	0.050049	-0.374756	0.694703	-0.066760	-0.708781	-0.102762
23748		9.733406	0.533989	-0.165331	0.003650	0.004537	0.002008	-0.744873	0.050781	-0.373047	0.694714	-0.066722	-0.708778	-0.102732
23749		9.720056	0.525673	-0.171149	-0.001364	0.002666	0.001453	-0.739990	0.045898	-0.376465	0.694708	-0.066759	-0.708776	-0.102767
23750		9.724707	0.535424	-0.191941	-0.005009	0.000259	0.001467	-0.744141	0.048096	-0.374512	0.694736	-0.066704	-0.708749	-0.102794
23751		9.713815	0.546397	-0.197493	-0.007303	0.002106	0.002888	-0.750244	0.043457	-0.373535	0.694740	-0.066740	-0.708734	-0.102851
23752		9.725245	0.514159	-0.182611	-0.010018	0.000517	0.002933	-0.744873	0.039062	-0.366943	0.694688	-0.066720	-0.708776	-0.102927
23753		9.725257	0.514056	-0.182260	-0.012005	0.001210	-0.001666	-0.736084	0.049561	-0.372070	0.694594	-0.066659	-0.708848	-0.103101
23754		9.733555	0.532212	-0.162267	-0.006867	0.003049	-0.000304	-0.750488	0.041504	-0.377197	0.694616	-0.066718	-0.708805	-0.103207
23755		9.728208	0.513162	-0.171655	-0.012388	0.001496	0.004207	-0.738281	0.038818	-0.370850	0.694611	-0.066663	-0.708808	-0.103261
23756		9.723227	0.521364	-0.158384	-0.012182	0.002158	0.010902	-0.740723	0.048340	-0.374756	0.694612	-0.066677	-0.708800	-0.103298
23757		9.695218	0.541988	-0.157546	-0.013139	-0.000426	0.011385	-0.741943	0.043701	-0.376221	0.694618	-0.066846	-0.708774	-0.103328
23758		9.665456	0.552412	-0.126414	-0.017083	0.000431	0.005393	-0.743896	0.047852	-0.372314	0.694630	-0.066890	-0.708744	-0.103424
23759		9.841312	0.560354	-0.159781	-0.020488	0.002566	-0.000440	-0.742920	0.041504	-0.378906	0.694602	-0.067021	-0.708727	-0.103642
23760		9.739533	0.472345	-0.123906	-0.022506	0.001504	0.009512	-0.750000	0.038574	-0.373047	0.694645	-0.067080	-0.708667	-0.103727
23761		9.673698	0.537730	-0.128062	-0.014586	-0.000762	0.010656	-0.736816	0.041260	-0.371582	0.694586	-0.067091	-0.708718	-0.103774
23762		9.709988	0.500755	-0.132011	-0.024170	-0.001604	0.014100	-0.742432	0.052002	-0.370605	0.694561	-0.067275	-0.708707	-0.103889
23763		9.743408	0.416189	-0.159440	-0.028431	0.000586	0.008372	-0.744629	0.047607	-0.376221	0.694512	-0.067636	-0.708687	-0.104120
23764		9.757784	0.473939	-0.199148	0.003853	0.005362	0.002975	-0.736084	0.042236	-0.376953	0.694571	-0.067519	-0.708649	-0.104057
23765		9.722872	0.496147	-0.154221	0.008714	0.005678	-0.002488	-0.739502	0.035156	-0.369385	0.694673	-0.067215	-0.708589	-0.103983
23766		9.725778	0.495652	-0.144520	-0.003183	-0.001996	0.000018	-0.743896	0.047363	-0.370117	0.694608	-0.067015	-0.708663	-0.104045
23767		9.756509	0.512664	-0.183267	0.002114	0.003693	0.003707	-0.748291	0.044678	-0.373047	0.694593	-0.066999	-0.708679	-0.104047
23768		9.702364	0.505492	-0.124502	0.008191	0.006159	0.010861	-0.749023	0.046631	-0.373047	0.694624	-0.066914	-0.708678	-0.103904
23769		9.699355	0.496638	-0.194752	-0.002159	0.003754	0.009990	-0.742920	0.041016	-0.374268	0.694620	-0.066948	-0.708684	-0.103863
23770		9.730580	0.540178	-0.209820	0.008849	0.005275	0.009801	-0.744141	0.040039	-0.366699	0.694676	-0.066774	-0.708669	-0.103703
23771		9.734728	0.574061	-0.145855	0.005706	0.000257	0.008456	-0.750732	0.042725	-0.371338	0.694604	-0.066693	-0.708756	-0.103649
23772		9.730277	0.583696	-0.163340	-0.004190	0.005360	0.004730	-0.741943	0.037842	-0.380615	0.694582	-0.066653	-0.708776	-0.103682
23773		9.721149	0.535104	-0.173475	-0.012289	0.004136	0.003805	-0.742432	0.052246	-0.373291	0.694667	-0.066493	-0.708706	-0.103693
23774		9.716697	0.496582	-0.205206	-0.003391	0.001779	0.005655	-0.745117	0.050293	-0.371094	0.694669	-0.066596	-0.708693	-0.103704
23775		9.750655	0.519129	-0.172102	-0.002240	0.003071	0.004100	-0.742676	0.047363	-0.371826	0.694648	-0.066665	-0.708701	-0.103740
23776		9.742625	0.506996	-0.128630	-0.007350	0.002824	0.007946	-0.741455	0.046875	-0.371582	0.694644	-0.066756	-0.708692	-0.103773
23777		9.717581	0.478683	-0.131969	-0.001859	0.007217	0.010558	-0.746094	0.049561	-0.371582	0.694689	-0.066809	-0.708648	-0.103739
23778		9.714121	0.516780	-0.156487	0.003422	0.006344	0.013914	-0.736816	0.045410	-0.373047	0.694715	-0.066890	-0.708630	-0.103636
23779		9.698598	0.555847	-0.187916	-0.003192	0.002242	0.018075	-0.747559	0.046631	-0.371826	0.694755	-0.066987	-0.708597	-0.103529
23780		9.706983	0.548390	-0.128614	-0.012294	0.001650	0.013246	-0.744873	0.037109	-0.374268	0.694721	-0.067149	-0.708611	-0.103558
23781		9.801138	0.524398	-0.148519	-0.011012	0.005217	0.008779	-0.738525	0.049561	-0.372070	0.694747	-0.067074	-0.708591	-0.103574
23782		9.718633	0.484360	-0.165683	-0.003944	0.005106	0.012066	-0.744385	0.042969	-0.370361	0.694787	-0.067191	-0.708544	-0.103546
23783		9.707584	0.588575	-0.110899	-0.000995	0.002188	0.015331	-0.747314	0.040283	-0.378906	0.694769	-0.067222	-0.708571	-0.103459
23784		9.715671	0.525203	-0.128462	-0.017908	-0.000765	0.017568	-0.739746	0.048584	-0.368408	0.694778	-0.067299	-0.708560	-0.103426
23785		9.727154	0.462489	-0.167291	-0.020704	0.003886	0.014583	-0.743164	0.038574	-0.377686	0.694759	-0.067598	-0.708531	-0.103553
23786		9.732071	0.469442	-0.187379	-0.003975	0.003335	0.012573	-0.739258	0.041992	-0.374268	0.694816	-0.067477	-0.708504	-0.103442
23787		9.739762	0.502998	-0.144410	-0.001376	0.004949	0.011736	-0.738281	0.048584	-0.368164	0.694872	-0.067412	-0.708468	-0.103353
23788		9.758225	0.449281	-0.164369	-0.006541	-0.001301	0.012042	-0.751221	0.046631	-0.375732	0.694818	-0.067574	-0.708502	-0.103377
23789		9.730392	0.469533	-0.163421	0.002536	0.004606	0.014521	-0.741455	0.048340	-0.364502	0.694843	-0.067560	-0.708499	-0.103233
23790		9.707336	0.458229	-0.135072	0.007193	0.006559	0.012687	-0.750244	0.050049	-0.371582	0.694828	-0.067626	-0.708518	-0.103166
23791		9.734410	0.512224	-0.168119	-0.002222	0.002333	0.013009	-0.740479	0.049072	-0.372803	0.694795	-0.067737	-0.708546	-0.103121
23792		9.742545	0.497587	-0.170835	0.000030	0.003312	0.018684	-0.752686	0.049072	-0.369141	0.694829	-0.067845	-0.708521	-0.102990
23793		9.718463	0.455286	-0.134957	-0.006084	0.003706	0.018620	-0.747070	0.045654	-0.370605	0.694783	-0.068037	-0.708555	-0.102945
23794		9.725363	0.472402	-0.185431	-0.005248	0.004201	0.015318	-0.740967	0.054199	-0.375244	0.694774	-0.068115	-0.708564	-0.102893
23795		9.738175	0.495668	-0.154888	-0.004843	0.006055	0.011485	-0.747314	0.047852	-0.364014	0.694837	-0.068250	-0.708493	-0.102870
23796		9.720892	0.456326	-0.161913	-0.009169	0.002427	0.010508	-0.735596	0.041504	-0.370361	0.694746	-0.068406	-0.708556	-0.102944
23797		9.727385	0.453364	-0.173344	-0.011538	0.003413	0.011769	-0.738525	0.047852	-0.373047	0.694764	-0.068425	-0.708536	-0.102949
23798		9.734862	0.437775	-0.145086	-0.003842	0.002750	0.016538	-0.739990	0.051758	-0.365723	0.694797	-0.068507	-0.708509	-0.102856
23799		9.734052	0.472750	-0.130360	-0.001742	0.002186	0.016199	-0.740967	0.045898	-0.366455	0.694759	-0.068694	-0.708533	-0.102818
23800		9.724824	0.490236	-0.134778	-0.002525	0.005771	0.015274	-0.740967	0.050781	-0.368896	0.694757	-0.068759	-0.708537	-0.102757
23801		9.724468	0.458142	-0.156355	-0.008330	0.004849	0.014937	-0.741943	0.045898	-0.367920	0.694760	-0.068938	-0.708517	-0.102761
23802		9.709238	0.435791	-0.131522	-0.002606	0.004904	0.015124	-0.739746	0.049072	-0.374756	0.694759	-0.068983	-0.708524	-0.102686
23803		9.769040	0.434200	-0.138639	-0.001253	0.002237	0.013678	-0.741699	0.053223	-0.372803	0.694795	-0.069011	-0.708501	-0.102586
23804		9.745723	0.443219	-0.119154	0.001432	0.004710	0.012991	-0.745117	0.048096	-0.372559	0.694829	-0.069095	-0.708471	-0.102510
23805		9.705808	0.485261	-0.131706	0.008625	0.009316	0.017925	-0.742432	0.048096	-0.372070	0.694904	-0.069063	-0.708430	-0.102300
23806		9.714166	0.430293	-0.117056	0.001313	0.002078	0.013356	-0.741211	0.044434	-0.378418	0.694907	-0.069065	-0.708443	-0.102190
23807		9.716283	0.438730	-0.146915	-0.003424	0.002136	0.008146	-0.745361	0.042725	-0.366943	0.694957	-0.068949	-0.708418	-0.102104
23808		9.749691	0.451744	-0.144804	0.001484	0.004005	0.007928	-0.750244	0.049805	-0.376709	0.694922	-0.068847	-0.708471	-0.102044
23809		9.755692	0.427091	-0.116639	0.001363	0.005962	0.014851	-0.737305	0.049072	-0.364258	0.694969	-0.068858	-0.708443	-0.101910
23810		9.728047	0.420376	-0.169218	-0.003331	-0.000215	0.012641	-0.744141	0.046143	-0.381104	0.694904	-0.068976	-0.708496	-0.101903
23811		9.699733	0.439643	-0.137573	0.003838	0.002815	0.012376	-0.744385	0.046143	-0.374023	0.694980	-0.068841	-0.708463	-0.101707
23812		9.755885	0.458706	-0.131559	-0.001793	0.003832	0.006616	-0.743652	0.051758	-0.366211	0.694996	-0.068760	-0.708461	-0.101659
23813		9.726151	0.442710	-0.153716	-0.014607	0.001624	0.006828	-0.736084	0.046875	-0.375000	0.694921	-0.068960	-0.708493	-0.101816
23814		9.728356	0.431961	-0.175422	-0.012080	-0.000306	0.007026	-0.736328	0.053467	-0.368896	0.694931	-0.068973	-0.708479	-0.101840
23815		9.724280	0.428294	-0.122793	-0.014100	0.001127	0.007500	-0.744629	0.051514	-0.372803	0.694900	-0.069172	-0.708471	-0.101969
23816		9.725120	0.407469	-0.144254	-0.012520	0.006191	0.009857	-0.740723	0.053223	-0.374756	0.694920	-0.069308	-0.708429	-0.102032
23817		9.758583	0.392929	-0.195233	-0.006369	0.004873	0.010583	-0.739258	0.044434	-0.370117	0.694962	-0.069408	-0.708379	-0.102027
23818		9.726763	0.411992	-0.141292	-0.003253	0.003311	0.011603	-0.736572	0.043457	-0.373047	0.694970	-0.069367	-0.708386	-0.101949
23819		9.704087	0.423435	-0.152634	-0.004710	0.003549	0.007704	-0.740479	0.045654	-0.375244	0.695005	-0.069263	-0.708371	-0.101887
23820		9.731063	0.457509	-0.146457	0.000683	0.003350	0.002976	-0.737549	0.044922	-0.365234	0.695039	-0.069095	-0.708364	-0.101823
23821		9.740347	0.455554	-0.148470	-0.000948	0.004324	0.003327	-0.741455	0.043701	-0.371826	0.695013	-0.069019	-0.708393	-0.101843
23822		9.743269	0.453606	-0.138003	-0.005377	0.004984	0.005569	-0.747803	0.041016	-0.375732	0.695031	-0.068925	-0.708388	-0.101824
23823		9.735590	0.442423	-0.125191	-0.009690	0.002938	0.009777	-0.739990	0.047363	-0.381836	0.695040	-0.068835	-0.708396	-0.101764
23824		9.698075	0.416902	-0.135618	-0.005888	0.002812	0.006059	-0.735107	0.045410	-0.369141	0.695118	-0.068721	-0.708343	-0.101679
23825		9.774099	0.443972	-0.134939	-0.002851	0.003052	0.005769	-0.739990	0.052002	-0.376465	0.695118	-0.068669	-0.708349	-0.101671
23826		9.766401	0.432896	-0.122422	-0.006386	0.002755	0.008560	-0.741699	0.054688	-0.368896	0.695153	-0.068716	-0.708313	-0.101652
23827		9.708212	0.478503	-0.129817	-0.010605	0.003690	0.014920	-0.743896	0.045410	-0.366699	0.695134	-0.068981	-0.708297	-0.101713
23828		9.699178	0.436539	-0.109963	-0.012481	-0.002509	0.008288	-0.738037	0.051270	-0.377197	0.695032	-0.069069	-0.708377	-0.101794
23829		9.733313	0.431456	-0.131213	-0.016820	-0.000222	0.001788	-0.745605	0.048340	-0.373779	0.695036	-0.069122	-0.708352	-0.101907
23830		9.764553	0.428406	-0.161353	-0.012347	0.000884	-0.000962	-0.741943	0.047607	-0.367188	0.695000	-0.069102	-0.708372	-0.102027
23831		9.779514	0.405282	-0.137145	-0.014759	0.000109	0.000798	-0.745605	0.052490	-0.371338	0.694921	-0.069168	-0.708417	-0.102202
23832		9.702128	0.367013	-0.137906	-0.018004	-0.003628	0.001302	-0.745605	0.049805	-0.379395	0.694824	-0.069319	-0.708469	-0.102402
23833		9.724158	0.344781	-0.157440	-0.002919	-0.000278	0.001085	-0.740479	0.056885	-0.375000	0.694833	-0.069206	-0.708475	-0.102376
23834		9.734829	0.379949	-0.105768	0.007096	0.002154	-0.000384	-0.739014	0.048584	-0.372559	0.694850	-0.069147	-0.708467	-0.102360
23835		9.752505	0.429912	-0.167208	0.000446	0.003421	0.001379	-0.747070	0.040283	-0.369873	0.694866	-0.069042	-0.708462	-0.102347
23836		9.724835	0.432979	-0.157950	-0.005249	-0.000189	0.002992	-0.741455	0.041992	-0.374268	0.694806	-0.068904	-0.708536	-0.102342
23837		9.707802	0.444455	-0.151834	-0.006469	-0.002690	0.001859	-0.742676	0.045410	-0.363770	0.694772	-0.068752	-0.708587	-0.102319
23838		9.735505	0.440838	-0.160578	-0.004396	0.002984	-0.001453	-0.740234	0.044434	-0.369629	0.694703	-0.068714	-0.708641	-0.102444
23839		9.721980	0.453992	-0.174800	-0.010161	0.003850	-0.002317	-0.738281	0.043945	-0.377197	0.694688	-0.068636	-0.708647	-0.102554
23840		9.710623	0.417826	-0.194614	-0.014219	0.001936	-0.002222	-0.741699	0.047363	-0.373047	0.694716	-0.068510	-0.708623	-0.102616
23841		9.720538	0.425747	-0.166000	-0.010153	-0.001278	-0.005693	-0.742676	0.051025	-0.365723	0.694669	-0.068432	-0.708657	-0.102746
23842		9.742544	0.431269	-0.131083	-0.003382	0.001987	-0.000102	-0.743164	0.047607	-0.371338	0.694604	-0.068487	-0.708696	-0.102882
23843		9.759602	0.419529	-0.136573	-0.000846	0.005397	-0.002225	-0.739990	0.048096	-0.370117	0.694613	-0.068378	-0.708691	-0.102928
23844		9.730402	0.474607	-0.151855	0.002618	0.004274	-0.001978	-0.743164	0.043945	-0.375000	0.694615	-0.068262	-0.708697	-0.102951
23845		9.709068	0.498366	-0.162248	-0.005277	0.006054	0.000006	-0.751709	0.046143	-0.376465	0.694657	-0.068117	-0.708669	-0.102953
23846		9.704122	0.488162	-0.140290	-0.008335	0.001030	-0.000563	-0.738770	0.050781	-0.370605	0.694631	-0.068041	-0.708694	-0.103008
23847		9.717553	0.516516	-0.141666	-0.011708	-0.002110	-0.004041	-0.746094	0.045898	-0.368896	0.694567	-0.068087	-0.708726	-0.103191
23848		9.794244	0.487369	-0.147031	-0.017420	0.005866	-0.007747	-0.743164	0.052979	-0.368652	0.694531	-0.068087	-0.708723	-0.103455
23849		9.691176	0.492309	-0.114137	-0.025610	0.000608	-0.004539	-0.739258	0.045654	-0.374268	0.694449	-0.068313	-0.708728	-0.103817
23850		9.675518	0.488068	-0.161067	-0.026584	-0.002533	-0.000905	-0.746094	0.048828	-0.375488	0.694402	-0.068394	-0.708736	-0.104026
23851		9.751545	0.436975	-0.128579	-0.033283	-0.004368	-0.009553	-0.739258	0.052490	-0.370361	0.694307	-0.068511	-0.708763	-0.104397
23852		9.732210	0.454221	-0.162344	-0.022675	0.001111	-0.011342	-0.744141	0.049316	-0.366455	0.694251	-0.068612	-0.708755	-0.104758
23853		9.766994	0.415222	-0.195485	-0.010217	0.017137	-0.017162	-0.740723	0.051025	-0.376953	0.694300	-0.068521	-0.708667	-0.105088
23854		9.730389	0.512616	-0.182687	0.009860	0.002073	-0.013795	-0.743652	0.052246	-0.366211	0.694317	-0.068246	-0.708671	-0.105124
23855		9.775046	0.519517	-0.204972	-0.028948	0.006452	-0.003170	-0.739990	0.044922	-0.374268	0.694269	-0.068519	-0.708633	-0.105522
23856		9.710898	0.358810	-0.181051	-0.036781	-0.007525	0.009071	-0.739014	0.044434	-0.373291	0.694180	-0.068788	-0.708663	-0.105734
23857		9.701091	0.316358	-0.131582	0.007963	0.001543	0.002725	-0.740479	0.044189	-0.378174	0.694199	-0.068590	-0.708682	-0.105607
23858		9.768936	0.429163	-0.024798	0.028031	0.024590	-0.005072	-0.750000	0.043213	-0.379639	0.694458	-0.068082	-0.708515	-0.105354
23859		9.741112	0.507904	-0.104759	0.025636	0.028019	0.000705	-0.740723	0.041260	-0.372314	0.694728	-0.067640	-0.708333	-0.105081
23860		9.707679	0.593206	-0.141958	0.011559	0.017741	0.007711	-0.740479	0.050049	-0.376221	0.694881	-0.067424	-0.708231	-0.104896
23861		9.689374	0.593194	-0.133343	-0.017614	0.004664	0.011702	-0.748535	0.043457	-0.371094	0.694918	-0.067626	-0.708165	-0.104968
23862		9.727302	0.567917	-0.166075	-0.020586	0.006414	0.005759	-0.746826	0.038818	-0.377441	0.694903	-0.067750	-0.708144	-0.105124
23863		9.750052	0.573961	-0.160594	-0.006269	0.004036	-0.002724	-0.743652	0.039062	-0.377686	0.694920	-0.067542	-0.708147	-0.105128
23864		9.727927	0.576350	-0.132294	-0.006937	0.002806	-0.003696	-0.732666	0.045654	-0.375732	0.694935	-0.067334	-0.708150	-0.105141
23865		9.699623	0.512013	-0.129784	-0.013955	0.001508	-0.003201	-0.741699	0.043213	-0.372803	0.694950	-0.067296	-0.708122	-0.105259
23866		9.725179	0.497162	-0.108045	-0.000383	-0.000108	0.003302	-0.737549	0.040283	-0.378418	0.694923	-0.067211	-0.708160	-0.105229
23867		9.747140	0.540557	-0.089596	0.002515	-0.000620	0.011111	-0.745605	0.045166	-0.372070	0.694958	-0.067061	-0.708172	-0.105017
23868		9.732429	0.580475	-0.121527	-0.001401	0.001068	0.019200	-0.745850	0.046387	-0.376221	0.694944	-0.067173	-0.708194	-0.104893
23869		9.664618	0.515796	-0.116650	-0.003645	0.004120	0.023256	-0.746582	0.040039	-0.370117	0.694987	-0.067307	-0.708164	-0.104721
23870		9.785063	0.536150	-0.169983	0.001056	0.003618	0.016935	-0.746338	0.048828	-0.377197	0.694981	-0.067311	-0.708191	-0.104578
23871		9.689198	0.503103	-0.102421	0.000609	0.000769	0.012369	-0.749023	0.040527	-0.375977	0.694988	-0.067338	-0.708198	-0.104467
23872		9.720650	0.604354	-0.110843	-0.000470	0.002444	0.016057	-0.740479	0.032227	-0.366699	0.695002	-0.067298	-0.708214	-0.104290
23873		9.734252	0.527025	-0.070740	-0.018211	0.001070	0.015181	-0.745850	0.054688	-0.374268	0.694955	-0.067365	-0.708253	-0.104293
23874		9.707076	0.493898	-0.177159	-0.022980	0.006056	0.019018	-0.745605	0.044189	-0.375977	0.694976	-0.067759	-0.708177	-0.104409
23875		9.689615	0.473070	-0.192523	-0.005368	0.004788	0.020251	-0.739502	0.043945	-0.374512	0.695021	-0.067832	-0.708149	-0.104255
23876		9.752334	0.536483	-0.151384	-0.000101	0.008227	0.012956	-0.745605	0.056396	-0.377441	0.695100	-0.067786	-0.708096	-0.104117
23877		9.732754	0.500383	-0.196343	-0.018283	0.022846	0.007612	-0.738525	0.046875	-0.372070	0.695279	-0.067994	-0.707877	-0.104279
23878		9.712725	0.410664	-0.152006	-0.003361	0.030706	0.004221	-0.740234	0.045410	-0.376221	0.695523	-0.067939	-0.707637	-0.104315
23879		9.716454	0.390036	-0.158563	0.013065	0.026028	0.004981	-0.747803	0.046387	-0.379395	0.695760	-0.067699	-0.707451	-0.104152
23880		9.680822	0.368904	-0.222548	0.026749	0.052650	0.005065	-0.733887	0.049561	-0.374023	0.696238	-0.067311	-0.707057	-0.103887
23881		9.801910	0.275894	-0.243566	0.053611	0.071193	-0.023052	-0.744385	0.041504	-0.377441	0.696861	-0.066505	-0.706546	-0.103706
23882		9.491352	0.535695	-0.169901	0.061442	0.075102	-0.057643	-0.743652	0.042480	-0.377441	0.697463	-0.065220	-0.706071	-0.103708
23883		9.582666	0.789438	-0.118066	0.083475	0.058131	-0.131832	-0.740234	0.040039	-0.373047	0.697825	-0.063165	-0.705830	-0.104184
23884		9.633156	1.220466	-0.093038	0.139958	-0.007463	-0.244602	-0.737549	0.031250	-0.381348	0.697472	-0.059771	-0.706331	-0.105150
23885		9.290368	1.449989	-0.318021	0.216348	-0.113430	-0.395609	-0.734375	0.025391	-0.382812	0.696090	-0.054384	-0.707915	-0.106566
23886		9.069822	1.791918	-0.208633	0.181920	-0.081029	-0.631747	-0.739502	0.008545	-0.378418	0.694654	-0.047174	-0.709262	-0.110353
23887		8.199574	2.388287	-0.109737	0.242401	-0.190522	-0.925039	-0.750000	-0.016602	-0.379395	0.691771	-0.036977	-0.711764	-0.116093
23888		7.202206	3.101930	-0.505790	0.143385	-0.256041	-1.272578	-0.745850	-0.034912	-0.367676	0.687617	-0.024536	-0.714704	-0.125614
23889		5.962673	3.563191	-0.731967	-0.053370	-0.265964	-1.631839	-0.751465	-0.063721	-0.366943	0.682474	-0.010741	-0.717286	-0.140054
23890		5.673756	2.697933	-0.226153	-0.427953	-0.306846	-1.843547	-0.758789	-0.108154	-0.359131	0.676207	0.001689	-0.719218	-0.159585
23891		6.677892	2.183420	0.342131	-0.572970	-0.216402	-1.794312	-0.752197	-0.136719	-0.354248	0.670427	0.012762	-0.719731	-0.179866
23892		7.405525	2.624092	1.621837	-0.356538	-0.121298	-1.585435	-0.764160	-0.167236	-0.354492	0.665599	0.023963	-0.719615	-0.196363
23893		8.145126	3.806600	-1.354349	-0.543056	-0.396593	-1.223137	-0.751221	-0.175049	-0.346191	0.658960	0.029663	-0.721213	-0.211526
23894		8.264801	2.752448	-0.261127	-0.873141	-0.355987	-1.131766	-0.757080	-0.188477	-0.350098	0.652845	0.031802	-0.721383	-0.228885
23895		9.505898	3.111693	-0.508621	-0.316856	-0.011760	-1.331956	-0.747314	-0.205811	-0.346191	0.648867	0.041287	-0.720003	-0.242616
23896		10.383313	1.386605	-0.774227	0.487962	-0.105641	-1.237698	-0.750977	-0.248535	-0.337646	0.643704	0.056081	-0.721687	-0.248329
23897		11.578326	5.890195	-0.237341	0.640733	-0.144299	-0.951079	-0.748779	-0.270752	-0.328369	0.638787	0.069538	-0.724233	-0.250203
23898		14.703206	6.432133	-0.660895	0.245312	-0.001206	-0.736431	-0.739746	-0.292480	-0.337158	0.636095	0.078295	-0.724464	-0.253782
23899		17.963430	4.188071	-0.546272	0.222093	0.022104	0.074045	-0.743896	-0.289307	-0.326172	0.636248	0.079635	-0.725101	-0.251147
23900		18.495766	7.817286	-1.210767	0.455416	0.046664	0.919394	-0.745117	-0.268799	-0.330078	0.638991	0.075177	-0.727069	-0.239602
23901		23.917389	9.988361	-1.364053	0.062864	0.212978	1.137372	-0.749023	-0.250977	-0.327881	0.644169	0.066064	-0.726574	-0.229722
23902		24.221036	4.590003	-1.776825	0.196843	0.435775	1.985971	-0.750244	-0.214111	-0.343262	0.653418	0.050953	-0.725066	-0.211487
23903		19.928016	4.779871	-2.336018	0.673995	0.706378	2.776884	-0.756836	-0.176758	-0.348145	0.666264	0.033238	-0.722380	-0.182086
23904		13.929716	5.054765	-1.679336	0.846235	0.793281	2.451834	-0.758545	-0.127930	-0.368164	0.678247	0.020073	-0.718336	-0.153534
23905		7.733024	2.806799	0.052182	0.945047	0.696848	1.871208	-0.746582	-0.116699	-0.374756	0.687581	0.012726	-0.714459	-0.128916
23906		0.716413	-0.310897	-0.511505	1.031234	0.595193	1.550996	-0.746338	-0.084473	-0.383057	0.695004	0.008825	-0.711060	-0.106233
23907		-3.019453	0.954298	-0.661075	0.502751	0.308691	1.234436	-0.750244	-0.062988	-0.390869	0.699211	0.002745	-0.709101	-0.090952
23908		-0.047797	3.792834	1.007899	-0.473169	-0.047974	0.493597	-0.743164	-0.056641	-0.386230	0.699319	-0.005711	-0.708996	-0.090799
23909		1.624124	1.967823	-0.311848	-0.464827	0.070327	-0.360664	-0.746826	-0.060059	-0.388428	0.699458	-0.006388	-0.707883	-0.098077
23910		-0.327888	-1.669384	-0.314450	-0.015158	0.100059	-0.425279	-0.736328	-0.064941	-0.391357	0.699783	-0.002526	-0.707039	-0.101943
23911		-1.067146	-0.292214	0.510944	0.176954	0.034604	-0.245982	-0.742920	-0.075684	-0.393799	0.699753	0.001342	-0.706986	-0.102545
23912		-0.939015	1.284830	-1.042619	-0.118328	-0.152502	-0.253244	-0.739258	-0.076660	-0.387939	0.698052	0.002459	-0.708181	-0.105813
23913		0.028650	0.760876	-1.224883	-0.203271	-0.380007	-0.327606	-0.746826	-0.080322	-0.388428	0.694217	0.003186	-0.711227	-0.110493
23914		0.156465	0.850462	0.926253	-0.424329	-0.388852	-0.510423	-0.754639	-0.090820	-0.364502	0.690012	0.003597	-0.713983	-0.118743
23915		-0.326384	0.138578	1.060059	-0.592696	-0.377381	-0.790424	-0.760010	-0.095215	-0.370117	0.685402	0.005113	-0.716302	-0.130800
23916		1.223208	0.094440	-0.277051	-0.650990	-0.597197	-1.105741	-0.757812	-0.111816	-0.352783	0.678149	0.008563	-0.720201	-0.146119
23917		6.822364	3.322938	3.590248	-0.467424	-0.598376	-1.569611	-0.760986	-0.137939	-0.348877	0.669750	0.017755	-0.724117	-0.163627
23918		20.558617	12.272571	-7.432429	-1.460009	-0.168460	-1.571701	-0.750732	-0.155029	-0.347168	0.665057	0.019507	-0.721958	-0.189988
23919		35.112187	2.546782	-1.994471	-1.429250	-0.799364	-0.215024	-0.767334	-0.139404	-0.327393	0.657489	0.007756	-0.725036	-0.204868
23920		36.419797	8.958072	-3.634424	-0.150890	-0.704345	0.769651	-0.770996	-0.122803	-0.322998	0.652999	-0.002123	-0.730518	-0.199826
23921		33.448335	8.021748	3.146385	-0.515747	0.194419	0.733413	-0.775635	-0.108643	-0.325195	0.656518	-0.012432	-0.727625	-0.198474
23922		26.229415	-0.640320	-2.931649	1.036337	0.927890	1.262358	-0.760498	-0.098389	-0.341309	0.668039	-0.012968	-0.722242	-0.178669
23923		9.407082	5.216861	-1.749202	1.533995	0.916217	1.471698	-0.759277	-0.074951	-0.358887	0.679541	-0.011244	-0.717525	-0.152494
23924		1.248667	1.647883	-1.004311	0.098340	0.495882	1.176037	-0.752930	-0.050049	-0.378662	0.686135	-0.019896	-0.713285	-0.141592
23925		-0.726986	0.006560	-0.891789	-0.362027	0.159253	0.790897	-0.755615	-0.035645	-0.373047	0.688809	-0.029704	-0.711048	-0.138100
23926		-0.777284	2.398422	0.989530	-0.077859	-0.010196	0.181067	-0.752441	-0.028076	-0.373535	0.688976	-0.031893	-0.710971	-0.137171
23927		0.473025	2.819048	0.682681	-0.273316	-0.083722	-0.360452	-0.759766	-0.037842	-0.365234	0.687470	-0.031100	-0.711385	-0.142648
23928		0.122150	-0.324034	0.918170	-0.546091	-0.442516	-0.482902	-0.762939	-0.049072	-0.360840	0.682390	-0.032161	-0.714417	-0.151390
23929		0.343211	-0.439570	-0.044569	-0.520867	-0.235610	-0.219826	-0.770264	-0.048096	-0.351074	0.679607	-0.034957	-0.715555	-0.157773
23930		-0.394470	0.333870	-0.441137	-0.345294	-0.170746	0.017534	-0.759033	-0.041992	-0.345459	0.677919	-0.038232	-0.716379	-0.160515
23931		0.074482	-0.098635	0.066102	-0.509293	-0.308501	0.034733	-0.772705	-0.035400	-0.346436	0.674929	-0.043345	-0.717995	-0.164543
23932		0.279717	0.110728	0.898873	-0.676676	-0.248343	-0.156507	-0.757324	-0.033936	-0.340332	0.671950	-0.048038	-0.718810	-0.171724
23933		0.576627	-0.004503	1.155215	-0.541559	-0.361054	-0.528819	-0.776855	-0.041016	-0.331543	0.667178	-0.048499	-0.720997	-0.180790
23934		2.568949	0.053899	3.524453	-0.436730	-0.600120	-1.213811	-0.777832	-0.060059	-0.321045	0.658621	-0.042415	-0.725703	-0.194357
23935		10.263464	3.056139	-2.435478	-0.378663	-0.018915	-1.632268	-0.778320	-0.087646	-0.323242	0.654105	-0.030640	-0.725703	-0.211100
23936		25.239164	9.545741	-1.014501	-0.419954	0.137972	-1.916979	-0.776123	-0.123535	-0.324951	0.649906	-0.016195	-0.724038	-0.230496
23937		30.410923	10.646716	-5.356282	-0.432650	-0.136346	-1.564928	-0.766602	-0.147949	-0.325439	0.643901	-0.005810	-0.724136	-0.246952
23938		31.242104	6.856407	-1.686952	-0.208321	-0.203495	-0.263100	-0.773193	-0.147705	-0.320557	0.641184	-0.005618	-0.725201	-0.250869
23939		31.861203	2.428770	-0.862198	0.711697	0.402309	0.896872	-0.773193	-0.141602	-0.316650	0.647589	-0.006656	-0.724140	-0.237076
23940		25.168575	6.638128	-0.975011	1.527041	0.954072	1.767099	-0.764648	-0.117432	-0.338623	0.661240	-0.007264	-0.720551	-0.208603
23941		13.196276	4.020473	-2.157798	1.498971	0.897574	1.728101	-0.765869	-0.096436	-0.362549	0.673631	-0.007950	-0.716613	-0.180618
23942		5.011420	1.316856	-1.814525	2.035920	0.738265	1.199120	-0.760010	-0.099854	-0.362793	0.682817	0.000230	-0.714563	-0.152187
23943		-0.624285	2.677878	0.530880	1.054313	0.345322	0.776252	-0.747070	-0.092041	-0.384277	0.687245	0.003117	-0.713581	-0.135967
23944		-1.685944	2.483255	0.611593	-0.079470	0.131160	0.068015	-0.753662	-0.087891	-0.378906	0.688539	0.002130	-0.712289	-0.136213
23945		0.533914	1.612890	-0.679263	0.084378	-0.076106	-0.110356	-0.747314	-0.093750	-0.373779	0.687656	0.003805	-0.713097	-0.136413
23946		0.615053	0.926306	-0.203239	0.050265	-0.009956	0.169901	-0.740234	-0.097168	-0.380127	0.687833	0.002813	-0.713289	-0.134527
23947		-0.863279	-0.301362	0.598357	-0.128191	-0.020061	0.422124	-0.747559	-0.088379	-0.380859	0.688348	-0.002000	-0.713226	-0.132220
23948		-0.274468	0.091950	-0.271236	0.052572	-0.157170	0.375803	-0.752197	-0.076660	-0.373535	0.687547	-0.005069	-0.714632	-0.128663
23949		0.140608	0.973086	-0.033584	0.204018	-0.075886	0.254160	-0.754639	-0.074707	-0.366211	0.687268	-0.005616	-0.715597	-0.124708
23950		0.015002	0.037635	0.077996	0.493117	0.100022	0.042389	-0.757080	-0.083496	-0.378174	0.688221	-0.001484	-0.715519	-0.119922
23951		-0.795276	0.472121	1.530348	0.634889	0.085479	-0.322617	-0.751709	-0.085449	-0.377930	0.688468	0.007080	-0.715708	-0.117147
23952		3.458779	1.821456	-1.904335	0.388660	-0.356574	-0.806740	-0.756104	-0.106201	-0.371582	0.684001	0.017169	-0.719212	-0.120753
23953		13.021303	1.098629	0.283481	-0.301087	-0.215751	-0.997590	-0.750732	-0.129395	-0.362549	0.680542	0.023284	-0.720316	-0.132156
23954		18.727151	4.227171	-2.191879	0.185445	0.153234	-1.221397	-0.751953	-0.149902	-0.360596	0.679738	0.036197	-0.718880	-0.140914
23955		28.603489	18.561233	-5.689891	0.227463	-0.497152	-2.120379	-0.737305	-0.197754	-0.358398	0.671149	0.056414	-0.722305	-0.157013
23956		21.030079	6.431531	6.347753	-2.212357	-0.799038	-1.881432	-0.752441	-0.203369	-0.354248	0.661269	0.053265	-0.722808	-0.193481
23957		15.796584	-13.529441	-2.080069	0.449579	-0.231484	0.093855	-0.756592	-0.217529	-0.350586	0.659054	0.055608	-0.725866	-0.188875
23958		19.823333	11.580315	-1.396899	1.984219	0.376165	1.579079	-0.753174	-0.201660	-0.345215	0.664451	0.058594	-0.728185	-0.157539
23959		10.006589	10.507773	1.719594	-1.565127	0.268517	1.495278	-0.745605	-0.160889	-0.350342	0.670714	0.032571	-0.723696	-0.159205
23960		5.150270	-7.103041	-2.654393	-0.857374	-0.182834	1.679429	-0.755859	-0.117432	-0.346680	0.672530	0.009903	-0.724004	-0.153046
23961		5.182119	-2.407961	-0.181809	1.347522	-0.056077	1.522698	-0.766357	-0.102051	-0.343506	0.674527	0.007468	-0.727037	-0.127966
23962		8.030795	3.195003	0.007568	0.787899	0.080617	1.139389	-0.763184	-0.080811	-0.348145	0.676884	0.004034	-0.727648	-0.111087
23963		7.225609	3.737346	-0.845370	0.331542	0.250583	0.729274	-0.758301	-0.070312	-0.357910	0.680120	0.000617	-0.725980	-0.101923
23964		7.854896	4.888309	-1.329470	-0.324745	0.165583	0.276535	-0.753662	-0.061768	-0.360107	0.681980	-0.004446	-0.724106	-0.102731
23965		8.919208	3.120304	-2.218086	-0.595168	-0.039021	0.077442	-0.762451	-0.054932	-0.355225	0.681683	-0.010289	-0.723605	-0.107694
23966		9.849725	1.646747	-1.648682	-0.360505	-0.134970	-0.036146	-0.762451	-0.052246	-0.347168	0.680346	-0.013160	-0.724270	-0.111304
23967		9.653103	2.007773	-1.087056	-0.082928	0.017359	-0.118547	-0.764160	-0.053467	-0.353271	0.680299	-0.012659	-0.724061	-0.113004
23968		9.846487	2.349080	-0.630665	-0.054198	0.104329	-0.072241	-0.753174	-0.060791	-0.359375	0.681114	-0.012261	-0.723117	-0.114169
23969		9.552868	2.579532	-0.972009	-0.217654	0.136003	0.080154	-0.760254	-0.049561	-0.360840	0.682412	-0.014647	-0.721596	-0.115750
23970		9.348832	1.929751	-1.144173	-0.322902	0.143866	0.162013	-0.759033	-0.053223	-0.361816	0.683864	-0.018640	-0.719857	-0.117426
23971		9.380309	1.862864	-0.508566	-0.202388	0.171500	0.082980	-0.755859	-0.049805	-0.365479	0.685452	-0.020800	-0.718075	-0.118709
23972		9.707827	2.253539	0.166455	-0.129621	0.186463	-0.079477	-0.751709	-0.036377	-0.375000	0.686945	-0.020865	-0.716303	-0.120755
23973		9.834185	2.693875	0.414084	-0.154428	0.179926	-0.214537	-0.751465	-0.048584	-0.374268	0.688180	-0.020063	-0.714537	-0.124267
23974		9.575262	2.393456	0.252620	-0.211831	0.149289	-0.360185	-0.748047	-0.054443	-0.377197	0.688866	-0.018422	-0.712993	-0.129480
23975		9.264456	1.756847	0.481811	-0.193204	0.023475	-0.500777	-0.749023	-0.063965	-0.379639	0.688177	-0.015577	-0.712564	-0.135728
23976		8.749337	1.722953	1.202898	-0.109877	-0.206612	-0.548209	-0.740479	-0.075928	-0.367676	0.685334	-0.011990	-0.714225	-0.141621
23977		9.783173	2.242108	0.266105	-0.437483	-0.358241	-0.331927	-0.741699	-0.075684	-0.362793	0.681425	-0.013344	-0.716547	-0.148468
23978		9.768105	1.766306	0.294325	-0.447956	-0.186081	0.083748	-0.750488	-0.072021	-0.360107	0.679793	-0.018220	-0.717266	-0.151921
23979		8.789668	0.055007	1.500067	-0.427700	-0.022643	0.397878	-0.752930	-0.053467	-0.362061	0.680195	-0.025389	-0.716547	-0.152478
23980		9.479618	-1.110763	0.740426	-0.003994	0.097085	0.372891	-0.754883	-0.043945	-0.361084	0.681740	-0.028547	-0.715592	-0.149480
23981		9.659274	1.595395	-1.224181	0.467349	0.004776	0.187466	-0.748535	-0.056885	-0.357178	0.682264	-0.026158	-0.716371	-0.143684
23982		9.707189	2.377839	-0.340685	0.169652	-0.238526	0.348609	-0.755859	-0.047119	-0.355957	0.680769	-0.028118	-0.718617	-0.139116
23983		9.995285	2.811865	0.838030	-0.278393	-0.093956	0.346647	-0.754150	-0.032715	-0.358154	0.680392	-0.033670	-0.718822	-0.138664
23984		9.496445	0.985300	-0.359399	-0.559851	-0.009147	0.330335	-0.757812	-0.015381	-0.349365	0.680604	-0.041410	-0.717757	-0.141025
23985		9.595605	0.066629	-1.617040	-0.198009	0.055895	0.453106	-0.761719	-0.009766	-0.363281	0.681766	-0.046949	-0.716739	-0.138837
23986		9.822183	1.416046	-1.351854	-0.279444	0.043759	0.487131	-0.751709	0.006104	-0.354248	0.682804	-0.053628	-0.715567	-0.137357
23987		9.720900	1.865620	-1.369403	-0.754947	-0.090428	0.460366	-0.756348	0.013916	-0.347412	0.682219	-0.064287	-0.714715	-0.140096
23988		10.310286	1.434305	-1.255134	-1.004673	-0.075758	0.324145	-0.759033	0.033691	-0.343506	0.681215	-0.075706	-0.713356	-0.146077
23989		10.085501	0.750710	-1.576845	-0.803568	-0.036741	0.264226	-0.752441	0.047119	-0.348877	0.680541	-0.084798	-0.712008	-0.150728
23990		9.712056	-0.130602	-1.534057	-0.346492	-0.104627	0.176883	-0.761475	0.051758	-0.343994	0.679545	-0.089468	-0.712074	-0.152198
23991		9.586712	0.732346	0.229353	0.012111	-0.084122	0.086226	-0.758789	0.055664	-0.335693	0.678943	-0.090171	-0.712787	-0.151128
23992		9.748220	1.187372	1.030504	-0.108609	0.040895	0.027367	-0.752441	0.055420	-0.340820	0.679202	-0.091097	-0.712310	-0.151660
23993		10.091670	0.117537	-0.540630	-0.162471	0.068077	0.052427	-0.759033	0.056885	-0.348633	0.679696	-0.092720	-0.711416	-0.152655
23994		9.720010	-0.558693	-2.298185	0.088052	0.016166	0.118037	-0.752686	0.057617	-0.343506	0.680143	-0.092932	-0.711339	-0.150884
23995		9.692306	-0.441786	-1.749212	0.451044	-0.032096	0.110430	-0.754150	0.056396	-0.343506	0.680554	-0.090036	-0.712375	-0.145811
23996		9.641605	0.490330	0.174437	0.701799	0.010219	0.034130	-0.762695	0.048828	-0.347656	0.681446	-0.084243	-0.713559	-0.139173
23997		9.886273	1.681324	0.910226	0.634028	0.151399	-0.030055	-0.753906	0.045410	-0.351074	0.683359	-0.078195	-0.713440	-0.133827
23998		9.725525	1.661088	0.443223	0.270548	0.156867	-0.005227	-0.757568	0.029297	-0.356201	0.684988	-0.075501	-0.712588	-0.131566
23999		9.536772	0.404405	-0.444901	0.115732	0.074991	0.062434	-0.751709	0.042969	-0.350586	0.685840	-0.074797	-0.712119	-0.130058
24000		9.621386	-0.039659	-0.490641	0.413957	0.009858	0.092629	-0.757080	0.034912	-0.366211	0.686425	-0.071945	-0.712675	-0.125457
24001		9.396805	0.813626	0.298266	0.471930	0.036914	0.100206	-0.756348	0.031982	-0.361328	0.687316	-0.068687	-0.712988	-0.120528
24002		9.189980	1.013120	0.310200	0.346365	0.023508	0.080319	-0.747803	0.033936	-0.362793	0.687917	-0.066300	-0.713259	-0.116773
24003		9.423499	1.263948	-0.034994	0.304569	-0.034194	0.045153	-0.747070	0.032959	-0.356934	0.687920	-0.064089	-0.713954	-0.113704
24004		9.657878	1.506205	-0.095512	0.205917	0.010219	0.074000	-0.746338	0.033203	-0.364014	0.688263	-0.062885	-0.714122	-0.111216
24005		9.528440	1.418004	0.003789	-0.001259	0.061904	0.103023	-0.758545	0.032959	-0.364746	0.688957	-0.063710	-0.713492	-0.110488
24006		9.394828	1.166671	-0.188707	-0.103626	0.015265	0.074288	-0.743896	0.031494	-0.366943	0.689093	-0.065186	-0.713178	-0.110810
24007		9.745023	1.107580	-0.240741	-0.168180	-0.046594	0.010905	-0.750244	0.042480	-0.354004	0.688558	-0.066763	-0.713311	-0.112330
24008		9.932678	0.839475	-0.012057	-0.200646	-0.048476	-0.002382	-0.753174	0.035645	-0.360107	0.687924	-0.068449	-0.713498	-0.114001
24009		9.706760	0.635208	0.004825	-0.185180	-0.013639	-0.003039	-0.752686	0.041016	-0.356934	0.687619	-0.069953	-0.713373	-0.115696
24010		9.766290	0.535203	-0.149137	-0.143377	0.020988	-0.023112	-0.750000	0.041016	-0.358398	0.687623	-0.070871	-0.713037	-0.117173
24011		9.846584	0.385102	0.033749	-0.112084	0.001123	-0.049812	-0.748291	0.042236	-0.359375	0.687443	-0.071320	-0.712927	-0.118617
24012		9.812481	0.211582	-0.164197	-0.114167	-0.051211	-0.031762	-0.745117	0.039551	-0.348633	0.686826	-0.072045	-0.713235	-0.119901
24013		9.700133	0.297838	-0.325913	-0.113284	-0.059830	0.005645	-0.747070	0.041748	-0.356201	0.686170	-0.073019	-0.713629	-0.120714
24014		9.899478	0.291632	-0.235884	-0.138019	-0.050129	0.036726	-0.752930	0.046875	-0.352783	0.685641	-0.074541	-0.713827	-0.121618
24015		9.781796	0.148221	-0.300072	-0.082775	-0.015122	0.040850	-0.756104	0.040283	-0.358398	0.685469	-0.075567	-0.713827	-0.121958
24016		9.621936	0.176982	-0.332265	-0.029936	-0.035587	0.036884	-0.755859	0.048340	-0.349609	0.685165	-0.076124	-0.714065	-0.121922
24017		9.571372	0.551361	-0.472982	0.011159	-0.058452	0.015340	-0.749756	0.046631	-0.348145	0.684647	-0.076159	-0.714621	-0.121554
24018		9.750420	0.720951	-0.474459	0.002461	-0.050778	-0.017638	-0.749023	0.039307	-0.354980	0.684148	-0.075958	-0.715116	-0.121580
24019		9.678805	0.593506	-0.432487	-0.012013	-0.037952	-0.036682	-0.752930	0.052979	-0.362061	0.683738	-0.075700	-0.715458	-0.122031
24020		9.692725	0.762367	-0.451137	-0.025172	-0.033822	-0.051957	-0.758545	0.054932	-0.344727	0.683345	-0.075552	-0.715715	-0.122813
24021		9.832019	0.963501	-0.568778	-0.079038	-0.054760	-0.039511	-0.754150	0.046631	-0.353271	0.682686	-0.075904	-0.716156	-0.123693
24022		9.747310	0.994630	-0.499502	-0.095737	-0.072879	-0.015784	-0.758057	0.041016	-0.351807	0.681911	-0.076661	-0.716643	-0.124670
24023		9.774272	0.715432	-0.371541	-0.128056	-0.060336	0.023361	-0.759033	0.046387	-0.343262	0.681271	-0.077984	-0.716945	-0.125608
24024		9.721170	0.670595	-0.401980	-0.118789	-0.038888	0.033697	-0.759766	0.047363	-0.338135	0.680831	-0.079259	-0.717104	-0.126289
24025		9.741497	0.662298	-0.500050	-0.076765	-0.037717	0.026931	-0.765137	0.040527	-0.340820	0.680420	-0.080081	-0.717349	-0.126594
24026		9.611947	0.734842	-0.576213	-0.057096	-0.035376	0.030651	-0.752686	0.051270	-0.333984	0.680054	-0.080738	-0.717597	-0.126735
24027		9.619493	0.776477	-0.578145	-0.073594	-0.041186	0.029018	-0.752441	0.045410	-0.327881	0.679622	-0.081568	-0.717867	-0.126994
24028		9.773518	0.649298	-0.522189	-0.089877	-0.025085	0.022430	-0.762695	0.054932	-0.337402	0.679294	-0.082377	-0.718010	-0.127418
24029		9.733865	0.693330	-0.535897	-0.042736	-0.018733	0.012459	-0.757568	0.055420	-0.331787	0.679064	-0.082807	-0.718144	-0.127610
24030		9.695662	0.652345	-0.576250	-0.025150	-0.019546	0.007491	-0.758789	0.049805	-0.327637	0.678832	-0.083020	-0.718333	-0.127645
24031		9.699915	0.574898	-0.546850	-0.034340	-0.045310	0.013013	-0.759033	0.054688	-0.340332	0.678355	-0.083345	-0.718744	-0.127651
24032		9.736255	0.566412	-0.568663	-0.009213	-0.029516	0.025241	-0.763428	0.054932	-0.341553	0.678103	-0.083639	-0.718976	-0.127491
24033		9.765314	0.586409	-0.589831	-0.015251	-0.021579	0.035800	-0.757080	0.054199	-0.341797	0.677931	-0.084073	-0.719119	-0.127314
24034		9.826810	0.537913	-0.525632	-0.022833	0.001400	0.046675	-0.754639	0.060059	-0.335938	0.677988	-0.084622	-0.719030	-0.127153
24035		9.644344	0.519345	-0.537996	-0.006260	0.004343	0.039371	-0.756836	0.057861	-0.333008	0.678064	-0.084969	-0.718970	-0.126853
24036		9.694915	0.504326	-0.629493	0.011558	-0.006210	0.034604	-0.764160	0.052002	-0.330566	0.678045	-0.085105	-0.719054	-0.126388
24037		9.749252	0.618209	-0.636634	0.010488	-0.004701	0.027631	-0.762207	0.059570	-0.336426	0.678008	-0.085133	-0.719160	-0.125961
24038		9.708448	0.600235	-0.574323	0.009946	-0.007372	0.022940	-0.751953	0.051758	-0.339111	0.677959	-0.085208	-0.719254	-0.125640
24039		9.719526	0.595160	-0.516522	0.022535	-0.002297	0.019771	-0.762939	0.050293	-0.332031	0.677991	-0.085081	-0.719303	-0.125272
24040		9.701656	0.638166	-0.555751	0.011067	-0.011939	0.018490	-0.755127	0.048584	-0.333496	0.677881	-0.085027	-0.719471	-0.124935
24041		9.718249	0.580274	-0.551945	-0.005308	-0.000632	0.018364	-0.761719	0.058105	-0.332520	0.677875	-0.085081	-0.719497	-0.124782
24042		9.721503	0.553046	-0.535111	-0.019501	0.008490	0.021653	-0.754883	0.060303	-0.339111	0.677925	-0.085348	-0.719427	-0.124732
24043		9.686006	0.636411	-0.545705	-0.000968	0.012066	0.015186	-0.759277	0.059814	-0.331055	0.678049	-0.085419	-0.719320	-0.124628
24044		9.711080	0.669263	-0.544503	-0.011949	0.009206	0.011327	-0.762939	0.065674	-0.339600	0.678096	-0.085529	-0.719269	-0.124589
24045		9.701323	0.567647	-0.537107	-0.031414	0.003422	0.013231	-0.759766	0.053711	-0.335938	0.678093	-0.085903	-0.719197	-0.124766
24046		9.750423	0.583215	-0.579828	-0.029957	0.006868	0.007333	-0.755127	0.056152	-0.342041	0.678107	-0.086093	-0.719128	-0.124952
24047		9.681221	0.502130	-0.570554	-0.027616	-0.000221	0.011231	-0.752686	0.053955	-0.331543	0.678094	-0.086338	-0.719082	-0.125122
24048		9.725747	0.508538	-0.623438	-0.022876	0.013206	0.020520	-0.757324	0.060303	-0.330566	0.678193	-0.086555	-0.718964	-0.125110
24049		9.742078	0.553776	-0.562857	-0.005959	0.017982	0.016968	-0.760010	0.050781	-0.334473	0.678334	-0.086642	-0.718843	-0.124979
24050		9.728227	0.484603	-0.430583	-0.015282	0.013707	0.018360	-0.756104	0.067871	-0.325928	0.678436	-0.086761	-0.718741	-0.124934
24051		9.743149	0.571026	-0.593441	-0.021152	0.004850	0.013484	-0.759521	0.055908	-0.345703	0.678421	-0.087019	-0.718723	-0.124937
24052		9.717227	0.543607	-0.597762	0.006630	0.012296	0.010530	-0.762939	0.059814	-0.342041	0.678558	-0.086941	-0.718622	-0.124827
24053		9.676206	0.530092	-0.531014	0.004269	0.012546	0.004214	-0.754639	0.052734	-0.327148	0.678665	-0.086856	-0.718541	-0.124773
24054		9.754857	0.586426	-0.533011	-0.009972	0.007999	0.002651	-0.752930	0.057861	-0.329590	0.678680	-0.086788	-0.718536	-0.124764
24055		9.742751	0.576206	-0.590777	0.020398	0.015503	0.001976	-0.762939	0.063477	-0.339355	0.678805	-0.086494	-0.718497	-0.124518
24056		9.705449	0.614969	-0.471031	0.023632	0.029814	0.012403	-0.759521	0.060791	-0.338379	0.679088	-0.086323	-0.718300	-0.124229
24057		9.682576	0.692414	-0.440516	0.002452	0.030780	0.014291	-0.764160	0.061523	-0.340576	0.679362	-0.086318	-0.718063	-0.124103
24058		9.701584	0.571368	-0.548223	-0.018328	0.008202	0.013169	-0.753906	0.062988	-0.340332	0.679405	-0.086531	-0.717987	-0.124163
24059		9.739677	0.549089	-0.520029	-0.017234	0.012111	0.007424	-0.758545	0.054932	-0.331299	0.679494	-0.086668	-0.717870	-0.124257
24060		9.745160	0.506198	-0.368143	-0.016060	0.025121	0.008690	-0.756104	0.062256	-0.343994	0.679663	-0.086710	-0.717698	-0.124295
24061		9.708066	0.533074	-0.447803	0.006208	0.032175	0.004482	-0.758789	0.052734	-0.337646	0.679959	-0.086590	-0.717441	-0.124240
24062		9.718139	0.543725	-0.535908	0.002991	0.025179	0.001471	-0.751709	0.058350	-0.341797	0.680155	-0.086396	-0.717287	-0.124193
24063		9.738351	0.497457	-0.369677	-0.001255	0.008289	0.002003	-0.752930	0.058105	-0.341309	0.680223	-0.086309	-0.717236	-0.124176
24064		9.725275	0.485936	-0.489313	0.000073	0.020291	0.004660	-0.760010	0.060791	-0.342285	0.680399	-0.086218	-0.717087	-0.124136
24065		9.683447	0.530398	-0.471929	0.023070	0.023939	0.003728	-0.761475	0.058838	-0.334961	0.680617	-0.085957	-0.716950	-0.123917
24066		9.728585	0.507291	-0.358815	0.026302	0.034116	0.000064	-0.754639	0.053955	-0.345459	0.680893	-0.085604	-0.716770	-0.123685
24067		9.739816	0.581260	-0.466397	0.035643	0.026711	-0.004000	-0.755371	0.052002	-0.346191	0.681157	-0.085097	-0.716627	-0.123412
24068		9.710030	0.607155	-0.466094	0.039919	0.030781	0.001489	-0.754639	0.057373	-0.345703	0.681469	-0.084585	-0.716452	-0.123057
24069		9.712100	0.554692	-0.374005	0.035395	0.044665	0.002498	-0.760010	0.062500	-0.341064	0.681897	-0.084151	-0.716147	-0.122754
24070		9.729883	0.567729	-0.408740	0.031313	0.042062	-0.005180	-0.756592	0.052002	-0.330811	0.682252	-0.083751	-0.715890	-0.122555
24071		9.702908	0.593501	-0.399395	0.032956	0.015040	-0.009771	-0.757080	0.062256	-0.344238	0.682328	-0.083234	-0.715921	-0.122299
24072		9.706764	0.577824	-0.349046	0.018713	0.010297	-0.003211	-0.766113	0.055908	-0.344727	0.682401	-0.083015	-0.715899	-0.122172
24073		9.697872	0.607753	-0.474178	0.015218	0.008946	-0.010619	-0.749023	0.050537	-0.344238	0.682430	-0.082726	-0.715910	-0.122144
24074		9.697993	0.569678	-0.396207	0.019915	0.011400	-0.007160	-0.752686	0.053955	-0.347168	0.682528	-0.082331	-0.715886	-0.121999
24075		9.736178	0.609526	-0.358153	0.012602	0.002067	-0.004597	-0.750977	0.049316	-0.345947	0.682539	-0.082086	-0.715918	-0.121913
24076		9.742274	0.644741	-0.321337	0.006111	0.008676	-0.004262	-0.749756	0.052979	-0.347412	0.682604	-0.081842	-0.715892	-0.121871
24077		9.683726	0.618631	-0.419196	-0.002863	0.015629	-0.000388	-0.749268	0.054199	-0.347168	0.682734	-0.081735	-0.715776	-0.121896
24078		9.742049	0.648035	-0.408889	0.000425	0.005905	-0.002809	-0.745850	0.045898	-0.345703	0.682775	-0.081606	-0.715751	-0.121903
24079		9.711249	0.609523	-0.302016	0.001119	-0.004090	0.000640	-0.752441	0.052246	-0.343262	0.682736	-0.081428	-0.715819	-0.121833
24080		9.694008	0.673508	-0.314767	-0.005323	0.011398	0.005403	-0.759521	0.055664	-0.351807	0.682811	-0.081410	-0.715751	-0.121826
24081		9.692498	0.686243	-0.414699	-0.003840	-0.002958	0.002089	-0.757568	0.051514	-0.345215	0.682769	-0.081418	-0.715785	-0.121854
24082		9.693826	0.563517	-0.394821	-0.020004	0.013750	0.000493	-0.761719	0.057861	-0.336914	0.682838	-0.081483	-0.715681	-0.122036
24083		9.726559	0.626804	-0.381123	-0.005784	0.000704	-0.003498	-0.755371	0.055664	-0.349121	0.682754	-0.081494	-0.715744	-0.122132
24084		9.743608	0.636213	-0.395199	-0.003543	-0.000628	0.000128	-0.756104	0.055176	-0.343994	0.682729	-0.081474	-0.715764	-0.122170
24085		9.715521	0.580427	-0.396479	-0.001040	0.000856	0.006819	-0.758057	0.052002	-0.344238	0.682709	-0.081491	-0.715789	-0.122124
24086		9.692660	0.588866	-0.377767	-0.006842	-0.010512	0.016998	-0.753906	0.048828	-0.338623	0.682594	-0.081637	-0.715898	-0.122026
24087		9.703741	0.576567	-0.404764	-0.018117	-0.000367	0.016019	-0.756348	0.060059	-0.349854	0.682548	-0.081808	-0.715924	-0.122017
24088		9.712187	0.604492	-0.422600	-0.004376	-0.002634	0.009561	-0.755127	0.050781	-0.340576	0.682519	-0.081930	-0.715940	-0.122002
24089		9.747244	0.605122	-0.413774	0.006153	-0.008462	0.006645	-0.755859	0.055176	-0.351318	0.682416	-0.081841	-0.716073	-0.121859
24090		9.708476	0.651626	-0.423696	-0.011699	0.007443	0.005820	-0.750244	0.053955	-0.343506	0.682475	-0.081922	-0.715995	-0.121935
24091		9.703724	0.621132	-0.426095	-0.019170	0.002314	0.010959	-0.749023	0.058350	-0.347412	0.682470	-0.082091	-0.715969	-0.121998
24092		9.711431	0.608172	-0.429648	-0.018553	0.002401	0.009290	-0.754150	0.054443	-0.350342	0.682480	-0.082283	-0.715922	-0.122090
24093		9.710689	0.598038	-0.367882	0.001406	0.000987	0.008297	-0.762451	0.053711	-0.348633	0.682498	-0.082267	-0.715920	-0.122011
24094		9.736251	0.636747	-0.397567	-0.002125	0.015886	0.001263	-0.752441	0.053955	-0.352295	0.682609	-0.082212	-0.715813	-0.122056
24095		9.705579	0.678162	-0.438723	-0.016283	0.013150	-0.000753	-0.751953	0.058838	-0.341797	0.682714	-0.082239	-0.715681	-0.122222
24096		9.674432	0.657878	-0.398703	-0.017686	0.005990	0.007559	-0.750488	0.051270	-0.341553	0.682723	-0.082416	-0.715635	-0.122326
24097		9.724972	0.674844	-0.378612	-0.016572	0.001898	0.008192	-0.760254	0.053955	-0.343262	0.682704	-0.082503	-0.715634	-0.122374
24098		9.711439	0.665475	-0.385694	-0.032793	-0.003268	0.016398	-0.747070	0.052002	-0.340576	0.682617	-0.082870	-0.715648	-0.122536
24099		9.698843	0.606179	-0.402546	-0.033162	0.000144	0.017995	-0.749756	0.051025	-0.339600	0.682585	-0.083182	-0.715624	-0.122639
24100		9.726202	0.577558	-0.405454	-0.022224	-0.003887	0.019550	-0.755371	0.048096	-0.348877	0.682521	-0.083413	-0.715660	-0.122629
24101		9.751777	0.573337	-0.360954	-0.020411	0.005781	0.012595	-0.747803	0.060059	-0.348389	0.682561	-0.083528	-0.715600	-0.122680
24102		9.741171	0.562371	-0.356783	-0.010264	0.011828	0.009951	-0.756836	0.057617	-0.352295	0.682671	-0.083638	-0.715478	-0.122703
24103		9.691609	0.668583	-0.357858	0.014113	0.017331	0.016791	-0.753174	0.057373	-0.344971	0.682860	-0.083587	-0.715343	-0.122471
24104		9.709111	0.673558	-0.369596	-0.005211	0.002619	0.015676	-0.750977	0.052246	-0.345215	0.682874	-0.083705	-0.715330	-0.122392
24105		9.735930	0.641332	-0.341155	-0.007537	0.002414	0.014977	-0.757080	0.059326	-0.337891	0.682891	-0.083767	-0.715321	-0.122308
24106		9.744239	0.615254	-0.398338	-0.011631	0.012425	0.009350	-0.752930	0.046631	-0.353516	0.682936	-0.083907	-0.715250	-0.122373
24107		9.701780	0.530282	-0.399095	-0.032686	0.000331	0.015469	-0.758057	0.061279	-0.345459	0.682941	-0.084121	-0.715201	-0.122485
24108		9.681219	0.568864	-0.383415	-0.010927	0.005134	0.011736	-0.752441	0.056152	-0.344971	0.682952	-0.084302	-0.715162	-0.122528
24109		9.725516	0.584376	-0.351233	0.009234	0.002209	0.007199	-0.749512	0.052979	-0.349365	0.682966	-0.084194	-0.715186	-0.122381
24110		9.720572	0.553434	-0.355325	-0.010563	-0.002860	0.012353	-0.753906	0.054443	-0.340820	0.682949	-0.084259	-0.715203	-0.122337
24111		9.733873	0.539212	-0.435048	-0.013416	-0.002297	0.013494	-0.754883	0.051758	-0.341309	0.682889	-0.084396	-0.715245	-0.122332
24112		9.721485	0.534062	-0.410818	-0.004015	-0.001332	0.019580	-0.755615	0.054932	-0.350342	0.682858	-0.084473	-0.715291	-0.122180
24113		9.683151	0.578341	-0.421404	0.002095	-0.007035	0.013776	-0.756104	0.056152	-0.349121	0.682809	-0.084481	-0.715362	-0.122028
24114		9.745777	0.591155	-0.397193	-0.000667	0.000372	0.006662	-0.755859	0.063721	-0.340088	0.682807	-0.084454	-0.715377	-0.121979
24115		9.744166	0.616002	-0.441841	-0.000063	0.012348	0.010142	-0.753906	0.052734	-0.349121	0.682874	-0.084544	-0.715305	-0.121959
24116		9.680245	0.588475	-0.465396	-0.011212	0.010341	0.012915	-0.756592	0.054199	-0.345947	0.682965	-0.084599	-0.715216	-0.121934
24117		9.716113	0.571883	-0.415017	-0.011480	0.002253	0.015184	-0.757324	0.056152	-0.350342	0.682966	-0.084718	-0.715206	-0.121904
24118		9.751833	0.624515	-0.364731	-0.003749	-0.018188	0.015733	-0.755859	0.057373	-0.342285	0.682809	-0.084824	-0.715364	-0.121786
24119		9.703772	0.616283	-0.415234	-0.002416	-0.000681	0.015516	-0.760010	0.048096	-0.346191	0.682779	-0.084912	-0.715399	-0.121687
24120		9.701634	0.549001	-0.458366	-0.019897	-0.000235	0.016014	-0.747314	0.058594	-0.347656	0.682749	-0.085038	-0.715411	-0.121692
24121		9.745016	0.554048	-0.364673	-0.010942	0.008554	0.018193	-0.760498	0.056885	-0.346191	0.682842	-0.085182	-0.715317	-0.121625
24122		9.707906	0.501589	-0.392305	-0.012126	0.004502	0.010012	-0.756104	0.056396	-0.348877	0.682846	-0.085289	-0.715293	-0.121670
24123		9.707450	0.516082	-0.429243	0.003128	0.006817	-0.000302	-0.754150	0.054688	-0.347900	0.682895	-0.085142	-0.715268	-0.121644
24124		9.727722	0.606512	-0.312528	0.016596	0.001243	-0.004124	-0.760986	0.058594	-0.347168	0.682903	-0.084830	-0.715320	-0.121509
24125		9.779968	0.653162	-0.362245	0.000944	-0.009785	0.010768	-0.754150	0.052490	-0.345215	0.682795	-0.084882	-0.715431	-0.121429
24126		9.707914	0.613488	-0.379088	-0.011103	-0.001716	0.030544	-0.757324	0.051758	-0.355957	0.682791	-0.085103	-0.715441	-0.121237
24127		9.709219	0.471294	-0.353672	-0.032824	0.003322	0.038054	-0.750977	0.054688	-0.337158	0.682862	-0.085534	-0.715335	-0.121156
24128		9.695543	0.525305	-0.418318	-0.013990	0.008477	0.032210	-0.762939	0.062012	-0.342041	0.682918	-0.085808	-0.715274	-0.121009
24129		9.716236	0.558681	-0.373467	0.004436	0.002436	0.023874	-0.762207	0.061768	-0.347168	0.682913	-0.085971	-0.715289	-0.120833
24130		9.729523	0.522738	-0.384438	-0.009385	-0.007727	0.016802	-0.751709	0.058350	-0.339844	0.682819	-0.086178	-0.715358	-0.120808
24131		9.741671	0.516051	-0.380273	-0.007373	-0.008463	0.013237	-0.749268	0.060791	-0.347168	0.682711	-0.086275	-0.715458	-0.120752
24132		9.729084	0.494224	-0.382032	0.005141	-0.009207	0.020357	-0.753174	0.059814	-0.344971	0.682661	-0.086333	-0.715541	-0.120508
24133		9.700645	0.504051	-0.383807	0.011005	-0.017820	0.022879	-0.759766	0.053711	-0.343994	0.682525	-0.086378	-0.715718	-0.120193
24134		9.742373	0.472008	-0.467861	0.000638	-0.007421	0.024312	-0.761963	0.061279	-0.338379	0.682460	-0.086444	-0.715813	-0.119949
24135		9.745098	0.477088	-0.404039	0.008906	0.007325	0.018954	-0.751465	0.064453	-0.342773	0.682490	-0.086495	-0.715808	-0.119773
24136		9.725054	0.448902	-0.422943	0.021590	-0.002891	0.018205	-0.757080	0.069580	-0.340820	0.682485	-0.086443	-0.715873	-0.119449
24137		9.707338	0.500142	-0.437567	0.032267	0.003488	0.015657	-0.757080	0.063232	-0.347168	0.682517	-0.086361	-0.715906	-0.119123
24138		9.704555	0.546934	-0.436446	0.020869	0.002389	0.013740	-0.747559	0.057861	-0.347168	0.682560	-0.086256	-0.715924	-0.118848
24139		9.748661	0.507989	-0.383897	0.013469	0.004148	0.010577	-0.751465	0.058594	-0.345947	0.682634	-0.086078	-0.715917	-0.118591
24140		9.699457	0.561136	-0.428430	0.033674	0.012053	0.011774	-0.754639	0.056396	-0.350830	0.682786	-0.085753	-0.715880	-0.118176
24141		9.704378	0.565061	-0.417180	0.017402	-0.002867	0.016841	-0.755615	0.056641	-0.346924	0.682808	-0.085604	-0.715933	-0.117830
24142		9.723768	0.530167	-0.440275	-0.002079	-0.000889	0.017815	-0.754639	0.070312	-0.350586	0.682809	-0.085644	-0.715955	-0.117670
24143		9.739513	0.474339	-0.372538	-0.007539	-0.000962	0.008426	-0.760254	0.054199	-0.344727	0.682797	-0.085824	-0.715935	-0.117727
24144		9.731206	0.495169	-0.375877	-0.007408	0.000363	0.003028	-0.766602	0.059082	-0.345215	0.682762	-0.085757	-0.715974	-0.117744
24145		9.661097	0.540169	-0.387584	0.010788	-0.008163	-0.002580	-0.753418	0.059082	-0.346924	0.682643	-0.085586	-0.716115	-0.117699
24146		9.744885	0.504267	-0.463909	0.013654	-0.001445	0.003604	-0.756836	0.062988	-0.346924	0.682640	-0.085393	-0.716169	-0.117528
24147		9.789032	0.483015	-0.388062	-0.005861	-0.000627	0.013258	-0.755371	0.052246	-0.348633	0.682625	-0.085521	-0.716173	-0.117496
24148		9.685861	0.560449	-0.329345	-0.017662	-0.004054	0.023853	-0.753662	0.065674	-0.350098	0.682604	-0.085684	-0.716193	-0.117376
24149		9.683686	0.544658	-0.392331	-0.019301	0.009133	0.020429	-0.759277	0.057861	-0.343750	0.682695	-0.085985	-0.716066	-0.117405
24150		9.728695	0.496825	-0.423840	-0.023773	0.003176	0.012081	-0.753906	0.057129	-0.341797	0.682677	-0.086180	-0.716040	-0.117520
24151		9.729417	0.446972	-0.371201	-0.027958	-0.005729	0.007103	-0.758057	0.062988	-0.341309	0.682573	-0.086354	-0.716091	-0.117684
24152		9.723219	0.415270	-0.440185	-0.027395	-0.016454	0.013561	-0.751465	0.067627	-0.346191	0.682366	-0.086692	-0.716222	-0.117840
24153		9.735055	0.440967	-0.451430	-0.012917	-0.010370	0.015570	-0.752197	0.057617	-0.353760	0.682271	-0.086940	-0.716282	-0.117844
24154		9.736868	0.427276	-0.382282	-0.017422	-0.000476	0.012432	-0.750977	0.060303	-0.350586	0.682300	-0.087014	-0.716250	-0.117815
24155		9.745862	0.406672	-0.409605	-0.003633	-0.000613	0.010655	-0.763672	0.055908	-0.343750	0.682327	-0.086993	-0.716246	-0.117701
24156		9.677184	0.458287	-0.481044	0.009467	0.002894	0.008131	-0.751465	0.053467	-0.342529	0.682333	-0.086833	-0.716287	-0.117539
24157		9.721699	0.473097	-0.450796	-0.013099	-0.011601	0.009610	-0.760498	0.055908	-0.342041	0.682215	-0.086833	-0.716408	-0.117488
24158		9.761505	0.480251	-0.431147	-0.019522	0.000831	0.009616	-0.753418	0.067627	-0.342529	0.682174	-0.086934	-0.716421	-0.117564
24159		9.695318	0.493699	-0.447860	-0.000214	0.006734	0.008845	-0.751953	0.068848	-0.335938	0.682217	-0.086993	-0.716377	-0.117542
24160		9.682599	0.473792	-0.446526	0.002113	0.001165	0.009856	-0.745605	0.063477	-0.340576	0.682183	-0.087092	-0.716400	-0.117526
24161		9.725053	0.514592	-0.524198	0.005913	-0.003449	0.008552	-0.746094	0.063477	-0.340088	0.682156	-0.087035	-0.716456	-0.117385
24162		9.738714	0.530729	-0.463459	-0.008641	-0.008130	0.010898	-0.752930	0.058105	-0.351074	0.682070	-0.087133	-0.716531	-0.117354
24163		9.737647	0.519681	-0.403582	-0.018077	-0.003730	0.010094	-0.755127	0.058594	-0.338867	0.682056	-0.087193	-0.716538	-0.117344
24164		9.685690	0.494858	-0.454177	-0.019491	0.004721	0.010485	-0.754883	0.063721	-0.340576	0.682050	-0.087320	-0.716515	-0.117427
24165		9.708442	0.513273	-0.487830	-0.025587	-0.003503	0.009823	-0.756592	0.062256	-0.347168	0.681967	-0.087569	-0.716536	-0.117594
24166		9.739349	0.603038	-0.467526	-0.036298	0.003298	0.008019	-0.753418	0.058594	-0.345459	0.681962	-0.087832	-0.716469	-0.117834
24167		9.766824	0.691071	-0.425305	-0.046619	-0.002085	0.004208	-0.754150	0.055176	-0.340088	0.681896	-0.088097	-0.716447	-0.118155
24168		9.764057	0.720204	-0.357908	-0.091301	-0.028409	0.011585	-0.759033	0.067871	-0.334961	0.681529	-0.088821	-0.716602	-0.118789
24169		9.740633	0.789683	-0.341231	-0.154657	-0.039628	0.015356	-0.745117	0.062988	-0.339600	0.680948	-0.090352	-0.716745	-0.120099
24170		9.721258	0.623251	-0.306145	-0.211936	-0.056451	0.016317	-0.750488	0.067383	-0.337158	0.680223	-0.092232	-0.716916	-0.121744
24171		9.593785	0.622206	-0.233918	-0.289688	-0.063032	0.024556	-0.755615	0.069092	-0.337158	0.679334	-0.094916	-0.717012	-0.124057
24172		9.623680	0.638635	-0.225957	-0.339281	-0.049242	0.033004	-0.755371	0.075928	-0.332031	0.678511	-0.098063	-0.716896	-0.126757
24173		9.608795	0.551602	-0.333267	-0.418198	-0.068404	0.041767	-0.758789	0.081299	-0.337158	0.677395	-0.102059	-0.716791	-0.130118
24174		9.702735	0.392406	-0.287891	-0.484834	-0.080361	0.049822	-0.763916	0.088867	-0.330811	0.676109	-0.106692	-0.716622	-0.133961
24175		9.842396	0.202028	-0.400147	-0.479024	-0.096221	0.044502	-0.763672	0.090088	-0.324463	0.674618	-0.111327	-0.716587	-0.137839
24176		9.808022	0.003734	-0.527746	-0.389996	-0.080773	0.026191	-0.756836	0.098145	-0.322998	0.673325	-0.114980	-0.716596	-0.141079
24177		9.784136	-0.006580	-0.436544	-0.314986	-0.085613	0.015426	-0.755127	0.101074	-0.322021	0.672083	-0.117953	-0.716753	-0.143727
24178		9.667238	0.033058	-0.471998	-0.334539	-0.091658	0.001069	-0.754150	0.102783	-0.313477	0.670733	-0.120958	-0.716926	-0.146641
24179		9.972356	0.167761	-0.695181	-0.378907	-0.068912	-0.024159	-0.757568	0.095947	-0.314697	0.669434	-0.124073	-0.716868	-0.150211
24180		9.679169	0.546339	-1.111040	-0.558786	-0.005632	-0.050490	-0.766846	0.104248	-0.311279	0.668375	-0.128177	-0.715983	-0.155609
24181		9.761329	0.022806	-0.861107	-0.742717	0.040894	-0.073002	-0.762207	0.112305	-0.299805	0.667304	-0.133633	-0.714337	-0.163002
24182		9.592040	-0.460108	-1.356322	-0.844955	-0.003584	-0.038575	-0.759277	0.112793	-0.302246	0.665617	-0.140422	-0.712736	-0.171005
24183		9.392178	-0.446335	-1.666283	-0.762773	-0.074422	-0.039322	-0.759521	0.119873	-0.293945	0.663420	-0.146532	-0.711832	-0.178038
24184		10.156305	-0.117639	-1.293850	-0.460814	-0.030600	-0.025648	-0.765381	0.116211	-0.294922	0.662124	-0.150209	-0.711172	-0.182380
24185		9.646834	0.806869	-1.390600	-0.408334	-0.049896	-0.006770	-0.764160	0.126221	-0.288574	0.660794	-0.153543	-0.710762	-0.185992
24186		9.825685	0.628924	-1.185933	-0.351295	0.028994	-0.010275	-0.762695	0.134766	-0.288818	0.660215	-0.156334	-0.709799	-0.189371
24187		9.854812	0.251768	-1.081243	-0.242991	0.056722	-0.005000	-0.765381	0.132568	-0.291992	0.660090	-0.158311	-0.708811	-0.191848
24188		9.780394	0.543449	-1.065431	-0.051025	0.102516	-0.032414	-0.761719	0.129150	-0.302002	0.660700	-0.158267	-0.707971	-0.192885
24189		9.665620	0.934670	-0.949104	0.138597	0.136315	-0.028511	-0.762207	0.127441	-0.299805	0.662057	-0.156504	-0.707287	-0.192180
24190		9.635025	1.302828	-0.958984	0.172621	0.175242	-0.057781	-0.754395	0.129883	-0.298340	0.663715	-0.154130	-0.706431	-0.191525
24191		9.623026	1.504044	-0.906002	0.212407	0.247396	-0.071954	-0.764893	0.113770	-0.302979	0.666021	-0.151222	-0.705075	-0.190831
24192		9.570491	1.423413	-1.128867	0.181350	0.248756	-0.059672	-0.756836	0.120605	-0.313965	0.668297	-0.148448	-0.703680	-0.190202
24193		9.641074	1.204964	-1.112816	0.178482	0.237336	-0.005168	-0.755371	0.114502	-0.326904	0.670608	-0.146364	-0.702188	-0.189192
24194		9.707405	1.373129	-1.312720	0.213239	0.256054	0.066381	-0.749268	0.123047	-0.326172	0.673363	-0.144454	-0.700476	-0.187212
24195		9.705957	1.021356	-1.458208	0.257624	0.288453	0.076035	-0.754883	0.120361	-0.339600	0.676441	-0.142373	-0.698534	-0.184955
24196		10.036011	0.449208	-1.358346	0.360241	0.308300	-0.017131	-0.748047	0.115479	-0.344238	0.679656	-0.138528	-0.696802	-0.182603
24197		9.976960	0.155692	-0.883179	0.609198	0.302285	-0.194200	-0.749268	0.104248	-0.350342	0.682817	-0.130990	-0.695969	-0.179529
24198		9.465235	0.238134	-0.202796	0.861904	0.338844	-0.499061	-0.746826	0.075439	-0.364014	0.685929	-0.118509	-0.695823	-0.176880
24199		8.729664	0.785081	1.332911	0.879149	0.273426	-0.857474	-0.741455	0.055664	-0.357910	0.687626	-0.102624	-0.696687	-0.176821
24200		9.093712	2.613130	1.903902	0.706762	0.153684	-1.091682	-0.749512	0.022705	-0.376221	0.687303	-0.086503	-0.698339	-0.180153
24201		9.745706	4.575546	1.422285	0.533443	0.062252	-1.108358	-0.742188	0.000977	-0.380127	0.685840	-0.071820	-0.700189	-0.184933
24202		9.947700	3.396538	0.646936	0.049139	-0.043166	-1.032923	-0.751953	-0.022949	-0.366455	0.683083	-0.062233	-0.701568	-0.193201
24203		10.010106	1.669485	0.845098	-0.391424	-0.288024	-0.849604	-0.756836	-0.033691	-0.368896	0.678073	-0.058586	-0.703796	-0.203606
24204		9.557066	1.726410	0.674269	-0.201975	-0.528540	-0.593892	-0.756592	-0.045654	-0.356689	0.671676	-0.056232	-0.708231	-0.209995
24205		8.946103	1.983086	0.404507	-0.152902	-0.622312	-0.327972	-0.768799	-0.044189	-0.339844	0.665133	-0.055987	-0.713336	-0.213578
24206		8.987497	1.503953	-0.501134	-0.550206	-0.689909	-0.138285	-0.770020	-0.048584	-0.338379	0.658063	-0.061113	-0.717747	-0.219220
24207		8.705472	1.487668	-0.857491	-0.574468	-0.891979	-0.003797	-0.776367	-0.042969	-0.321777	0.649543	-0.067989	-0.723510	-0.223618
24208		9.224234	0.765894	-1.049006	-0.362655	-1.049313	0.127857	-0.790283	-0.044189	-0.289062	0.640031	-0.074777	-0.730893	-0.224865
24209		9.346778	0.170812	-0.486199	-0.179030	-0.909750	0.259322	-0.802734	-0.023193	-0.276367	0.632134	-0.080860	-0.737504	-0.223508
24210		9.478423	0.721213	-0.206353	-0.104448	-0.703617	0.349026	-0.795166	-0.021484	-0.263672	0.626363	-0.086901	-0.742452	-0.221093
24211		9.430322	0.751987	-0.221114	0.186220	-0.401413	0.337112	-0.805420	-0.010254	-0.258545	0.623708	-0.089512	-0.745798	-0.216241
24212		9.829069	-0.151055	-0.245025	0.653170	-0.106571	0.283655	-0.804443	-0.007080	-0.255859	0.624123	-0.087322	-0.748095	-0.207846
24213		9.932387	0.107758	-1.128960	1.031937	0.064312	0.233501	-0.798340	-0.020020	-0.256104	0.626341	-0.081280	-0.749995	-0.196463
24214		11.146558	1.563059	-1.115580	1.108352	0.143841	0.136997	-0.806152	-0.021729	-0.259277	0.629067	-0.073276	-0.751447	-0.185019
24215		11.216508	3.898849	-0.417546	1.022187	0.333548	0.037975	-0.802734	-0.032715	-0.267822	0.633118	-0.064667	-0.751150	-0.175364
24216		9.784667	3.713492	-0.334466	0.624232	0.336365	-0.005769	-0.794189	-0.035400	-0.263428	0.636722	-0.058677	-0.749892	-0.169718
24217		8.263163	1.723377	-0.328398	0.492106	0.343282	-0.017130	-0.802979	-0.035889	-0.268555	0.640169	-0.053673	-0.748285	-0.165446
24218		7.856138	1.698452	-1.771051	0.630020	0.127297	0.035736	-0.795898	-0.038574	-0.287354	0.641714	-0.048628	-0.748621	-0.159391
24219		9.337555	4.308880	-2.028738	-0.040217	-0.020076	0.043956	-0.790771	-0.044434	-0.289062	0.641594	-0.049252	-0.748690	-0.159358
24220		10.246543	4.939551	-0.336160	-0.802971	-0.095431	-0.007007	-0.794922	-0.029785	-0.283447	0.640202	-0.055515	-0.747835	-0.166739
24221		9.211923	2.328752	-1.451806	-1.121605	-0.091027	0.002247	-0.790771	-0.029297	-0.275391	0.638501	-0.064602	-0.746169	-0.177132
24222		9.422248	1.119942	-2.366006	-0.615196	-0.113145	-0.080843	-0.797119	-0.024658	-0.272217	0.636714	-0.068808	-0.745808	-0.183389
24223		9.889110	1.895565	-2.237920	-0.156973	-0.086614	-0.028281	-0.793945	-0.027588	-0.277100	0.635641	-0.069860	-0.746224	-0.185012
24224		10.031114	1.661332	-2.309275	-0.041689	-0.043311	0.021385	-0.790527	-0.021484	-0.269287	0.635245	-0.070257	-0.746494	-0.185130
24225		9.718352	1.063116	-1.633313	0.138020	-0.004086	0.113274	-0.801270	-0.028564	-0.266602	0.635540	-0.070110	-0.746798	-0.182938
24226		9.357636	1.205421	-1.592451	0.290608	0.029646	0.170176	-0.785156	-0.017334	-0.269775	0.636373	-0.069129	-0.747162	-0.178885
24227		9.410051	1.247204	-1.658720	0.418007	0.105314	0.206243	-0.792236	-0.017334	-0.272949	0.638134	-0.067383	-0.747108	-0.173415
24228		9.357144	1.708239	-1.621221	0.448239	0.144872	0.245052	-0.793213	-0.020508	-0.279297	0.640340	-0.065670	-0.746749	-0.167383
24229		9.205421	1.986932	-1.403650	0.364451	0.117420	0.231475	-0.792725	-0.015625	-0.281738	0.642192	-0.064469	-0.746415	-0.162168
24230		9.503337	1.953287	-1.475438	0.286750	0.113451	0.151999	-0.791992	-0.018311	-0.287354	0.643763	-0.063202	-0.745994	-0.158329
24231		9.463030	1.889457	-1.307871	0.245033	0.082699	0.136205	-0.793457	-0.017822	-0.283203	0.644997	-0.062114	-0.745731	-0.154941
24232		9.551667	1.692952	-1.212808	0.107331	0.082759	0.105113	-0.796143	-0.012207	-0.294189	0.646017	-0.061885	-0.745241	-0.153124
24233		9.769240	1.586340	-1.010485	0.032160	0.079259	0.061813	-0.791016	-0.015137	-0.287109	0.646909	-0.061877	-0.744631	-0.152330
24234		9.555160	1.272292	-0.613256	-0.121362	0.047074	0.037440	-0.787109	-0.009766	-0.294678	0.647294	-0.062942	-0.744037	-0.153161
24235		9.810997	1.113369	-0.755837	-0.093827	0.050031	0.010715	-0.791748	-0.010010	-0.296875	0.647722	-0.063528	-0.743457	-0.153926
24236		9.538498	1.165513	-0.820538	-0.083992	0.061887	0.039990	-0.794678	-0.004150	-0.295166	0.648319	-0.064275	-0.742779	-0.154368
24237		9.885957	0.928002	-0.806797	-0.055796	0.088154	0.029142	-0.794678	-0.008789	-0.292480	0.649134	-0.064724	-0.741960	-0.154698
24238		9.590723	1.402258	-1.105134	0.022050	0.118428	0.018023	-0.782471	-0.012695	-0.304199	0.650245	-0.064347	-0.741075	-0.154428
24239		9.564438	1.496216	-1.032500	0.002181	0.129617	-0.002553	-0.782471	-0.011230	-0.302246	0.651484	-0.063788	-0.740036	-0.154424
24240		9.384451	1.710915	-1.201444	-0.034972	0.061488	0.001543	-0.790771	-0.010498	-0.305908	0.652040	-0.063755	-0.739489	-0.154713
24241		9.684290	1.818620	-1.637517	-0.014314	0.097203	0.029653	-0.788330	-0.001953	-0.305420	0.652991	-0.063748	-0.738671	-0.154609
24242		9.639534	1.992285	-1.419581	-0.043524	0.137130	0.064183	-0.785645	-0.000977	-0.311279	0.654340	-0.064318	-0.737438	-0.154558
24243		9.331751	1.705072	-1.342057	-0.150534	0.147022	0.047228	-0.782471	-0.008057	-0.316895	0.655678	-0.065556	-0.735916	-0.155616
24244		9.690816	1.017019	-1.107617	-0.025819	0.172274	-0.011846	-0.785156	-0.010010	-0.316895	0.657253	-0.065069	-0.734473	-0.155990
24245		9.448904	1.131974	-1.012855	0.081608	0.181505	-0.029604	-0.787598	-0.008545	-0.320312	0.658934	-0.063535	-0.733193	-0.155554
24246		9.919463	1.105589	-1.224279	0.165073	0.202211	-0.045841	-0.771973	-0.012451	-0.324951	0.660825	-0.061154	-0.731914	-0.154508
24247		9.659813	1.583282	-1.453493	0.132327	0.230708	0.010806	-0.776367	-0.016602	-0.314941	0.663084	-0.059468	-0.730265	-0.153285
24248		9.698479	1.567408	-1.152147	-0.048499	0.189420	0.055181	-0.769043	-0.011230	-0.325439	0.664811	-0.059885	-0.728626	-0.153442
24249		9.697863	0.999482	-0.805948	-0.097288	0.208005	0.038670	-0.775391	-0.010254	-0.335449	0.666688	-0.060480	-0.726714	-0.154128
24250		9.451072	0.518982	-0.454241	0.045751	0.198245	0.041291	-0.770996	-0.008545	-0.330811	0.668605	-0.059876	-0.725147	-0.153437
24251		9.669123	0.815678	-0.442027	0.172724	0.161069	0.047672	-0.771729	-0.010742	-0.342285	0.670243	-0.058429	-0.724143	-0.151583
24252		9.853479	1.400464	-0.821569	0.109523	0.189954	0.040988	-0.766357	-0.004395	-0.347900	0.672124	-0.057302	-0.722757	-0.150296
24253		10.144208	1.003907	-1.039697	0.234579	0.328250	0.007069	-0.766602	-0.011719	-0.352783	0.675287	-0.054584	-0.720439	-0.148242
24254		9.384238	1.182872	-0.795897	0.345148	0.358630	-0.025692	-0.766846	-0.024414	-0.357666	0.678702	-0.050556	-0.718081	-0.145493
24255		9.151419	1.632197	-0.569024	0.163756	0.228674	-0.100731	-0.763184	-0.018066	-0.363037	0.680661	-0.047587	-0.716541	-0.144933
24256		9.397365	0.773743	-0.933134	-0.085497	0.068478	-0.193299	-0.759277	-0.021484	-0.365479	0.680873	-0.046256	-0.715946	-0.147290
24257		11.078633	-0.328728	-2.090659	0.504824	0.288803	-0.256807	-0.758057	-0.039062	-0.373047	0.683270	-0.038905	-0.714564	-0.145006
24258		10.438772	0.808153	-1.080611	1.245526	0.640161	-0.251907	-0.754883	-0.052979	-0.387695	0.689050	-0.024543	-0.711385	-0.136161
24259		9.779885	1.558198	-0.725155	1.191518	0.702644	-0.225284	-0.746826	-0.063232	-0.407959	0.695211	-0.010742	-0.707327	-0.127493
24260		10.120435	1.346959	0.676307	0.646048	0.280641	-0.158808	-0.745117	-0.078857	-0.405273	0.697590	-0.002868	-0.705876	-0.122877
24261		11.461130	2.149438	0.892339	0.442222	-0.000569	0.081650	-0.743408	-0.077637	-0.404785	0.697762	0.000640	-0.706541	-0.118016
24262		10.796848	3.021212	1.868162	0.156895	0.123432	0.361511	-0.749512	-0.072998	-0.412842	0.699428	-0.000645	-0.705678	-0.113221
24263		10.054206	0.572045	2.610860	-0.408962	0.058771	0.442436	-0.744385	-0.066406	-0.411133	0.700624	-0.007608	-0.704545	-0.112629
24264		8.663447	0.442655	1.571354	0.236956	0.056575	0.230779	-0.748291	-0.067871	-0.408203	0.701523	-0.007060	-0.704344	-0.108237
24265		7.536580	1.959853	0.152646	1.054597	-0.034134	0.009527	-0.742920	-0.079346	-0.406006	0.701290	0.002434	-0.706016	-0.098627
24266		7.433701	4.647438	-1.239142	0.914808	-0.134613	-0.096321	-0.749023	-0.080566	-0.406494	0.699938	0.011518	-0.708267	-0.091169
24267		7.052562	5.297503	-0.197222	0.051435	-0.198890	-0.064704	-0.750488	-0.087402	-0.407227	0.698138	0.012693	-0.710038	-0.091039
24268		7.128513	3.230882	-0.025334	-1.062199	-0.361405	0.253222	-0.748047	-0.083496	-0.396729	0.695378	0.001213	-0.711929	-0.098002
24269		7.964812	0.326182	0.374300	-1.133413	-0.430386	0.416925	-0.755127	-0.058350	-0.378662	0.692017	-0.012502	-0.714199	-0.104289
24270		8.316965	-0.592662	0.788152	-0.559377	-0.328611	0.365407	-0.762695	-0.039062	-0.379883	0.689405	-0.020895	-0.716262	-0.106085
24271		8.140157	-0.843791	0.440546	0.082644	-0.232378	0.238985	-0.762451	-0.037109	-0.368408	0.687650	-0.022426	-0.718329	-0.103134
24272		11.318708	-0.231092	0.558584	0.418927	-0.332200	0.034443	-0.771973	-0.039551	-0.376465	0.684778	-0.019455	-0.721736	-0.098985
24273		14.160187	3.621287	0.783201	0.959881	-0.011857	-0.114345	-0.761230	-0.054688	-0.379883	0.684730	-0.009932	-0.723010	-0.091116
24274		12.507076	4.042094	1.430471	0.225162	0.324167	-0.122648	-0.764893	-0.052246	-0.382812	0.687577	-0.006198	-0.720489	-0.089975
24275		9.416500	0.039447	0.608704	-0.194611	0.122688	-0.163149	-0.764404	-0.060303	-0.371338	0.688495	-0.006014	-0.719228	-0.093003
24276		8.752753	-1.406979	-1.450129	-0.051557	-0.293891	-0.002250	-0.763672	-0.057373	-0.372559	0.685802	-0.006686	-0.721727	-0.093492
24277		9.898463	-0.341823	0.275764	0.511480	-0.092041	0.106387	-0.764648	-0.060547	-0.368896	0.685110	-0.003207	-0.723109	-0.087903
24278		9.685912	1.437491	0.554756	0.391592	0.124251	0.143424	-0.764648	-0.068604	-0.379395	0.686380	-0.000867	-0.722480	-0.083095
24279		9.371720	0.900704	0.162778	0.399863	0.227577	0.068676	-0.751709	-0.068604	-0.380859	0.688502	0.002416	-0.720938	-0.078786
24280		9.049460	1.290410	-0.549402	0.523093	0.085476	-0.008458	-0.764404	-0.076660	-0.377686	0.689236	0.007276	-0.720705	-0.074063
24281		9.347066	2.040879	-1.027160	0.361926	0.002810	-0.046274	-0.768066	-0.075195	-0.374512	0.689158	0.010976	-0.721025	-0.071155
24282		10.319412	1.886590	-0.701703	0.153458	-0.025458	-0.077483	-0.766357	-0.076172	-0.379639	0.688809	0.013097	-0.721396	-0.070422
24283		10.168517	1.564935	-1.053849	0.087895	0.039085	-0.115642	-0.761230	-0.081543	-0.379639	0.689030	0.015089	-0.721132	-0.070566
24284		9.560920	0.945861	-1.279738	0.024437	0.024463	-0.122299	-0.752441	-0.085938	-0.381104	0.689122	0.016575	-0.720933	-0.071355
24285		9.364581	0.867814	-1.163424	0.087683	-0.083804	-0.078112	-0.757080	-0.091064	-0.376953	0.688268	0.018116	-0.721725	-0.071217
24286		9.960022	1.137503	-1.247659	0.138962	-0.039346	-0.046975	-0.754395	-0.089844	-0.377441	0.687820	0.019843	-0.722192	-0.070351
24287		9.927973	1.115447	-0.800339	0.135672	0.086982	-0.050082	-0.760742	-0.095947	-0.382080	0.688511	0.021679	-0.721562	-0.069507
24288		9.688214	1.069929	-0.925236	0.135497	0.027181	-0.046059	-0.763428	-0.093506	-0.379150	0.688663	0.023451	-0.721446	-0.068625
24289		9.589728	1.313003	-0.946065	0.188995	0.043987	-0.033012	-0.762695	-0.096680	-0.374023	0.688951	0.025548	-0.721237	-0.067159
24290		9.562168	1.582321	-0.981068	0.110120	0.088880	-0.014479	-0.760498	-0.100342	-0.379395	0.689671	0.026804	-0.720587	-0.066258
24291		9.642241	1.363970	-1.054907	-0.016203	0.060187	-0.012244	-0.758545	-0.101807	-0.377197	0.690182	0.026952	-0.720072	-0.066470
24292		9.596977	1.185505	-0.977787	-0.061646	0.023809	0.020396	-0.758057	-0.097900	-0.377686	0.690402	0.026369	-0.719849	-0.066836
24293		9.858314	0.867693	-0.873996	-0.163161	0.033543	0.042921	-0.760498	-0.099365	-0.386230	0.690761	0.024707	-0.719463	-0.067920
24294		9.746174	0.429595	-0.432631	-0.241792	0.041399	0.035279	-0.751221	-0.093750	-0.389648	0.691213	0.022484	-0.718926	-0.069742
24295		9.566939	0.199279	-0.597507	-0.149189	0.015404	-0.013533	-0.760010	-0.095947	-0.391357	0.691368	0.021475	-0.718669	-0.071164
24296		9.595514	0.712107	-0.616093	0.079680	0.053701	-0.026381	-0.759766	-0.093506	-0.393799	0.691789	0.022608	-0.718284	-0.070612
24297		9.460072	1.569395	-0.840807	0.059685	0.054279	0.000067	-0.758789	-0.099365	-0.377686	0.692244	0.023325	-0.717881	-0.070008
24298		9.755896	1.834751	-1.295556	0.006042	0.116318	-0.022627	-0.761475	-0.094482	-0.390625	0.693223	0.023778	-0.716911	-0.070110
24299		9.720246	1.789605	-1.033341	-0.082287	0.115336	-0.063868	-0.761963	-0.103760	-0.390625	0.694196	0.023862	-0.715844	-0.071337
24300		9.543877	1.517376	-0.989447	-0.128751	0.081322	-0.089999	-0.758057	-0.098877	-0.400879	0.694847	0.023758	-0.715027	-0.073213
24301		9.750509	1.273962	-0.896027	-0.127831	0.108661	-0.092267	-0.748291	-0.103271	-0.391602	0.695750	0.023720	-0.713955	-0.075086
24302		10.174853	1.165905	-0.687938	-0.098466	0.153509	-0.091166	-0.750488	-0.099121	-0.398926	0.697028	0.023935	-0.712528	-0.076703
24303		10.449676	1.256161	-0.676290	-0.053154	0.218656	-0.006467	-0.754883	-0.097656	-0.401611	0.698953	0.023855	-0.710594	-0.077151
24304		10.802470	0.990911	-0.555054	-0.042189	0.290476	0.091851	-0.745850	-0.092285	-0.413818	0.701594	0.023059	-0.708070	-0.076617
24305		10.966526	0.971548	-0.273715	0.008112	0.356148	0.087176	-0.740479	-0.099854	-0.423828	0.704798	0.022817	-0.704993	-0.075659
24306		11.503526	1.586549	0.071377	0.187840	0.461271	0.017431	-0.733398	-0.098877	-0.422119	0.708795	0.024904	-0.701114	-0.073680
24307		12.282691	2.685447	1.017267	0.193838	0.494295	-0.033750	-0.734863	-0.103760	-0.437256	0.712990	0.027486	-0.696915	-0.072109
24308		12.478792	3.128471	1.304335	0.141784	0.370488	-0.139082	-0.730469	-0.110107	-0.447510	0.716008	0.030430	-0.693706	-0.071956
24309		11.103728	3.318681	0.899018	-0.010168	0.313916	-0.323089	-0.727783	-0.112305	-0.438477	0.718412	0.033570	-0.690771	-0.074786
24310		10.360520	2.651961	1.184683	-0.144220	0.311436	-0.427794	-0.721436	-0.124512	-0.454346	0.720703	0.036354	-0.687682	-0.079743
24311		10.502541	2.673226	0.634799	-0.160433	0.204686	-0.439691	-0.722412	-0.129395	-0.455322	0.722055	0.039027	-0.685487	-0.084975
24312		9.623400	2.670006	0.222738	-0.256067	0.109201	-0.440315	-0.716064	-0.143799	-0.458008	0.722597	0.040724	-0.684031	-0.091081
24313		9.520534	2.162621	0.487947	-0.364861	0.040973	-0.436015	-0.718262	-0.140137	-0.455566	0.722585	0.041351	-0.683037	-0.098092
24314		9.644153	1.516282	0.578149	-0.347223	0.021386	-0.409929	-0.720703	-0.136230	-0.462891	0.722385	0.041852	-0.682229	-0.104744
24315		9.095680	1.039290	0.541172	-0.069278	0.089250	-0.392352	-0.712402	-0.149658	-0.456299	0.722621	0.044786	-0.681151	-0.108841
24316		8.726128	0.925969	0.717768	0.168622	0.104022	-0.389901	-0.712402	-0.156250	-0.457520	0.722827	0.049879	-0.680252	-0.110862
24317		9.050358	1.674928	0.679686	0.247212	0.140470	-0.347443	-0.708252	-0.163330	-0.459717	0.723329	0.055362	-0.679140	-0.111803
24318		9.169409	2.214979	0.288731	0.150406	0.070289	-0.195673	-0.711182	-0.174072	-0.458008	0.723500	0.058578	-0.678614	-0.112246
24319		8.963504	1.823401	0.709561	-0.178508	-0.043406	-0.104299	-0.707764	-0.170166	-0.462158	0.723067	0.057901	-0.678722	-0.114709
24320		8.929139	1.593443	1.787938	-0.261657	-0.169678	-0.096926	-0.712158	-0.172119	-0.462891	0.721631	0.056220	-0.679841	-0.117920
24321		9.488426	1.751750	1.113060	-0.082595	-0.143268	-0.091388	-0.719238	-0.174072	-0.454102	0.720297	0.056161	-0.680979	-0.119524
24322		9.429885	1.725068	0.410911	0.252091	0.022134	-0.032079	-0.713379	-0.180664	-0.463379	0.720209	0.058853	-0.681178	-0.117609
24323		9.118801	1.912558	0.717353	0.262426	0.035641	0.069043	-0.719482	-0.176270	-0.452148	0.720385	0.060821	-0.681317	-0.114687
24324		8.651109	2.394059	1.212681	0.132554	-0.034996	0.101078	-0.710938	-0.177979	-0.448975	0.720081	0.061205	-0.681945	-0.112642
24325		8.634138	2.732672	1.114188	-0.029270	-0.145436	0.123708	-0.711670	-0.178955	-0.448242	0.718992	0.059795	-0.683346	-0.111859
24326		9.338256	2.734137	0.499064	-0.118638	-0.157599	0.143646	-0.721436	-0.174805	-0.449707	0.717893	0.057408	-0.684737	-0.111660
24327		9.146240	2.064535	1.308635	-0.221027	-0.095434	0.178527	-0.717529	-0.162354	-0.440186	0.717440	0.053888	-0.685446	-0.111983
24328		8.703797	1.568003	1.484395	-0.154689	-0.089520	0.202323	-0.723877	-0.161377	-0.443604	0.717010	0.050731	-0.686208	-0.111544
24329		8.646878	1.454680	1.426389	0.049420	-0.114920	0.215996	-0.725586	-0.161377	-0.448242	0.716249	0.049273	-0.687481	-0.109227
24330		8.565510	1.991095	0.349410	0.196879	-0.097505	0.255812	-0.723389	-0.166992	-0.434082	0.715600	0.048833	-0.688803	-0.105271
24331		8.094239	2.202437	0.424933	0.192998	-0.071600	0.282622	-0.735107	-0.148682	-0.435303	0.715192	0.048193	-0.689905	-0.101039
24332		7.538162	1.764371	0.594698	-0.098655	-0.063451	0.305378	-0.735840	-0.142578	-0.436035	0.715039	0.044682	-0.690569	-0.099187
24333		7.481280	1.669978	0.328733	-0.119508	-0.101147	0.307463	-0.738281	-0.137939	-0.436523	0.714565	0.040924	-0.691529	-0.097519
24334		8.142524	1.869678	-0.325911	-0.130444	-0.106696	0.222755	-0.735352	-0.131348	-0.427002	0.713938	0.037804	-0.692469	-0.096698
24335		8.392112	1.841559	0.177659	-0.329549	-0.061193	0.149094	-0.732666	-0.130371	-0.432373	0.713692	0.033593	-0.692723	-0.098232
24336		9.139832	1.377005	0.729217	-0.517617	-0.156671	0.166051	-0.735352	-0.119873	-0.432617	0.712705	0.027464	-0.693572	-0.101273
24337		9.549384	0.941938	0.469545	-0.526330	-0.170592	0.163090	-0.742920	-0.108887	-0.420654	0.711561	0.021255	-0.694495	-0.104429
24338		10.295486	1.219136	0.565928	-0.364185	-0.146960	0.105445	-0.741211	-0.107910	-0.424072	0.710464	0.017005	-0.695396	-0.106660
24339		9.709692	1.068887	0.502766	-0.230599	-0.073517	0.075114	-0.740234	-0.102295	-0.420898	0.709934	0.014329	-0.695795	-0.107973
24340		9.426360	0.716316	0.499517	0.027354	-0.032556	0.032950	-0.745605	-0.095947	-0.418213	0.709652	0.014353	-0.696168	-0.107415
24341		9.617665	1.205618	0.538959	0.249282	-0.053799	-0.004872	-0.741943	-0.108154	-0.421631	0.709085	0.016617	-0.697021	-0.105284
24342		9.808101	1.386434	0.230419	0.441026	-0.005079	-0.039046	-0.742676	-0.114014	-0.425537	0.708854	0.020990	-0.697664	-0.101738
24343		9.789168	2.034396	-0.008372	0.467526	0.036183	-0.042713	-0.732422	-0.124268	-0.419678	0.708952	0.025683	-0.697944	-0.097989
24344		9.612290	1.984965	0.352099	0.293716	0.006042	-0.047050	-0.737793	-0.128662	-0.418457	0.708821	0.028858	-0.698260	-0.095781
24345		9.523045	1.877664	0.357182	0.198108	0.014275	-0.042387	-0.745117	-0.122559	-0.417969	0.708790	0.031152	-0.698386	-0.094357
24346		9.320912	1.730784	0.373952	0.170179	0.045454	-0.051802	-0.736328	-0.131836	-0.420654	0.709020	0.033268	-0.698198	-0.093290
24347		9.184040	1.491902	0.410071	0.143723	0.040501	-0.061867	-0.739502	-0.131836	-0.418213	0.709211	0.035266	-0.698007	-0.092526
24348		9.176046	1.411578	0.336573	0.117937	0.063312	-0.076486	-0.744385	-0.134033	-0.423096	0.709588	0.037172	-0.697581	-0.092112
24349		8.888134	1.671947	0.485864	0.011051	0.104607	-0.114005	-0.738281	-0.132812	-0.420898	0.710329	0.038501	-0.696642	-0.092950
24350		8.187134	1.518617	0.462161	-0.052509	0.126690	-0.153747	-0.741211	-0.139160	-0.423340	0.711241	0.039619	-0.695413	-0.094699
24351		8.520157	1.250572	0.639972	0.097285	0.090284	-0.140044	-0.728271	-0.132568	-0.432617	0.711773	0.041925	-0.694690	-0.095014
24352		9.237210	1.908920	1.150759	0.253866	0.075987	-0.114052	-0.737793	-0.154053	-0.429688	0.712133	0.045331	-0.694267	-0.093837
24353		8.633867	2.305508	1.089672	0.150181	0.085547	-0.050997	-0.736084	-0.151123	-0.431396	0.712699	0.047361	-0.693679	-0.092876
24354		8.231251	2.515212	0.730746	0.039454	0.066265	-0.036413	-0.735596	-0.156738	-0.434326	0.713177	0.048224	-0.693139	-0.092795
24355		8.065966	2.579739	0.406351	-0.058369	0.047733	-0.054789	-0.732910	-0.147705	-0.435547	0.713535	0.048374	-0.692636	-0.093721
24356		8.331311	2.294771	0.263397	-0.155387	0.073021	-0.030044	-0.731689	-0.151367	-0.432129	0.714195	0.047422	-0.691804	-0.095314
24357		8.744539	2.101958	0.278988	-0.182132	0.085998	0.021970	-0.726562	-0.142578	-0.436523	0.715037	0.045821	-0.690859	-0.096626
24358		9.535902	2.016241	0.356367	-0.173405	0.088277	0.021777	-0.733154	-0.147949	-0.434082	0.715891	0.044267	-0.689893	-0.097917
24359		9.557701	1.661415	0.576723	-0.064914	0.123152	-0.026664	-0.726562	-0.143799	-0.443115	0.716919	0.044185	-0.688731	-0.098615
24360		9.070360	1.609396	0.758708	-0.056050	0.151502	-0.034288	-0.722412	-0.145996	-0.447021	0.718181	0.044260	-0.687305	-0.099342
24361		8.781015	1.651552	0.351663	-0.145650	0.141873	0.004516	-0.722900	-0.137207	-0.450928	0.719458	0.043196	-0.685869	-0.100488
24362		10.195314	1.586481	0.540794	-0.155891	0.090454	0.019471	-0.721924	-0.138916	-0.454834	0.720311	0.041805	-0.684887	-0.101661
24363		10.322869	1.627318	1.123265	-0.029093	0.105904	-0.013240	-0.722168	-0.144775	-0.457275	0.721188	0.041875	-0.683905	-0.102015
24364		8.700778	1.440132	0.871200	-0.027361	0.144289	-0.001608	-0.726074	-0.144287	-0.455566	0.722409	0.041943	-0.682586	-0.102189
24365		9.342165	1.498914	-0.138473	-0.161350	0.069439	0.045360	-0.717773	-0.139648	-0.455566	0.723112	0.040305	-0.681804	-0.103096
24366		12.362042	1.901082	0.099447	0.051502	0.019348	0.023465	-0.725098	-0.137207	-0.459473	0.723252	0.040703	-0.681732	-0.102432
24367		11.992787	1.429036	0.917318	0.382927	0.023228	-0.051921	-0.719971	-0.147461	-0.459473	0.723148	0.044725	-0.682003	-0.099639
24368		10.032133	2.196402	1.208526	0.613385	0.038927	-0.073858	-0.721924	-0.154053	-0.464844	0.722998	0.051064	-0.682373	-0.095042
24369		8.674421	3.542555	0.398001	0.246982	0.049163	0.030011	-0.715820	-0.154297	-0.459229	0.723270	0.053196	-0.682249	-0.092662
24370		9.490157	2.436574	-0.413101	-0.241507	-0.013567	0.147674	-0.713623	-0.144775	-0.465576	0.723457	0.049826	-0.682200	-0.093434
24371		10.726769	1.719937	-0.073269	-0.037684	-0.060206	0.115632	-0.717285	-0.147461	-0.461426	0.723081	0.048485	-0.682776	-0.092848
24372		9.591508	1.682351	1.193360	0.303848	-0.043404	0.035663	-0.728516	-0.147217	-0.458496	0.722539	0.050964	-0.683549	-0.090005
24373		9.148026	2.430063	1.153482	0.302907	-0.018835	0.018920	-0.718018	-0.158447	-0.459961	0.722170	0.053589	-0.684089	-0.087298
24374		8.993946	2.485920	0.449804	0.000608	-0.046049	0.101166	-0.719727	-0.148682	-0.462158	0.721867	0.052791	-0.684580	-0.086438
24375		9.820914	1.613205	0.426536	-0.016644	-0.146030	0.151932	-0.717285	-0.153809	-0.452881	0.720770	0.051239	-0.685981	-0.085406
24376		9.621973	1.508615	1.139748	0.185426	-0.123946	0.101697	-0.723389	-0.150635	-0.450928	0.719674	0.052018	-0.687368	-0.083000
24377		8.697661	2.168394	0.577578	0.220500	-0.068399	0.080193	-0.729492	-0.152344	-0.454102	0.719000	0.053334	-0.688273	-0.080468
24378		8.715549	2.138261	-0.163874	0.116438	-0.081028	0.081209	-0.730225	-0.149658	-0.453613	0.718285	0.053685	-0.689179	-0.078846
24379		9.021719	1.555572	-0.112978	0.138726	-0.097290	0.105783	-0.735107	-0.145996	-0.449463	0.717436	0.053988	-0.690265	-0.076852
24380		8.796718	1.235819	0.464846	0.207597	-0.085249	0.074268	-0.728027	-0.157959	-0.452881	0.716604	0.055176	-0.691288	-0.074541
24381		9.152326	1.767631	0.554211	0.228608	-0.105657	0.057538	-0.732422	-0.153809	-0.441406	0.715571	0.056720	-0.692480	-0.072198
24382		10.396958	2.398971	0.688350	0.112637	-0.084820	0.074157	-0.730713	-0.156250	-0.441650	0.714799	0.057092	-0.693404	-0.070669
24383		11.689471	3.081800	0.865183	0.249858	0.005046	-0.060503	-0.732910	-0.152344	-0.438965	0.714589	0.059940	-0.693539	-0.069098
24384		13.160724	4.171661	1.136794	0.209824	0.049063	-0.310636	-0.733887	-0.171387	-0.448730	0.714556	0.064597	-0.693052	-0.070110
24385		11.914906	3.101322	0.402888	-0.090625	-0.094889	-0.344729	-0.727783	-0.179932	-0.447754	0.713482	0.066768	-0.693533	-0.074141
24386		9.633176	1.834802	-0.224432	-0.146352	-0.140091	-0.154286	-0.736572	-0.169434	-0.441162	0.712230	0.066757	-0.694509	-0.076994
24387		9.813912	1.413897	-0.156977	-0.332240	-0.153757	0.097906	-0.726562	-0.168945	-0.441650	0.711234	0.062845	-0.695642	-0.079239
24388		10.541607	0.649130	0.293968	-0.507056	-0.172141	0.222475	-0.733643	-0.165039	-0.440674	0.710321	0.056286	-0.696825	-0.081921
24389		9.532521	0.232278	0.395004	-0.184687	-0.102402	0.210302	-0.735596	-0.150635	-0.442871	0.709752	0.052797	-0.697692	-0.081799
24390		8.726218	1.438162	0.278533	0.079823	-0.063502	0.151688	-0.744385	-0.155029	-0.434570	0.709282	0.052156	-0.698435	-0.079920
24391		8.919534	2.928144	0.060412	0.041866	-0.019259	0.091909	-0.741455	-0.150391	-0.433105	0.709152	0.051803	-0.698723	-0.078771
24392		9.062182	2.714936	-0.206736	-0.165101	-0.046657	0.045716	-0.737549	-0.143555	-0.430664	0.708870	0.049976	-0.699017	-0.079881
24393		9.150037	2.644407	-0.533294	-0.189416	-0.061384	-0.003161	-0.741455	-0.149414	-0.430664	0.708420	0.048329	-0.699383	-0.081664
24394		9.714427	2.432760	-0.649021	-0.199648	-0.044378	-0.038421	-0.740967	-0.139160	-0.430176	0.708083	0.046951	-0.699565	-0.083799
24395		9.951268	1.953857	-0.676381	-0.245990	-0.051944	-0.038154	-0.748779	-0.146240	-0.426025	0.707700	0.045115	-0.699760	-0.086382
24396		9.910212	1.616397	-0.619931	-0.218631	-0.043583	-0.020875	-0.743896	-0.134766	-0.424072	0.707382	0.043434	-0.699924	-0.088486
24397		9.866066	1.320148	-0.516327	-0.231522	-0.052582	0.025574	-0.741943	-0.137451	-0.428955	0.707038	0.041184	-0.700171	-0.090341
24398		9.906169	1.345355	-0.584126	-0.190631	-0.004963	0.080769	-0.734375	-0.127441	-0.427979	0.707151	0.038872	-0.700061	-0.091332
24399		9.691887	1.354291	-0.805433	-0.118106	0.056030	0.100499	-0.740479	-0.135498	-0.432861	0.707782	0.037071	-0.699496	-0.091519
24400		9.578030	1.087750	-0.624888	-0.052187	0.094334	0.095498	-0.734131	-0.130615	-0.427002	0.708710	0.035981	-0.698666	-0.091109
24401		9.969331	1.022873	-0.447755	0.053382	0.147878	0.059447	-0.736816	-0.131104	-0.434326	0.710012	0.036210	-0.697469	-0.090050
24402		10.029335	1.001993	-0.567722	0.169004	0.204528	0.055732	-0.736572	-0.136719	-0.439453	0.711746	0.037555	-0.695890	-0.088001
24403		9.950755	0.962126	-0.423758	0.312153	0.227900	0.069388	-0.733887	-0.127686	-0.437744	0.713620	0.040094	-0.694255	-0.084554
24404		10.382922	1.524098	-0.480101	0.379203	0.255649	0.084390	-0.740479	-0.137451	-0.439697	0.715692	0.043099	-0.692433	-0.080398
24405		10.600126	1.991940	-0.148955	0.182944	0.308357	0.096724	-0.737305	-0.132568	-0.458984	0.718314	0.044332	-0.689939	-0.077739
24406		10.276728	2.243896	0.490301	0.018618	0.307820	0.127466	-0.733398	-0.135986	-0.455566	0.721047	0.043763	-0.687278	-0.076321
24407		10.345937	2.307653	0.951680	-0.041423	0.282836	0.146058	-0.723389	-0.135498	-0.468750	0.723599	0.042513	-0.684794	-0.075195
24408		10.607165	2.688303	1.285854	-0.125550	0.216171	0.127418	-0.720947	-0.128906	-0.464355	0.725606	0.040581	-0.682802	-0.075040
24409		10.709588	2.632268	1.367431	-0.163595	0.147925	0.100942	-0.724609	-0.130127	-0.469238	0.727012	0.038475	-0.681381	-0.075456
24410		10.949299	2.465231	1.255876	-0.200125	0.098355	0.074859	-0.720459	-0.121338	-0.474365	0.727982	0.036231	-0.680360	-0.076422
24411		10.869841	2.121618	0.924486	-0.193905	0.004283	0.080905	-0.721191	-0.118652	-0.470947	0.728153	0.033869	-0.680191	-0.077371
24412		11.088371	2.109080	1.220230	-0.210894	0.005277	0.073430	-0.725342	-0.111816	-0.471191	0.728324	0.031432	-0.679995	-0.078508
24413		11.282019	1.302987	1.327981	-0.242130	-0.029199	0.054981	-0.718262	-0.101318	-0.468262	0.728188	0.028822	-0.680071	-0.080097
24414		11.140457	1.615109	1.360050	-0.114312	-0.011736	0.045440	-0.722900	-0.112793	-0.476074	0.728141	0.027447	-0.680105	-0.080715
24415		10.865664	1.911131	1.326082	-0.095646	-0.001461	0.031916	-0.719971	-0.108643	-0.472412	0.728166	0.026411	-0.680055	-0.081252
24416		10.434343	2.146072	1.176183	-0.193665	-0.033619	-0.004321	-0.715332	-0.099365	-0.474854	0.727909	0.024753	-0.680186	-0.082964
24417		10.399185	1.885912	1.096613	-0.269654	-0.021520	-0.042719	-0.722900	-0.105957	-0.467285	0.727735	0.022700	-0.680101	-0.085732
24418		10.211949	1.725870	1.126266	-0.260199	-0.005100	-0.050749	-0.719482	-0.098145	-0.462402	0.727674	0.020884	-0.679884	-0.088384
24419		9.736601	1.719773	1.111242	-0.314561	-0.004632	-0.047087	-0.719971	-0.095703	-0.462158	0.727624	0.018524	-0.679597	-0.091480
24420		9.295927	1.561869	1.110825	-0.421945	-0.032698	-0.083710	-0.729492	-0.093262	-0.470215	0.727302	0.015468	-0.679420	-0.095821
24421		9.093345	1.107811	0.878715	-0.459301	-0.032384	-0.116247	-0.723877	-0.093750	-0.458496	0.726928	0.012341	-0.679165	-0.100787
24422		9.001610	0.861669	0.879215	-0.356415	0.013441	-0.129922	-0.723145	-0.094238	-0.467529	0.726887	0.010362	-0.678615	-0.104928
24423		8.487246	0.450395	1.014794	-0.298383	0.071681	-0.147515	-0.718262	-0.092285	-0.461426	0.727301	0.009129	-0.677586	-0.108750
24424		8.422412	0.898508	0.904532	-0.146036	0.070531	-0.162056	-0.720703	-0.089600	-0.462158	0.727655	0.009408	-0.676772	-0.111395
24425		8.351582	1.653050	0.370800	-0.077306	0.086933	-0.158678	-0.716309	-0.099854	-0.460205	0.728136	0.010284	-0.675901	-0.113444
24426		8.175276	1.838854	0.497275	-0.157003	0.108482	-0.141811	-0.723877	-0.097656	-0.465820	0.728831	0.010371	-0.674725	-0.115949
24427		8.078453	1.734530	0.717994	-0.354503	0.093461	-0.116961	-0.727539	-0.097412	-0.469238	0.729445	0.008401	-0.673393	-0.119921
24428		8.323078	1.370925	0.959234	-0.434439	0.083263	-0.116822	-0.718994	-0.094238	-0.467285	0.729961	0.005692	-0.672020	-0.124553
24429		8.421774	1.119998	0.890580	-0.393769	0.070587	-0.109644	-0.711914	-0.084229	-0.468262	0.730359	0.003269	-0.670806	-0.128783
24430		8.326249	0.874867	0.826727	-0.321311	0.098883	-0.082507	-0.709229	-0.088379	-0.477783	0.731017	0.001280	-0.669426	-0.132218
24431		8.252443	0.701040	0.797837	-0.205219	0.108907	-0.072065	-0.713135	-0.083984	-0.467529	0.731776	0.000314	-0.668131	-0.134557
24432		8.340541	0.944573	0.743224	-0.071669	0.101169	-0.081521	-0.709473	-0.089844	-0.468994	0.732435	0.000619	-0.667144	-0.135860
24433		8.400005	1.317572	0.579086	-0.019831	0.092278	-0.086363	-0.701172	-0.094971	-0.484375	0.733015	0.001448	-0.666323	-0.136749
24434		8.521991	1.201473	0.772389	-0.047859	0.095298	-0.072726	-0.701904	-0.098633	-0.474609	0.733659	0.001922	-0.665404	-0.137765
24435		8.760926	1.388414	0.909057	0.035311	0.127528	-0.052442	-0.696777	-0.079102	-0.480713	0.734594	0.003048	-0.664343	-0.137880
24436		9.045660	1.175915	1.110172	0.058578	0.095452	-0.039221	-0.705566	-0.087891	-0.478027	0.735277	0.004131	-0.663597	-0.137805
24437		9.509019	1.302053	1.089715	0.059156	0.031088	-0.012527	-0.701904	-0.089844	-0.475342	0.735470	0.004923	-0.663455	-0.137429
24438		9.755857	1.420851	1.129511	0.088908	0.034264	0.003037	-0.708740	-0.095459	-0.486328	0.735716	0.005872	-0.663334	-0.136655
24439		9.382604	1.657159	1.053946	0.222089	0.039159	0.021309	-0.704102	-0.101807	-0.480957	0.736026	0.007912	-0.663389	-0.134602
24440		9.173998	1.978994	1.051086	0.265909	0.027261	0.028344	-0.698242	-0.095459	-0.474854	0.736238	0.010287	-0.663623	-0.132107
24441		9.366041	1.940953	1.164673	0.231056	0.024032	0.028124	-0.697510	-0.110352	-0.484619	0.736417	0.012313	-0.663820	-0.129932
24442		9.531830	1.901244	1.301354	0.297223	0.027739	0.051732	-0.699951	-0.106934	-0.492920	0.736652	0.014785	-0.664083	-0.126963
24443		9.480516	2.049038	1.257575	0.288100	0.017059	0.092244	-0.698242	-0.109131	-0.489990	0.736854	0.016802	-0.664423	-0.123722
24444		9.574788	2.126911	1.195292	0.126358	-0.031011	0.118039	-0.698975	-0.115967	-0.482666	0.736722	0.017041	-0.664955	-0.121595
24445		9.558333	2.150715	1.199782	-0.007217	-0.056465	0.110777	-0.705078	-0.115723	-0.479492	0.736392	0.016084	-0.665519	-0.120630
24446		9.568637	2.012576	1.128707	-0.034647	-0.028821	0.099002	-0.698975	-0.106445	-0.481689	0.736278	0.015015	-0.665786	-0.119994
24447		9.404380	1.595331	1.250806	-0.041559	-0.030272	0.107114	-0.704834	-0.108643	-0.486572	0.736163	0.013798	-0.666052	-0.119363
24448		9.391586	1.514016	1.208501	-0.029231	-0.058046	0.114498	-0.709229	-0.102539	-0.485596	0.735827	0.012598	-0.666592	-0.118558
24449		9.374816	1.569068	0.906908	0.001924	-0.084168	0.091016	-0.714355	-0.091797	-0.479736	0.735229	0.011834	-0.667413	-0.117722
24450		9.412536	1.662018	0.917965	0.004120	-0.059613	0.075360	-0.710205	-0.092041	-0.474854	0.734808	0.011240	-0.668009	-0.117025
24451		9.386033	1.533337	0.968745	-0.037683	-0.032184	0.067370	-0.712402	-0.100342	-0.469971	0.734610	0.010373	-0.668291	-0.116741
24452		9.512623	1.297885	0.989485	-0.019060	-0.040288	0.040405	-0.708008	-0.096924	-0.467773	0.734302	0.009911	-0.668674	-0.116521
24453		9.482168	1.257247	1.049028	0.051759	-0.042739	0.024968	-0.709229	-0.100342	-0.473877	0.733942	0.010220	-0.669179	-0.115858
24454		9.368371	1.262717	1.054688	0.097847	-0.028671	0.029935	-0.709229	-0.099854	-0.476318	0.733703	0.010935	-0.669620	-0.114758
24455		9.295143	1.570945	1.155542	0.074606	-0.054211	0.024801	-0.710693	-0.100098	-0.470459	0.733246	0.011440	-0.670257	-0.113909
24456		9.186635	1.626785	0.951358	0.062978	-0.071721	0.012975	-0.717285	-0.103760	-0.462891	0.732624	0.011913	-0.671038	-0.113266
24457		8.999474	1.603411	0.937899	-0.018254	-0.072429	0.017731	-0.709473	-0.099121	-0.471191	0.732011	0.011608	-0.671714	-0.113246
24458		8.750005	1.526574	1.335790	-0.136839	-0.098840	0.008649	-0.713379	-0.098633	-0.464111	0.731183	0.010245	-0.672454	-0.114332
24459		8.676753	1.144712	1.102286	-0.188414	-0.082312	0.004614	-0.716553	-0.095215	-0.468018	0.730490	0.008471	-0.672968	-0.115878
24460		8.395960	1.066038	0.642918	-0.070962	-0.089437	0.007821	-0.714844	-0.094727	-0.468262	0.729726	0.007729	-0.673712	-0.116413
24461		8.734638	1.411921	0.746996	-0.032661	-0.080776	-0.001908	-0.716797	-0.096924	-0.470215	0.729018	0.007431	-0.674430	-0.116713
24462		9.524460	1.589888	0.911028	-0.049218	-0.096849	-0.026881	-0.718018	-0.096924	-0.461670	0.728139	0.007175	-0.675266	-0.117378
24463		9.260766	1.529299	0.955990	0.041270	-0.043462	-0.034539	-0.721680	-0.092529	-0.463379	0.727688	0.007886	-0.675751	-0.117337
24464		8.342106	1.568439	0.965527	-0.018054	0.016023	-0.007532	-0.714111	-0.098877	-0.467529	0.727784	0.007902	-0.675608	-0.117566
24465		8.115960	1.414530	0.388741	-0.216208	-0.018548	-0.006274	-0.716309	-0.095215	-0.469971	0.727611	0.006069	-0.675483	-0.119445
24466		9.524950	1.376841	0.589429	-0.125877	-0.030570	-0.014902	-0.720459	-0.086914	-0.471191	0.727314	0.005108	-0.675598	-0.120647
24467		9.661102	1.460496	1.262192	0.072612	-0.004604	-0.023525	-0.721191	-0.089600	-0.467529	0.727206	0.006044	-0.675773	-0.120273
24468		8.358833	1.387866	1.303067	0.032749	0.042903	-0.017448	-0.719238	-0.085938	-0.465332	0.727510	0.006641	-0.675459	-0.120168
24469		8.987897	1.026005	0.792647	-0.086315	0.025549	0.002411	-0.717285	-0.085693	-0.466064	0.727705	0.005951	-0.675124	-0.120902
24470		10.200256	1.611455	0.441019	0.089709	0.026603	0.015940	-0.713379	-0.085449	-0.471680	0.727916	0.006752	-0.675046	-0.120023
24471		10.415609	1.227616	0.695824	0.345580	0.077771	0.005470	-0.716553	-0.102295	-0.470215	0.728516	0.010040	-0.674873	-0.117088
24472		9.743779	1.642398	1.072899	0.537742	0.075715	0.002055	-0.710205	-0.098633	-0.474609	0.729048	0.015142	-0.674983	-0.112506
24473		9.570092	2.404264	1.457847	0.506995	0.036987	-0.034598	-0.716797	-0.114014	-0.467285	0.729175	0.020185	-0.675359	-0.108567
24474		9.339091	2.449268	0.962473	0.335866	0.044351	0.010913	-0.713623	-0.111328	-0.481689	0.729445	0.023324	-0.675435	-0.105608
24475		9.021419	2.296656	0.756131	0.076182	0.034094	0.130689	-0.712402	-0.102051	-0.469971	0.729859	0.023036	-0.675277	-0.103807
24476		9.239258	1.944877	0.645348	-0.044780	0.007093	0.155018	-0.724121	-0.110352	-0.468506	0.730102	0.021389	-0.675219	-0.102824
24477		10.016150	1.829981	0.613396	0.010481	0.021638	0.129632	-0.717773	-0.109863	-0.471924	0.730416	0.020518	-0.675099	-0.101549
24478		10.508707	1.778211	1.040174	0.106521	0.018521	0.110991	-0.716064	-0.106445	-0.472412	0.730657	0.020678	-0.675118	-0.099638
24479		10.086567	1.460307	1.454410	0.054604	0.020221	0.105348	-0.716553	-0.106934	-0.478516	0.730917	0.020403	-0.675051	-0.098231
24480		9.781186	1.670153	1.200631	0.029041	0.001402	0.138664	-0.711914	-0.097412	-0.483154	0.731067	0.019589	-0.675128	-0.096745
24481		10.035569	1.823347	0.977449	-0.090687	-0.058694	0.156234	-0.718262	-0.093994	-0.481201	0.730759	0.017428	-0.675603	-0.096169
24482		10.392737	1.339542	0.919310	-0.019741	-0.063652	0.139850	-0.715088	-0.093262	-0.471191	0.730368	0.016048	-0.676205	-0.095139
24483		9.608525	1.217355	0.824859	0.119624	-0.007882	0.112619	-0.719482	-0.094971	-0.475342	0.730384	0.016255	-0.676461	-0.093140
24484		9.842707	1.685247	0.363011	0.139851	-0.055098	0.085589	-0.723877	-0.090576	-0.479736	0.729964	0.016822	-0.677162	-0.091226
24485		10.638451	2.025185	0.736046	0.072741	-0.104454	0.053602	-0.721191	-0.102295	-0.471680	0.729099	0.016965	-0.678224	-0.090215
24486		10.267561	1.050653	1.001647	0.082864	-0.063962	0.055423	-0.716309	-0.101807	-0.468018	0.728578	0.017280	-0.678933	-0.089030
24487		9.844344	1.637216	0.816081	0.161669	-0.091148	0.065433	-0.723145	-0.096924	-0.467285	0.727817	0.018200	-0.679975	-0.087090
24488		10.251212	1.937713	0.561823	0.033059	-0.092916	0.030840	-0.717773	-0.102051	-0.466309	0.727028	0.018219	-0.680883	-0.086582
24489		9.928323	1.414564	0.485382	0.067683	-0.064210	0.038480	-0.722412	-0.094238	-0.471436	0.726486	0.018534	-0.681566	-0.085690
24490		8.927546	1.232493	0.641161	0.173977	-0.034714	0.045864	-0.723389	-0.094971	-0.468018	0.726176	0.019743	-0.682089	-0.083871
24491		9.137960	2.011533	0.768696	0.070799	-0.077346	0.018177	-0.728027	-0.100830	-0.468262	0.725494	0.020207	-0.682883	-0.083188
24492		9.275357	1.695281	0.740961	-0.056386	-0.070701	-0.003991	-0.720459	-0.093506	-0.463379	0.724878	0.019729	-0.683480	-0.083772
24493		8.975907	1.320922	0.541895	0.073587	-0.064919	-0.001304	-0.735107	-0.099121	-0.461182	0.724280	0.020392	-0.684158	-0.083247
24494		9.446487	1.461327	0.359552	0.126797	-0.049549	-0.016602	-0.728027	-0.102539	-0.461670	0.723778	0.021705	-0.684756	-0.082364
24495		10.044137	1.832256	0.455475	0.054096	-0.060237	-0.015379	-0.729736	-0.097656	-0.461914	0.723207	0.022339	-0.685369	-0.082102
24496		9.598012	1.722005	0.663002	-0.040501	-0.076658	-0.001119	-0.730225	-0.104736	-0.456787	0.722535	0.021952	-0.686035	-0.082559
24497		9.795932	1.328022	0.637987	-0.037332	-0.105757	0.008731	-0.737549	-0.097656	-0.455811	0.721622	0.021516	-0.686974	-0.082860
24498		10.648832	1.478074	0.666527	-0.043291	-0.116564	0.024096	-0.718750	-0.098145	-0.457031	0.720628	0.020857	-0.688008	-0.083104
24499		10.573186	1.511981	0.754468	0.000272	-0.083283	-0.081717	-0.731445	-0.103516	-0.456787	0.719806	0.021525	-0.688744	-0.083945
24500		10.963547	1.452793	0.869006	0.025471	-0.072073	-0.135168	-0.728760	-0.107178	-0.451660	0.719013	0.022905	-0.689396	-0.085022
24501		10.890444	1.776778	0.700299	0.158516	-0.033516	-0.098179	-0.735107	-0.113525	-0.448975	0.718548	0.025217	-0.689852	-0.084592
24502		10.052418	1.569491	0.701894	0.100172	-0.029351	-0.009466	-0.730713	-0.112793	-0.449951	0.718227	0.026261	-0.690240	-0.083841
24503		9.557388	1.436105	0.521336	-0.000721	-0.064302	0.073430	-0.733398	-0.109375	-0.447754	0.717725	0.025632	-0.690857	-0.083250
