// Start Time: Unknown
// Update Rate: 40.0Hz
// Filter Profile: human (46.1)
// Firmware Version: 4.6.0
PacketCounter	SampleTimeFine	Acc_X	Acc_Y	Acc_Z	Gyr_X	Gyr_Y	Gyr_Z	Mag_X	Mag_Y	Mag_Z	Quat_q0	Quat_q1	Quat_q2	Quat_q3
23592		9.744929	0.563352	-0.655916	0.009585	-0.003427	-0.011982	-0.764160	-0.246338	0.583252	-0.149525	-0.720715	0.118606	-0.666442
23593		9.725637	0.655045	-0.643163	0.010318	-0.005608	-0.011106	-0.765381	-0.245117	0.583740	-0.149516	-0.720798	0.118430	-0.666386
23594		9.729409	0.619634	-0.658459	0.009147	-0.007692	-0.009100	-0.768311	-0.245605	0.579102	-0.149478	-0.720895	0.118289	-0.666314
23595		9.734894	0.586687	-0.687809	0.011192	-0.010468	-0.011043	-0.760254	-0.240723	0.569092	-0.149466	-0.721018	0.118113	-0.666215
23596		9.755235	0.628040	-0.645175	0.005200	-0.010094	-0.008463	-0.760986	-0.245117	0.585205	-0.149476	-0.721126	0.118009	-0.666114
23597		9.737580	0.577070	-0.673863	0.009039	-0.009608	-0.010659	-0.763672	-0.244873	0.585938	-0.149455	-0.721244	0.117852	-0.666019
23598		9.752765	0.597142	-0.670281	0.003844	-0.002931	-0.011316	-0.762939	-0.248047	0.585938	-0.149489	-0.721299	0.117720	-0.665975
23599		9.763024	0.645335	-0.654207	0.001672	-0.002852	-0.009634	-0.760986	-0.244873	0.582031	-0.149567	-0.721342	0.117614	-0.665930
23600		9.726858	0.624074	-0.671336	0.010058	-0.005714	-0.009194	-0.755127	-0.247803	0.584473	-0.149548	-0.721421	0.117443	-0.665879
23601		9.724928	0.625825	-0.722825	0.009740	-0.007180	-0.007410	-0.767090	-0.246094	0.581787	-0.149545	-0.721519	0.117282	-0.665802
23602		9.762941	0.591736	-0.662267	0.003581	-0.003926	-0.006741	-0.765137	-0.244629	0.582764	-0.149587	-0.721565	0.117174	-0.665761
23603		9.732096	0.591437	-0.638586	0.013728	0.001958	-0.006848	-0.762695	-0.242188	0.582275	-0.149525	-0.721590	0.116970	-0.665784
23604		9.744064	0.626855	-0.716265	0.012049	-0.004659	-0.007468	-0.760742	-0.242432	0.582275	-0.149452	-0.721662	0.116790	-0.665754
23605		9.764782	0.539734	-0.682337	0.005722	-0.010832	-0.008259	-0.769043	-0.246094	0.586914	-0.149441	-0.721784	0.116661	-0.665646
23606		9.753783	0.623983	-0.691504	0.004210	-0.001871	-0.007648	-0.761230	-0.245361	0.579590	-0.149466	-0.721847	0.116538	-0.665594
23607		9.700901	0.667431	-0.676974	0.005871	-0.002183	-0.005503	-0.762939	-0.254150	0.583252	-0.149478	-0.721874	0.116423	-0.665583
23608		9.699591	0.573836	-0.701855	0.004034	0.000136	-0.006902	-0.763428	-0.241699	0.580078	-0.149612	-0.721907	0.116285	-0.665540
23609		9.754706	0.510565	-0.699766	0.013579	0.000351	-0.012496	-0.757812	-0.244385	0.575928	-0.149568	-0.721940	0.116037	-0.665558
23610		9.783831	0.598475	-0.687295	0.005757	0.003909	-0.013973	-0.760986	-0.239258	0.579834	-0.149643	-0.721916	0.115853	-0.665600
23611		9.736751	0.606319	-0.635278	0.003437	0.001492	-0.015273	-0.757812	-0.243652	0.579590	-0.149673	-0.721931	0.115680	-0.665606
23612		9.715180	0.613214	-0.694149	0.007665	-0.002333	-0.014872	-0.764160	-0.246094	0.587158	-0.149711	-0.721988	0.115479	-0.665571
23613		9.707295	0.632870	-0.671248	0.008635	0.000987	-0.014840	-0.763184	-0.236572	0.579346	-0.149741	-0.722056	0.115257	-0.665529
23614		9.711392	0.650343	-0.696185	0.011187	0.001873	-0.011494	-0.756836	-0.240234	0.579102	-0.149639	-0.722061	0.115050	-0.665583
23615		9.742816	0.628497	-0.689007	0.012121	0.003642	-0.008866	-0.765625	-0.247559	0.585938	-0.149564	-0.722069	0.114844	-0.665626
23616		9.740161	0.635209	-0.659757	0.003770	0.001002	-0.009011	-0.758789	-0.237061	0.579346	-0.149616	-0.722111	0.114706	-0.665593
23617		9.727168	0.596346	-0.647885	0.002491	-0.002905	-0.009917	-0.761719	-0.253662	0.583252	-0.149583	-0.722150	0.114581	-0.665580
23618		9.749145	0.573971	-0.685524	0.008584	-0.001335	-0.010944	-0.765381	-0.247314	0.581299	-0.149701	-0.722208	0.114396	-0.665521
23619		9.751584	0.638297	-0.645741	0.007380	0.002058	-0.009231	-0.763184	-0.244141	0.585693	-0.149734	-0.722202	0.114247	-0.665546
23620		9.738666	0.618330	-0.679158	0.010427	0.003283	-0.011075	-0.771240	-0.240234	0.579346	-0.149693	-0.722231	0.114037	-0.665560
23621		9.730054	0.610713	-0.673963	0.003146	0.005879	-0.009636	-0.761230	-0.246338	0.577393	-0.149676	-0.722141	0.113919	-0.665682
23622		9.712903	0.609688	-0.647532	0.001602	0.001954	-0.009990	-0.757812	-0.242920	0.571777	-0.149779	-0.722106	0.113821	-0.665713
23623		9.760564	0.598303	-0.650907	0.011673	-0.000407	-0.008697	-0.757568	-0.252441	0.583984	-0.149754	-0.722076	0.113664	-0.665778
23624		9.756142	0.656604	-0.683695	0.009040	0.001757	-0.007085	-0.766357	-0.246582	0.579346	-0.149830	-0.722123	0.113526	-0.665734
23625		9.722011	0.565945	-0.655005	0.006218	-0.000026	-0.007218	-0.761963	-0.247559	0.572021	-0.149846	-0.722097	0.113421	-0.665777
23626		9.782477	0.611970	-0.652821	0.007865	0.006701	-0.007973	-0.763916	-0.252686	0.578613	-0.149923	-0.721973	0.113310	-0.665912
23627		9.750072	0.594845	-0.694424	-0.000201	0.003962	-0.007306	-0.756348	-0.243408	0.581299	-0.150117	-0.721904	0.113280	-0.665949
23628		9.706408	0.657663	-0.681117	0.009929	0.002957	-0.005884	-0.769775	-0.247803	0.571045	-0.150017	-0.721937	0.113137	-0.665959
23629		9.697939	0.597079	-0.664119	-0.000424	0.005395	-0.007991	-0.764160	-0.237793	0.572510	-0.150158	-0.721754	0.113108	-0.666131
23630		9.732777	0.646375	-0.614460	0.001266	0.005766	-0.005782	-0.764160	-0.235107	0.576904	-0.150049	-0.721628	0.113030	-0.666306
23631		9.741565	0.555571	-0.656472	0.003017	0.008362	-0.006107	-0.766602	-0.247314	0.577881	-0.149846	-0.721530	0.112898	-0.666480
23632		9.754308	0.563278	-0.638326	0.003565	0.003218	-0.010992	-0.763428	-0.244141	0.584717	-0.149932	-0.721466	0.112803	-0.666545
23633		9.744600	0.631633	-0.613290	0.003714	-0.000340	-0.009135	-0.763428	-0.245117	0.565430	-0.149871	-0.721526	0.112677	-0.666516
23634		9.725752	0.613463	-0.655181	0.006052	-0.003190	-0.010257	-0.764893	-0.241943	0.571289	-0.149974	-0.721404	0.112633	-0.666632
23635		9.730764	0.587755	-0.667387	0.009379	-0.002043	-0.011287	-0.764404	-0.252197	0.585938	-0.149921	-0.721340	0.112494	-0.666737
23636		9.733717	0.661866	-0.626273	0.007561	0.000066	-0.009968	-0.760010	-0.240479	0.573975	-0.150008	-0.721407	0.112373	-0.666664
23637		9.716757	0.610087	-0.652058	0.006022	0.001215	-0.005175	-0.765869	-0.237793	0.584473	-0.149885	-0.721368	0.112280	-0.666750
23638		9.736328	0.607761	-0.642959	0.009037	0.000896	-0.004420	-0.767334	-0.257812	0.570312	-0.149556	-0.721414	0.112102	-0.666804
23639		9.749652	0.675911	-0.636571	0.003721	-0.002192	-0.002448	-0.765137	-0.245117	0.574951	-0.149903	-0.721272	0.112220	-0.666860
23640		9.731193	0.568301	-0.638113	0.007932	-0.006675	-0.002099	-0.767090	-0.244385	0.572998	-0.149826	-0.721265	0.112183	-0.666892
23641		9.720771	0.591604	-0.650716	0.008103	-0.002627	-0.001721	-0.766602	-0.241699	0.584717	-0.149742	-0.721184	0.112152	-0.667003
23642		9.729997	0.611628	-0.653983	0.005031	-0.003658	-0.002602	-0.763672	-0.247070	0.581299	-0.149521	-0.721256	0.112057	-0.666991
23643		9.733404	0.581660	-0.653223	0.006552	-0.006456	-0.003433	-0.765137	-0.246826	0.576904	-0.149479	-0.721330	0.112006	-0.666929
23644		9.747615	0.607484	-0.634722	-0.000409	-0.008469	-0.004904	-0.763184	-0.233887	0.584717	-0.149541	-0.721342	0.112033	-0.666898
23645		9.742441	0.568093	-0.630719	0.003903	-0.010151	-0.005666	-0.765869	-0.242920	0.576172	-0.149144	-0.721504	0.111880	-0.666836
23646		9.731999	0.575508	-0.660811	0.004764	-0.002797	-0.004714	-0.770020	-0.242676	0.585449	-0.149077	-0.721458	0.111847	-0.666907
23647		9.718215	0.578339	-0.662891	0.003398	-0.001805	-0.007348	-0.759033	-0.244385	0.577637	-0.148930	-0.721486	0.111739	-0.666927
23648		9.812158	0.534405	-0.673597	0.005103	0.000219	-0.009101	-0.760986	-0.237061	0.588379	-0.148951	-0.721497	0.111651	-0.666925
23649		9.766472	0.611774	-0.630466	-0.005255	0.000883	-0.005885	-0.764648	-0.245850	0.576172	-0.148714	-0.721607	0.111556	-0.666875
23650		9.709425	0.573376	-0.658750	0.008696	-0.000362	-0.005361	-0.758545	-0.246338	0.576172	-0.148714	-0.721551	0.111512	-0.666944
23651		9.718616	0.594274	-0.661414	0.005652	-0.000721	-0.006178	-0.763184	-0.242920	0.577148	-0.148779	-0.721548	0.111475	-0.666938
23652		9.746812	0.567202	-0.627954	0.002031	-0.001688	-0.007318	-0.767578	-0.238037	0.575684	-0.148763	-0.721523	0.111442	-0.666974
23653		9.737371	0.549510	-0.626347	0.010952	-0.004355	-0.009331	-0.767090	-0.242188	0.580566	-0.148548	-0.721488	0.111316	-0.667081
23654		9.761072	0.545958	-0.661090	0.007585	-0.006079	-0.009721	-0.760986	-0.238281	0.580322	-0.148429	-0.721524	0.111200	-0.667087
23655		9.727309	0.586770	-0.639063	0.007501	-0.007227	-0.012570	-0.767090	-0.248047	0.570312	-0.148250	-0.721628	0.111034	-0.667043
23656		9.743968	0.609781	-0.648995	0.007639	-0.003853	-0.012259	-0.761230	-0.247314	0.583008	-0.148453	-0.721501	0.111027	-0.667136
23657		9.736175	0.595248	-0.660825	0.005819	-0.001748	-0.010941	-0.765381	-0.240479	0.580078	-0.148498	-0.721576	0.110908	-0.667066
23658		9.725451	0.637511	-0.655908	0.005737	-0.003770	-0.011127	-0.767578	-0.246826	0.572510	-0.148371	-0.721598	0.110784	-0.667090
23659		9.728965	0.592453	-0.672010	0.009289	-0.004921	-0.008813	-0.766846	-0.240234	0.584473	-0.148453	-0.721506	0.110759	-0.667175
23660		9.760377	0.587503	-0.649709	0.009475	-0.006926	-0.009550	-0.762207	-0.242676	0.580078	-0.148214	-0.721606	0.110587	-0.667149
23661		9.738024	0.580913	-0.648594	0.005683	-0.005991	-0.008588	-0.771240	-0.238525	0.578369	-0.148144	-0.721667	0.110500	-0.667113
23662		9.736219	0.564015	-0.653836	0.005881	-0.007222	-0.010625	-0.766846	-0.236328	0.582520	-0.147969	-0.721641	0.110407	-0.667195
23663		9.721470	0.558650	-0.659162	0.008503	-0.009271	-0.013594	-0.768066	-0.239990	0.575195	-0.147703	-0.721737	0.110214	-0.667183
23664		9.721870	0.571510	-0.660102	0.009479	-0.011997	-0.014681	-0.765625	-0.240479	0.580811	-0.147630	-0.721744	0.110107	-0.667209
23665		9.735102	0.573519	-0.662149	0.015388	-0.015206	-0.014786	-0.762939	-0.244629	0.585449	-0.147450	-0.721882	0.109898	-0.667134
23666		9.767525	0.624517	-0.666874	0.009650	-0.007172	-0.015611	-0.763184	-0.240234	0.578613	-0.147404	-0.722016	0.109688	-0.667034
23667		9.741056	0.604839	-0.640253	0.007898	-0.003822	-0.012810	-0.757324	-0.244873	0.574463	-0.147330	-0.722024	0.109563	-0.667061
23668		9.756170	0.608260	-0.653126	0.009969	-0.001598	-0.008247	-0.765381	-0.244385	0.574463	-0.147399	-0.722004	0.109512	-0.667077
23669		9.713553	0.673379	-0.655041	0.008832	-0.002916	-0.007528	-0.762939	-0.246338	0.577393	-0.147427	-0.721922	0.109487	-0.667163
23670		9.732025	0.585393	-0.719020	0.004588	-0.006726	-0.006442	-0.756348	-0.242920	0.581787	-0.147501	-0.721922	0.109488	-0.667146
23671		9.773171	0.564438	-0.669948	-0.000010	-0.004979	-0.006489	-0.765381	-0.244385	0.579590	-0.147496	-0.722016	0.109457	-0.667051
23672		9.728218	0.600871	-0.677670	0.002425	-0.005020	-0.008724	-0.763184	-0.242432	0.581299	-0.147521	-0.722008	0.109427	-0.667059
23673		9.710575	0.556671	-0.688677	-0.003238	-0.001698	-0.010531	-0.763672	-0.242676	0.574219	-0.147552	-0.722006	0.109393	-0.667060
23674		9.710087	0.593200	-0.655387	0.001275	-0.004591	-0.013331	-0.760254	-0.239746	0.583984	-0.147644	-0.721950	0.109364	-0.667105
23675		9.754016	0.535499	-0.668517	0.003013	-0.001986	-0.013668	-0.767334	-0.236816	0.577148	-0.147544	-0.722030	0.109209	-0.667066
23676		9.763481	0.585158	-0.653464	0.008815	-0.007009	-0.016681	-0.761719	-0.242676	0.583984	-0.147392	-0.722024	0.109043	-0.667134
23677		9.751188	0.576083	-0.687600	0.010612	-0.009777	-0.018058	-0.761475	-0.240479	0.578125	-0.147324	-0.722169	0.108818	-0.667028
23678		9.735481	0.579221	-0.677781	0.009872	-0.007706	-0.017584	-0.766113	-0.239502	0.581787	-0.147278	-0.722223	0.108646	-0.667008
23679		9.707038	0.576395	-0.683941	0.008899	-0.004206	-0.017799	-0.759277	-0.245850	0.579346	-0.147165	-0.722251	0.108444	-0.667035
23680		9.749930	0.605751	-0.675257	0.008415	-0.001244	-0.020540	-0.757812	-0.242188	0.577393	-0.147296	-0.722276	0.108260	-0.667009
23681		9.734026	0.748783	-0.668142	0.008660	-0.005191	-0.013221	-0.768311	-0.245850	0.576416	-0.147287	-0.722316	0.108146	-0.666986
23682		9.740369	0.637149	-0.702575	0.012589	-0.005255	-0.007254	-0.757812	-0.243652	0.574951	-0.147261	-0.722254	0.108087	-0.667068
23683		9.752817	0.661106	-0.670234	0.001156	-0.004627	-0.003179	-0.765137	-0.248779	0.573975	-0.147303	-0.722233	0.108148	-0.667072
23684		9.739929	0.610508	-0.659544	0.001510	0.003163	0.001633	-0.763184	-0.237793	0.576904	-0.147426	-0.722065	0.108275	-0.667206
23685		9.744624	0.588931	-0.654547	0.005179	0.005500	0.002884	-0.761963	-0.240234	0.578125	-0.147198	-0.721953	0.108283	-0.667376
23686		9.737403	0.554261	-0.681647	0.003360	0.001744	0.000379	-0.770752	-0.252441	0.575684	-0.147067	-0.721896	0.108297	-0.667465
23687		9.733398	0.540347	-0.656892	0.001106	-0.005976	-0.003299	-0.760498	-0.250488	0.583008	-0.147281	-0.721795	0.108408	-0.667508
23688		9.732487	0.532038	-0.660392	0.006445	-0.008131	-0.007690	-0.770752	-0.242920	0.579346	-0.147389	-0.721895	0.108370	-0.667383
23689		9.751171	0.582860	-0.665266	0.012938	-0.002439	-0.008925	-0.766357	-0.249512	0.579346	-0.147261	-0.721849	0.108237	-0.667483
23690		9.723602	0.587619	-0.669225	0.015820	-0.005230	-0.011141	-0.760742	-0.245117	0.577393	-0.147303	-0.721860	0.108103	-0.667483
23691		9.740581	0.559799	-0.730369	0.015510	-0.005821	-0.012012	-0.755859	-0.236572	0.572998	-0.147284	-0.721903	0.107953	-0.667465
23692		9.747433	0.613568	-0.686842	0.015059	-0.003060	-0.012032	-0.756592	-0.240967	0.578369	-0.147122	-0.721920	0.107776	-0.667511
23693		9.756418	0.574497	-0.679956	0.007840	-0.005143	-0.012925	-0.763428	-0.245117	0.583252	-0.147093	-0.721989	0.107653	-0.667463
23694		9.723979	0.617731	-0.671105	0.010908	-0.004086	-0.012057	-0.763428	-0.244873	0.579346	-0.147063	-0.722047	0.107507	-0.667430
23695		9.715563	0.593485	-0.684995	0.003733	-0.005596	-0.011528	-0.767822	-0.240479	0.576416	-0.147120	-0.722062	0.107449	-0.667411
23696		9.723448	0.623293	-0.673661	0.004864	-0.004273	-0.012251	-0.768311	-0.243652	0.578125	-0.147075	-0.722011	0.107363	-0.667490
23697		9.736924	0.624388	-0.673075	0.004201	-0.001827	-0.007635	-0.765137	-0.243896	0.578125	-0.147060	-0.721945	0.107327	-0.667570
23698		9.738826	0.550210	-0.693335	0.000873	-0.002131	-0.009253	-0.765137	-0.239258	0.573486	-0.147106	-0.721902	0.107307	-0.667610
23699		9.732881	0.597956	-0.665753	-0.001106	-0.002441	-0.012265	-0.756592	-0.241455	0.580566	-0.147122	-0.721821	0.107275	-0.667698
23700		9.739596	0.591915	-0.674164	-0.002498	-0.003010	-0.012293	-0.764893	-0.240479	0.576416	-0.147171	-0.721876	0.107229	-0.667636
23701		9.718639	0.545201	-0.721316	0.000962	-0.005183	-0.014188	-0.770996	-0.241943	0.574951	-0.147181	-0.721857	0.107157	-0.667666
23702		9.744585	0.570453	-0.687919	0.009648	-0.007117	-0.015600	-0.764404	-0.244629	0.578613	-0.147144	-0.721815	0.107021	-0.667742
23703		9.742565	0.676297	-0.651241	0.006468	-0.005794	-0.011590	-0.765625	-0.246582	0.580322	-0.147159	-0.721830	0.106941	-0.667734
23704		9.740169	0.694180	-0.684682	0.004622	0.001370	-0.005165	-0.760742	-0.238281	0.577393	-0.147170	-0.721780	0.106921	-0.667789
23705		9.731072	0.587313	-0.689705	0.002168	0.000725	-0.002988	-0.759766	-0.242676	0.583252	-0.147038	-0.721744	0.106910	-0.667859
23706		9.747199	0.554103	-0.671741	0.004498	0.005395	-0.004258	-0.755371	-0.238281	0.579346	-0.146961	-0.721735	0.106853	-0.667895
23707		9.743172	0.585559	-0.673382	0.001884	0.000805	-0.003799	-0.755615	-0.243408	0.578857	-0.146849	-0.721755	0.106830	-0.667901
23708		9.734755	0.576755	-0.669442	0.004680	-0.003902	-0.007552	-0.762695	-0.247803	0.584229	-0.146858	-0.721812	0.106793	-0.667844
23709		9.724734	0.565928	-0.652155	0.004266	-0.000570	-0.006154	-0.765869	-0.244629	0.583984	-0.146888	-0.721837	0.106756	-0.667816
23710		9.732881	0.577726	-0.657417	0.012551	-0.005786	-0.008672	-0.761230	-0.241699	0.579346	-0.146780	-0.721904	0.106622	-0.667789
23711		9.730406	0.595435	-0.692135	0.010559	-0.008415	-0.007774	-0.775635	-0.240967	0.580078	-0.146674	-0.721974	0.106533	-0.667751
23712		9.732613	0.564620	-0.678388	0.003946	-0.008459	-0.009586	-0.763428	-0.241455	0.575684	-0.146577	-0.721949	0.106473	-0.667809
23713		9.737675	0.555893	-0.675216	0.004318	-0.012364	-0.012404	-0.762695	-0.242920	0.569336	-0.146585	-0.721996	0.106424	-0.667763
23714		9.746970	0.587941	-0.678640	0.009463	-0.006744	-0.010900	-0.765137	-0.246338	0.585205	-0.146626	-0.721947	0.106380	-0.667815
23715		9.767796	0.634326	-0.711833	0.005373	0.001628	-0.009546	-0.762695	-0.239990	0.579590	-0.146636	-0.721948	0.106293	-0.667825
23716		9.740874	0.576898	-0.703319	0.002172	0.002271	-0.005596	-0.757324	-0.249023	0.585205	-0.146564	-0.721904	0.106267	-0.667893
23717		9.718588	0.586298	-0.683138	0.003184	0.000228	-0.006615	-0.763672	-0.242920	0.577393	-0.146648	-0.721956	0.106242	-0.667822
23718		9.723598	0.593666	-0.661117	0.004348	-0.005165	-0.008479	-0.756592	-0.243408	0.578857	-0.146643	-0.721953	0.106212	-0.667831
23719		9.750437	0.566710	-0.677243	0.001888	0.003123	-0.007710	-0.757812	-0.240967	0.577393	-0.146688	-0.721931	0.106192	-0.667848
23720		9.730641	0.571598	-0.684985	0.000591	0.006017	-0.008805	-0.765869	-0.241211	0.579834	-0.146715	-0.721866	0.106163	-0.667917
23721		9.749033	0.551753	-0.678551	0.000721	0.001994	-0.009708	-0.764893	-0.245850	0.576904	-0.146701	-0.721812	0.106117	-0.667986
23722		9.743859	0.592377	-0.665430	0.003084	0.000722	-0.013424	-0.764648	-0.244873	0.588379	-0.146808	-0.721755	0.106055	-0.668034
23723		9.730501	0.562853	-0.700854	0.010403	-0.001859	-0.013501	-0.757812	-0.250977	0.578369	-0.146743	-0.721838	0.105878	-0.667987
23724		9.713760	0.616499	-0.701656	0.009959	0.000027	-0.010861	-0.765137	-0.241699	0.580566	-0.146871	-0.721846	0.105799	-0.667962
23725		9.741644	0.626051	-0.697170	0.012780	0.001752	-0.009388	-0.755859	-0.247803	0.582031	-0.146747	-0.721827	0.105657	-0.668032
23726		9.736221	0.611507	-0.658129	0.013880	0.000863	-0.007565	-0.762695	-0.241211	0.580811	-0.146734	-0.721877	0.105548	-0.667999
23727		9.744039	0.596403	-0.681301	0.010303	-0.001114	-0.004660	-0.767822	-0.243652	0.576904	-0.146593	-0.721887	0.105475	-0.668030
23728		9.736589	0.580115	-0.692662	0.004197	-0.002582	-0.006328	-0.759277	-0.236572	0.579590	-0.146574	-0.721837	0.105462	-0.668091
23729		9.731815	0.574482	-0.652595	0.009222	-0.001092	-0.003817	-0.763428	-0.237061	0.576660	-0.146377	-0.721858	0.105398	-0.668122
23730		9.750118	0.580991	-0.691904	0.010656	0.001603	-0.004979	-0.762207	-0.236084	0.583008	-0.146199	-0.721811	0.105319	-0.668223
23731		9.738411	0.584171	-0.643440	0.002143	0.000057	-0.003048	-0.758057	-0.246338	0.579590	-0.146031	-0.721821	0.105303	-0.668252
23732		9.727393	0.564128	-0.691131	-0.001075	-0.005733	-0.004316	-0.762695	-0.243896	0.577393	-0.146115	-0.721861	0.105366	-0.668180
23733		9.741665	0.546490	-0.645003	0.003451	-0.007816	-0.008412	-0.763916	-0.244385	0.579834	-0.146146	-0.721890	0.105359	-0.668143
23734		9.736890	0.552566	-0.667975	0.011103	-0.007574	-0.010168	-0.760498	-0.245605	0.585449	-0.146110	-0.721945	0.105262	-0.668107
23735		9.739707	0.559673	-0.696896	0.013288	-0.006167	-0.013101	-0.764648	-0.238037	0.588867	-0.146077	-0.722057	0.105102	-0.668018
23736		9.720288	0.575176	-0.705320	0.012008	-0.002601	-0.014141	-0.758301	-0.244385	0.584473	-0.145911	-0.722145	0.104901	-0.667991
23737		9.800794	0.623304	-0.710582	0.009316	-0.002599	-0.011353	-0.765869	-0.240723	0.576416	-0.145899	-0.722218	0.104786	-0.667933
23738		9.732695	0.586544	-0.689590	0.009551	0.003272	-0.008111	-0.760986	-0.232910	0.577393	-0.145833	-0.722135	0.104708	-0.668050
23739		9.680930	0.597254	-0.721529	0.009551	0.003273	-0.008111	-0.759277	-0.239258	0.586914	-0.145653	-0.722092	0.104610	-0.668151
23740		9.706982	0.577911	-0.721932	0.006911	-0.001133	-0.010361	-0.757324	-0.239990	0.573486	-0.145560	-0.722165	0.104497	-0.668110
23741		9.749320	0.612018	-0.634975	-0.001886	-0.003385	-0.007932	-0.754639	-0.242676	0.588623	-0.145629	-0.722140	0.104548	-0.668113
23742		9.758643	0.502050	-0.681032	0.000361	-0.001498	-0.008084	-0.763672	-0.249756	0.578369	-0.145633	-0.722235	0.104514	-0.668015
23743		9.760282	0.533210	-0.676920	0.005131	-0.004999	-0.011483	-0.760498	-0.241455	0.582520	-0.145765	-0.722240	0.104474	-0.667988
23744		9.716376	0.642361	-0.645132	0.003044	-0.009463	-0.013472	-0.762207	-0.240479	0.583008	-0.145779	-0.722333	0.104410	-0.667894
23745		9.722459	0.582974	-0.692827	0.006777	-0.014678	-0.010695	-0.764160	-0.242920	0.581787	-0.145707	-0.722466	0.104344	-0.667776
23746		9.742165	0.565758	-0.704456	0.014734	-0.013823	-0.011588	-0.765381	-0.242188	0.587402	-0.145611	-0.722584	0.104213	-0.667689
23747		9.736209	0.623231	-0.678452	0.012836	-0.012994	-0.011756	-0.769287	-0.233398	0.579102	-0.145490	-0.722725	0.104072	-0.667585
23748		9.739658	0.585290	-0.679385	0.008887	-0.000796	-0.007358	-0.763184	-0.236328	0.582275	-0.145298	-0.722671	0.104001	-0.667697
23749		9.739824	0.613314	-0.661095	0.002381	0.000177	-0.004963	-0.759277	-0.239502	0.576904	-0.145191	-0.722647	0.103998	-0.667746
23750		9.736505	0.540055	-0.687943	0.008866	-0.001468	-0.007414	-0.762939	-0.237549	0.579834	-0.145136	-0.722631	0.103952	-0.667783
23751		9.732883	0.608508	-0.671035	0.006355	-0.002607	-0.008013	-0.768066	-0.241211	0.580322	-0.145052	-0.722625	0.103906	-0.667814
23752		9.719339	0.594270	-0.690247	0.004929	-0.005303	-0.006844	-0.763184	-0.248535	0.588623	-0.145005	-0.722615	0.103891	-0.667838
23753		9.735049	0.552659	-0.676190	0.006722	-0.008724	-0.008263	-0.751953	-0.237793	0.580322	-0.145016	-0.722719	0.103832	-0.667733
23754		9.751478	0.601192	-0.668306	0.007746	-0.003564	-0.005379	-0.768311	-0.243408	0.575195	-0.144932	-0.722774	0.103807	-0.667695
23755		9.755631	0.582364	-0.728075	-0.000416	-0.001656	-0.005065	-0.756104	-0.245605	0.583496	-0.144987	-0.722680	0.103873	-0.667775
23756		9.731237	0.579656	-0.696241	-0.003885	0.001263	-0.004480	-0.760010	-0.239258	0.578613	-0.145088	-0.722672	0.103945	-0.667750
23757		9.720554	0.575789	-0.663047	-0.001496	-0.001638	-0.004222	-0.761230	-0.240967	0.573730	-0.145088	-0.722643	0.104010	-0.667771
23758		9.722323	0.561922	-0.693750	0.007299	-0.000908	-0.004051	-0.764648	-0.236816	0.580566	-0.145056	-0.722583	0.104023	-0.667841
23759		9.833838	0.620029	-0.720940	0.004748	0.004571	-0.002170	-0.761230	-0.243652	0.575928	-0.144933	-0.722506	0.104027	-0.667950
23760		9.729990	0.482890	-0.689469	-0.010109	0.011658	-0.001295	-0.771484	-0.244629	0.578857	-0.145080	-0.722324	0.104186	-0.668091
23761		9.706040	0.597619	-0.705815	-0.002198	0.012717	-0.004915	-0.757080	-0.244629	0.580811	-0.145152	-0.722128	0.104227	-0.668280
23762		9.715279	0.591183	-0.661662	-0.008457	0.004293	-0.004415	-0.762695	-0.236816	0.582764	-0.145294	-0.722075	0.104344	-0.668289
23763		9.743201	0.519258	-0.648731	0.002094	0.000257	-0.005772	-0.765137	-0.240234	0.574707	-0.145210	-0.722069	0.104337	-0.668314
23764		9.747043	0.517958	-0.691560	0.010133	-0.004149	-0.009033	-0.755371	-0.244385	0.574463	-0.145159	-0.722052	0.104277	-0.668353
23765		9.759595	0.526831	-0.676102	0.007882	-0.003728	-0.012794	-0.762939	-0.249023	0.581055	-0.145248	-0.722072	0.104223	-0.668320
23766		9.731551	0.548968	-0.663426	0.006416	-0.007003	-0.013042	-0.765137	-0.238525	0.580322	-0.145354	-0.722125	0.104168	-0.668249
23767		9.737828	0.570443	-0.718060	0.012661	-0.008753	-0.013580	-0.768555	-0.241211	0.580811	-0.145257	-0.722194	0.104032	-0.668216
23768		9.743835	0.598568	-0.693475	0.004122	-0.000734	-0.013020	-0.770508	-0.243164	0.577393	-0.145268	-0.722166	0.103961	-0.668256
23769		9.743283	0.618365	-0.676651	0.011365	0.002004	-0.010733	-0.762207	-0.242676	0.581543	-0.145235	-0.722093	0.103859	-0.668357
23770		9.720800	0.601333	-0.674348	0.009654	0.005809	-0.005175	-0.761963	-0.247070	0.584717	-0.145175	-0.722044	0.103809	-0.668432
23771		9.742233	0.521256	-0.670412	0.007032	-0.000147	-0.004802	-0.767090	-0.242188	0.581055	-0.145173	-0.722059	0.103798	-0.668418
23772		9.750099	0.506532	-0.693895	0.009560	-0.003985	-0.010652	-0.762695	-0.248047	0.567383	-0.145131	-0.722074	0.103715	-0.668423
23773		9.749058	0.543444	-0.661712	0.006702	-0.006304	-0.013532	-0.761719	-0.232666	0.577637	-0.145286	-0.722037	0.103692	-0.668433
23774		9.744699	0.560026	-0.682928	0.008031	-0.007740	-0.013677	-0.765869	-0.234863	0.579834	-0.145180	-0.722092	0.103590	-0.668412
23775		9.737005	0.626379	-0.702625	0.004153	0.001384	-0.014214	-0.758057	-0.239746	0.578613	-0.145135	-0.722058	0.103496	-0.668473
23776		9.743168	0.547054	-0.687334	0.004906	-0.003653	-0.010811	-0.764648	-0.239990	0.578857	-0.145142	-0.722087	0.103462	-0.668446
23777		9.749646	0.557441	-0.678795	0.013528	0.000450	-0.009810	-0.763916	-0.235352	0.579834	-0.145050	-0.722069	0.103351	-0.668502
23778		9.737520	0.616166	-0.657314	0.007169	-0.001851	-0.009607	-0.755615	-0.242188	0.578125	-0.144950	-0.722071	0.103284	-0.668533
23779		9.717708	0.550330	-0.720447	0.011237	-0.004234	-0.008511	-0.765869	-0.239014	0.580566	-0.144923	-0.722118	0.103233	-0.668495
23780		9.735862	0.547472	-0.698993	0.003623	-0.002407	-0.007941	-0.764648	-0.248047	0.571777	-0.144883	-0.722109	0.103220	-0.668516
23781		9.804963	0.580944	-0.671801	0.005754	0.007071	-0.009664	-0.760742	-0.236816	0.578857	-0.145010	-0.721974	0.103212	-0.668636
23782		9.741388	0.503633	-0.647774	0.004085	0.005793	-0.009190	-0.762207	-0.244141	0.580566	-0.144979	-0.721913	0.103173	-0.668714
23783		9.711315	0.587246	-0.707907	0.007975	-0.000342	-0.012510	-0.765625	-0.242676	0.572510	-0.145016	-0.721917	0.103101	-0.668713
23784		9.699405	0.566424	-0.678959	0.003608	-0.007968	-0.015797	-0.761963	-0.239258	0.581787	-0.145114	-0.721919	0.103062	-0.668695
23785		9.745859	0.582772	-0.652463	0.004214	-0.006000	-0.015372	-0.765869	-0.248779	0.574219	-0.145132	-0.721978	0.102988	-0.668639
23786		9.765782	0.513327	-0.697329	0.004483	0.004105	-0.014544	-0.760010	-0.245117	0.575195	-0.145293	-0.721884	0.102946	-0.668711
23787		9.767204	0.545672	-0.691593	0.008051	0.004573	-0.014848	-0.758545	-0.237793	0.584717	-0.145389	-0.721827	0.102865	-0.668765
23788		9.733059	0.596893	-0.666044	0.004893	0.001647	-0.018590	-0.769531	-0.239502	0.578613	-0.145413	-0.721860	0.102738	-0.668744
23789		9.719510	0.558390	-0.702763	0.004224	-0.003782	-0.017928	-0.761230	-0.240479	0.588379	-0.145441	-0.721856	0.102635	-0.668758
23790		9.745692	0.595098	-0.666836	0.004357	0.002379	-0.018794	-0.772461	-0.235840	0.580811	-0.145482	-0.721890	0.102506	-0.668732
23791		9.727614	0.613636	-0.687148	0.011234	0.002529	-0.017543	-0.761963	-0.242188	0.574463	-0.145388	-0.721849	0.102319	-0.668825
23792		9.734946	0.617944	-0.693712	0.009197	-0.005027	-0.014287	-0.770508	-0.241943	0.582275	-0.145410	-0.721865	0.102241	-0.668815
23793		9.726074	0.627753	-0.673796	0.004879	-0.004983	-0.010913	-0.766602	-0.243652	0.580322	-0.145383	-0.721880	0.102198	-0.668811
23794		9.740293	0.548995	-0.664992	0.006817	-0.002234	-0.013191	-0.760254	-0.236328	0.575684	-0.145401	-0.721881	0.102129	-0.668816
23795		9.743570	0.592493	-0.671827	0.005692	0.006513	-0.011086	-0.768799	-0.243408	0.589844	-0.145371	-0.721806	0.102070	-0.668913
23796		9.734403	0.565834	-0.669845	0.006852	-0.000884	-0.013081	-0.755615	-0.248779	0.580566	-0.145343	-0.721843	0.101972	-0.668894
23797		9.744168	0.590888	-0.687598	0.006957	-0.008367	-0.012871	-0.759277	-0.242676	0.579834	-0.145438	-0.721937	0.101945	-0.668777
23798		9.742792	0.627944	-0.656339	0.006165	-0.008430	-0.011217	-0.762939	-0.240967	0.586670	-0.145447	-0.722011	0.101920	-0.668699
23799		9.730352	0.606661	-0.690921	0.010719	-0.002018	-0.009962	-0.760254	-0.244385	0.583984	-0.145358	-0.722061	0.101833	-0.668677
23800		9.721654	0.588577	-0.688702	-0.001011	-0.003628	-0.005480	-0.761230	-0.236328	0.583496	-0.145392	-0.722091	0.101906	-0.668626
23801		9.724275	0.548398	-0.674542	0.006609	-0.000997	-0.011169	-0.762451	-0.245361	0.581543	-0.145317	-0.722116	0.101840	-0.668625
23802		9.756255	0.518898	-0.669553	0.010958	-0.001897	-0.011875	-0.761475	-0.241699	0.579102	-0.145313	-0.722138	0.101759	-0.668615
23803		9.782512	0.600779	-0.676216	0.014715	-0.003320	-0.014255	-0.762207	-0.238037	0.580566	-0.145265	-0.722174	0.101627	-0.668607
23804		9.732151	0.577036	-0.679484	0.006847	-0.000877	-0.013082	-0.764648	-0.241699	0.582275	-0.145234	-0.722179	0.101554	-0.668619
23805		9.724431	0.552877	-0.692088	0.008157	-0.002209	-0.014585	-0.764404	-0.245117	0.576416	-0.145230	-0.722198	0.101463	-0.668613
23806		9.706388	0.660391	-0.657342	0.009788	-0.002268	-0.015169	-0.759766	-0.247803	0.578369	-0.145274	-0.722190	0.101375	-0.668626
23807		9.725757	0.598239	-0.686968	0.012873	0.000192	-0.014210	-0.764648	-0.247559	0.586426	-0.145319	-0.722191	0.101272	-0.668630
23808		9.750321	0.541904	-0.693675	0.004126	-0.000037	-0.012960	-0.769043	-0.241943	0.577393	-0.145389	-0.722202	0.101233	-0.668609
23809		9.757579	0.572720	-0.681692	0.003246	-0.000489	-0.015444	-0.758057	-0.239502	0.585693	-0.145443	-0.722158	0.101178	-0.668653
23810		9.743347	0.630837	-0.646703	0.003261	0.000186	-0.015391	-0.765625	-0.246094	0.574463	-0.145474	-0.722191	0.101116	-0.668620
23811		9.715960	0.582255	-0.686350	0.010623	-0.003823	-0.012844	-0.766357	-0.245361	0.578857	-0.145495	-0.722181	0.101050	-0.668636
23812		9.702864	0.605508	-0.685313	0.008187	-0.000850	-0.014475	-0.764160	-0.240479	0.588135	-0.145532	-0.722164	0.100973	-0.668658
23813		9.724808	0.627871	-0.687224	0.005756	-0.000089	-0.013544	-0.757324	-0.243408	0.577393	-0.145510	-0.722192	0.100900	-0.668644
23814		9.737707	0.647206	-0.669590	-0.000827	-0.002554	-0.011419	-0.760742	-0.239258	0.583496	-0.145608	-0.722193	0.100940	-0.668615
23815		9.742098	0.583101	-0.687307	0.002167	-0.004131	-0.010782	-0.762207	-0.241455	0.581543	-0.145600	-0.722233	0.100938	-0.668574
23816		9.736185	0.596612	-0.693976	0.004433	-0.001639	-0.009533	-0.763184	-0.239014	0.577637	-0.145588	-0.722239	0.100932	-0.668572
23817		9.735427	0.615872	-0.677549	0.003950	0.000337	-0.008270	-0.759277	-0.248047	0.580078	-0.145557	-0.722203	0.100938	-0.668616
23818		9.731734	0.567594	-0.672178	0.007413	-0.003889	-0.008950	-0.756836	-0.245850	0.580811	-0.145591	-0.722233	0.100939	-0.668577
23819		9.730672	0.550908	-0.676454	0.009491	-0.005054	-0.013467	-0.761475	-0.245605	0.578613	-0.145624	-0.722294	0.100881	-0.668512
23820		9.732480	0.602141	-0.669838	0.010100	-0.002409	-0.012995	-0.760742	-0.246338	0.590576	-0.145642	-0.722306	0.100816	-0.668505
23821		9.742671	0.610031	-0.704366	0.012197	-0.006553	-0.013640	-0.765869	-0.248779	0.581787	-0.145618	-0.722417	0.100720	-0.668404
23822		9.745439	0.634057	-0.652859	0.008494	-0.002446	-0.011049	-0.766846	-0.254883	0.579590	-0.145644	-0.722422	0.100683	-0.668399
23823		9.740768	0.613188	-0.692650	0.005247	-0.001663	-0.009825	-0.761719	-0.243408	0.570557	-0.145751	-0.722397	0.100697	-0.668400
23824		9.746162	0.568082	-0.706857	0.010704	-0.001201	-0.011269	-0.761230	-0.244629	0.584229	-0.145744	-0.722358	0.100646	-0.668452
23825		9.754107	0.617023	-0.692630	0.006874	-0.004599	-0.007898	-0.760010	-0.240723	0.576904	-0.145722	-0.722403	0.100654	-0.668407
23826		9.746781	0.627691	-0.685491	0.001803	0.001022	-0.006530	-0.762695	-0.238037	0.583008	-0.145724	-0.722359	0.100706	-0.668446
23827		9.708879	0.562775	-0.692721	0.004208	-0.001078	-0.007566	-0.764893	-0.242920	0.586182	-0.145663	-0.722361	0.100717	-0.668456
23828		9.724438	0.612202	-0.683959	0.011586	0.000702	-0.010042	-0.759521	-0.245361	0.575928	-0.145593	-0.722371	0.100646	-0.668471
23829		9.730457	0.613035	-0.676288	0.007510	0.002278	-0.009835	-0.765625	-0.242920	0.577637	-0.145624	-0.722328	0.100634	-0.668513
23830		9.750362	0.550037	-0.704757	0.005012	0.002548	-0.011680	-0.760986	-0.243408	0.583008	-0.145648	-0.722270	0.100610	-0.668574
23831		9.749268	0.597037	-0.669735	0.000015	0.000203	-0.012858	-0.764648	-0.240723	0.582520	-0.145730	-0.722265	0.100624	-0.668559
23832		9.747264	0.588456	-0.657620	0.000015	0.000204	-0.012857	-0.765381	-0.244141	0.572510	-0.145776	-0.722247	0.100628	-0.668568
23833		9.725567	0.673831	-0.675096	0.006431	0.002287	-0.008991	-0.758057	-0.237549	0.575684	-0.145786	-0.722169	0.100627	-0.668650
23834		9.704727	0.622410	-0.706432	0.002526	-0.000832	-0.009703	-0.760986	-0.243896	0.576904	-0.145783	-0.722152	0.100648	-0.668666
23835		9.728793	0.609207	-0.678291	0.008600	0.000074	-0.008113	-0.764160	-0.251221	0.579834	-0.145763	-0.722131	0.100643	-0.668694
23836		9.744265	0.658271	-0.669645	0.009718	-0.000791	-0.006286	-0.761719	-0.246338	0.578125	-0.145772	-0.722118	0.100659	-0.668703
23837		9.732541	0.589323	-0.660923	0.009994	-0.001536	-0.005528	-0.764648	-0.247070	0.585693	-0.145736	-0.722113	0.100674	-0.668714
23838		9.740385	0.600824	-0.666011	0.012189	-0.000961	-0.005802	-0.766113	-0.247314	0.582275	-0.145668	-0.722132	0.100658	-0.668711
23839		9.730569	0.616433	-0.630399	0.000397	-0.003806	-0.004138	-0.759277	-0.246338	0.574951	-0.145695	-0.722131	0.100764	-0.668690
23840		9.746551	0.575072	-0.678889	0.007355	-0.008676	-0.007946	-0.762451	-0.241943	0.575928	-0.145708	-0.722177	0.100800	-0.668632
23841		9.746328	0.612985	-0.661916	0.009013	-0.011703	-0.004655	-0.764404	-0.238770	0.584229	-0.145623	-0.722242	0.100841	-0.668574
23842		9.738466	0.577035	-0.677855	0.010956	-0.007594	-0.006842	-0.763428	-0.243408	0.583496	-0.145497	-0.722310	0.100821	-0.668531
23843		9.741512	0.628665	-0.685546	0.008573	-0.004151	-0.005704	-0.758301	-0.236816	0.583740	-0.145435	-0.722340	0.100842	-0.668509
23844		9.733736	0.592574	-0.700346	0.007195	-0.006191	-0.004463	-0.763428	-0.244873	0.580078	-0.145328	-0.722402	0.100879	-0.668460
23845		9.760677	0.582440	-0.700543	0.005865	-0.004098	-0.004274	-0.769287	-0.246826	0.574951	-0.145301	-0.722408	0.100942	-0.668449
23846		9.713974	0.642612	-0.690325	0.002630	-0.002651	-0.002998	-0.759033	-0.240723	0.580811	-0.145307	-0.722355	0.101043	-0.668491
23847		9.739169	0.583816	-0.697531	0.006735	-0.004310	-0.001844	-0.767090	-0.240479	0.582520	-0.145226	-0.722380	0.101118	-0.668470
23848		9.770903	0.569906	-0.676440	-0.002062	-0.004405	-0.003308	-0.761475	-0.235596	0.586670	-0.145213	-0.722374	0.101240	-0.668460
23849		9.701020	0.509310	-0.707814	0.000628	-0.002249	-0.007307	-0.757568	-0.242676	0.577637	-0.145175	-0.722397	0.101293	-0.668436
23850		9.705430	0.564290	-0.728177	0.004291	-0.002598	-0.015080	-0.765625	-0.241455	0.577393	-0.145259	-0.722409	0.101279	-0.668407
23851		9.748948	0.614373	-0.655007	-0.009006	-0.009907	-0.016454	-0.758789	-0.239258	0.580566	-0.145433	-0.722435	0.101362	-0.668328
23852		9.655697	0.508559	-0.691618	-0.005917	-0.019426	-0.018349	-0.761963	-0.239258	0.586914	-0.145571	-0.722583	0.101419	-0.668129
23853		9.643495	0.306577	-0.688629	0.001370	-0.034798	-0.036945	-0.759766	-0.239746	0.577881	-0.145758	-0.722912	0.101266	-0.667756
23854		10.019584	0.335321	-0.633567	-0.000305	-0.020890	-0.060484	-0.762695	-0.236328	0.587646	-0.146195	-0.723114	0.100901	-0.667497
23855		9.790347	0.728919	-0.672019	-0.013574	0.000502	-0.055798	-0.760986	-0.245850	0.578125	-0.146674	-0.723138	0.100626	-0.667407
23856		9.649858	1.088540	-0.788222	0.000533	-0.005842	-0.033327	-0.753662	-0.248535	0.580078	-0.146927	-0.723175	0.100484	-0.667333
23857		9.667750	0.938724	-0.691800	-0.024502	-0.008160	-0.000622	-0.760498	-0.249023	0.576660	-0.147162	-0.723172	0.100861	-0.667227
23858		9.755482	0.634064	-0.667324	0.004044	-0.005135	0.012382	-0.768066	-0.247070	0.576416	-0.147025	-0.723146	0.101105	-0.667249
23859		9.722837	0.690195	-0.732665	0.030855	-0.001009	0.020580	-0.761475	-0.247559	0.579590	-0.146550	-0.723103	0.101177	-0.667389
23860		9.743379	0.616611	-0.684987	0.012966	0.001507	0.027207	-0.759033	-0.240234	0.579102	-0.146209	-0.723030	0.101466	-0.667500
23861		9.763804	0.395610	-0.638418	0.003370	-0.002023	0.017021	-0.765137	-0.245117	0.583740	-0.145985	-0.722989	0.101731	-0.667552
23862		9.731587	0.354041	-0.760618	0.022630	-0.003059	-0.002393	-0.767090	-0.245605	0.576904	-0.145772	-0.723017	0.101669	-0.667578
23863		9.744320	0.621773	-0.761574	0.015716	0.003914	-0.009918	-0.763916	-0.247314	0.580078	-0.145709	-0.722950	0.101594	-0.667676
23864		9.735143	0.693792	-0.702837	0.004231	-0.002592	-0.004950	-0.749268	-0.240723	0.582031	-0.145719	-0.722932	0.101681	-0.667680
23865		9.714058	0.556208	-0.698841	0.009402	-0.007022	-0.003489	-0.761475	-0.244141	0.580322	-0.145640	-0.723009	0.101741	-0.667604
23866		9.758610	0.513620	-0.681850	0.011181	-0.008105	-0.008815	-0.755859	-0.246094	0.576904	-0.145592	-0.723063	0.101738	-0.667557
23867		9.777553	0.559844	-0.715632	0.013013	0.008187	-0.010904	-0.763672	-0.246094	0.584229	-0.145604	-0.722987	0.101692	-0.667644
23868		9.742561	0.673907	-0.728302	0.009869	0.011454	-0.006750	-0.764404	-0.240967	0.580566	-0.145582	-0.722881	0.101686	-0.667764
23869		9.697247	0.699439	-0.748079	0.004162	0.007385	-0.002274	-0.766846	-0.244873	0.580811	-0.145530	-0.722780	0.101758	-0.667874
23870		9.788625	0.511746	-0.702310	-0.011099	0.003025	0.003767	-0.766113	-0.241699	0.577148	-0.145588	-0.722674	0.102031	-0.667934
23871		9.701507	0.490491	-0.671746	0.005352	0.000103	-0.005590	-0.767334	-0.243408	0.576904	-0.145552	-0.722624	0.102082	-0.667988
23872		9.723170	0.540720	-0.732882	0.011718	-0.001716	-0.013539	-0.758057	-0.254639	0.586182	-0.145535	-0.722608	0.102017	-0.668020
23873		9.736056	0.607067	-0.695165	0.000383	-0.005718	-0.015776	-0.765381	-0.237061	0.578613	-0.145743	-0.722664	0.102086	-0.667903
23874		9.729789	0.547197	-0.664856	0.006867	-0.007909	-0.018280	-0.767090	-0.244629	0.579834	-0.145747	-0.722710	0.102006	-0.667865
23875		9.744794	0.480382	-0.718081	0.005922	-0.008181	-0.023481	-0.757568	-0.244873	0.581543	-0.145861	-0.722760	0.101914	-0.667799
23876		9.737341	0.505205	-0.711484	0.009591	-0.011389	-0.028736	-0.761230	-0.235352	0.576416	-0.146003	-0.722882	0.101765	-0.667659
23877		9.724012	0.513924	-0.653407	0.019413	-0.019397	-0.037508	-0.759033	-0.245850	0.586670	-0.146032	-0.723071	0.101429	-0.667499
23878		9.693861	0.467271	-0.671772	0.039172	-0.036445	-0.049655	-0.759277	-0.246338	0.580566	-0.146041	-0.723493	0.100886	-0.667122
23879		9.690833	0.376934	-0.712445	0.057614	-0.052032	-0.071793	-0.766846	-0.242432	0.580322	-0.146057	-0.724077	0.100024	-0.666615
23880		9.568451	0.228164	-0.692079	0.044834	-0.056889	-0.109892	-0.748779	-0.245850	0.589111	-0.146443	-0.724697	0.098904	-0.666023
23881		9.552530	-0.162366	-0.712281	0.041899	-0.057953	-0.170126	-0.760498	-0.249512	0.584229	-0.147406	-0.725464	0.097298	-0.665212
23882		9.722174	-0.065965	-0.666239	0.087424	-0.038412	-0.244094	-0.755615	-0.250488	0.589844	-0.148578	-0.726178	0.094600	-0.664561
23883		9.667256	0.050533	-0.672755	0.032893	-0.033601	-0.315093	-0.753906	-0.255615	0.597656	-0.150821	-0.726850	0.091698	-0.663727
23884		9.643045	-0.223903	-0.713777	0.043788	-0.040041	-0.401533	-0.748535	-0.263428	0.588379	-0.153661	-0.727706	0.087928	-0.662647
23885		9.633546	-0.795230	-0.856955	0.076295	-0.053989	-0.523627	-0.741211	-0.268311	0.583496	-0.157224	-0.728818	0.082827	-0.661245
23886		9.844332	-0.714248	-0.609535	0.060921	-0.056818	-0.663026	-0.738281	-0.285400	0.592529	-0.162056	-0.730015	0.076596	-0.659506
23887		9.619748	-0.692829	-0.222032	-0.050154	-0.097129	-0.854112	-0.738281	-0.306152	0.590576	-0.169456	-0.731458	0.069638	-0.656814
23888		9.559739	-1.254992	0.381456	-0.034787	-0.160417	-1.083885	-0.721436	-0.311768	0.594727	-0.178542	-0.733513	0.060607	-0.653000
23889		9.209001	-0.906899	-0.157108	0.141019	-0.141837	-1.297704	-0.716064	-0.328369	0.597412	-0.187631	-0.735836	0.048079	-0.648867
23890		8.376714	1.350028	-1.196714	0.365393	-0.176070	-1.461023	-0.707520	-0.361328	0.603271	-0.195845	-0.738816	0.032282	-0.644014
23891		8.875582	0.433275	-0.672931	-0.031071	-0.219289	-1.661755	-0.689453	-0.386230	0.607178	-0.209328	-0.740944	0.017989	-0.637856
23892		8.721577	-0.988168	-1.068739	-0.091685	-0.246492	-1.966518	-0.681885	-0.422607	0.607910	-0.225648	-0.742821	0.001413	-0.630315
23893		7.005955	4.582703	-1.724737	-0.016094	-0.321423	-2.014861	-0.645996	-0.443604	0.619385	-0.241470	-0.744994	-0.015938	-0.621628
23894		7.016960	10.418769	-2.921031	-0.233066	-0.170881	-1.658032	-0.636719	-0.465576	0.609131	-0.256296	-0.745074	-0.028850	-0.615098
23895		12.026643	1.685508	-2.843915	-0.235552	0.072489	-1.489466	-0.615479	-0.487061	0.612305	-0.269626	-0.743000	-0.040947	-0.611209
23896		9.329620	1.057893	-2.082590	0.173585	0.060828	-1.739198	-0.607422	-0.521484	0.618408	-0.281030	-0.742033	-0.058461	-0.605798
23897		1.838539	13.659912	-0.170588	0.367229	-0.079684	-1.456519	-0.586670	-0.537109	0.623047	-0.288565	-0.742737	-0.074244	-0.599634
23898		8.387683	10.721515	-1.005615	0.096458	-0.013882	-0.636630	-0.577881	-0.547852	0.619385	-0.292374	-0.742572	-0.080673	-0.597156
23899		12.130224	7.637958	-1.319384	0.308666	0.006354	-0.428348	-0.576416	-0.543701	0.629150	-0.292634	-0.743199	-0.086843	-0.595382
23900		5.412081	14.358566	-0.969042	0.089388	-0.046936	0.137313	-0.569824	-0.535889	0.627441	-0.290760	-0.744014	-0.085946	-0.595412
23901		11.371493	14.862732	-2.512893	0.640874	-0.099400	1.133024	-0.585693	-0.516113	0.638428	-0.276364	-0.748178	-0.079755	-0.597907
23902		13.804020	17.745077	-5.337169	0.828863	0.073636	2.138189	-0.606201	-0.469238	0.638916	-0.252375	-0.752283	-0.066168	-0.604979
23903		22.972266	11.151718	-1.822677	0.081083	0.167323	3.025188	-0.641602	-0.434082	0.639404	-0.228334	-0.753198	-0.038881	-0.615666
23904		20.852317	-1.411893	1.858330	-1.031428	0.101382	3.085219	-0.677734	-0.395752	0.613281	-0.213983	-0.750316	-0.002225	-0.625486
23905		10.582132	-2.541017	-1.978704	-2.071728	0.432245	3.366011	-0.710693	-0.384277	0.585449	-0.206734	-0.740529	0.044365	-0.637894
23906		4.642285	-5.009937	-3.034972	-1.355280	0.741753	3.021613	-0.748291	-0.336182	0.558838	-0.195425	-0.728730	0.081303	-0.651269
23907		3.254171	-2.192407	0.721766	0.047081	0.329947	1.996020	-0.777832	-0.298340	0.549561	-0.178977	-0.723858	0.098391	-0.659026
23908		-0.141967	1.729649	-1.550170	-0.433125	-0.072243	0.534783	-0.775879	-0.297852	0.544678	-0.178365	-0.722755	0.107107	-0.659044
23909		0.350683	-1.952096	0.438680	-0.334160	-0.074461	0.106602	-0.781250	-0.301758	0.541504	-0.180387	-0.722429	0.111143	-0.658182
23910		0.705538	-1.029102	0.203790	0.107951	-0.091905	-0.293417	-0.768799	-0.299805	0.540039	-0.181682	-0.723786	0.107978	-0.656861
23911		0.763547	-0.214064	0.366753	0.463651	0.010586	-0.455585	-0.774902	-0.309570	0.541260	-0.181216	-0.725300	0.100190	-0.656554
23912		-0.043338	-0.013897	0.114003	0.327118	0.122750	-0.462416	-0.765869	-0.308594	0.545166	-0.182184	-0.725550	0.093211	-0.657038
23913		0.266294	-0.766852	-0.026447	0.389727	0.109943	-0.575238	-0.768066	-0.313477	0.541260	-0.183477	-0.726135	0.084710	-0.657182
23914		0.775489	-0.984698	0.419053	0.212148	0.045174	-0.798053	-0.763672	-0.332275	0.562744	-0.188130	-0.727017	0.075794	-0.655979
23915		0.895312	-1.362239	-0.093400	0.502771	-0.126230	-1.155387	-0.753174	-0.340088	0.561523	-0.192876	-0.730201	0.061641	-0.652538
23916		4.965365	8.886805	-2.301855	1.103231	-0.640328	-2.853713	-0.711426	-0.375244	0.598877	-0.205404	-0.739693	0.028272	-0.640206
23917		11.051917	-8.660715	1.316110	1.304439	-0.636191	-3.105997	-0.674316	-0.406006	0.619141	-0.217699	-0.748529	-0.009201	-0.626281
23918		23.558224	7.964127	-5.800687	1.774701	-0.196569	-2.294311	-0.640137	-0.416016	0.645996	-0.218821	-0.754120	-0.043907	-0.617650
23919		23.457013	15.381041	-7.610838	0.002742	-0.214129	-1.287794	-0.633545	-0.427979	0.655762	-0.228763	-0.754973	-0.055313	-0.612066
23920		23.255856	22.623930	-0.826089	-0.141354	0.002749	-0.214396	-0.628906	-0.437500	0.650391	-0.231606	-0.754385	-0.056193	-0.611641
23921		16.735788	27.259851	-5.181853	-0.934762	0.112499	1.608511	-0.653320	-0.431885	0.636475	-0.227909	-0.751720	-0.034133	-0.617908
23922		20.441579	11.352801	-3.937214	-1.596328	0.162932	2.957912	-0.673828	-0.411133	0.616211	-0.219721	-0.746474	0.005503	-0.628068
23923		15.199964	0.067194	-3.007649	-2.689038	0.189105	3.672774	-0.716309	-0.383301	0.578369	-0.215571	-0.736116	0.060248	-0.638774
23924		6.511063	-9.076791	-6.151220	-2.895322	0.450117	3.826685	-0.758057	-0.349854	0.529785	-0.211539	-0.720473	0.117191	-0.649950
23925		3.894905	-7.353256	0.297922	-0.562902	0.114699	2.063793	-0.776855	-0.323486	0.526123	-0.199924	-0.714693	0.140129	-0.655444
23926		0.891872	3.369604	-1.106777	-0.883031	-0.524643	-0.208217	-0.770508	-0.331055	0.521973	-0.208603	-0.717018	0.146976	-0.648666
23927		1.462774	-2.754905	1.406202	-0.826191	-0.289347	-0.805234	-0.765869	-0.361572	0.528076	-0.221969	-0.718537	0.147354	-0.642434
23928		0.600176	-0.994229	2.352772	0.278081	-0.099607	-0.881703	-0.756104	-0.378418	0.526855	-0.226334	-0.721628	0.137614	-0.639600
23929		0.714322	-1.495709	1.753945	0.917200	0.003369	-1.001025	-0.752197	-0.381104	0.537354	-0.226038	-0.725756	0.121381	-0.638319
23930		0.513478	0.113145	0.627336	0.690638	-0.002475	-1.149216	-0.729736	-0.393555	0.544922	-0.228881	-0.729320	0.105577	-0.636049
23931		0.602730	0.605988	0.768818	0.215892	-0.008189	-1.297507	-0.720459	-0.406738	0.541992	-0.237161	-0.731578	0.092161	-0.632499
23932		0.537763	1.138127	0.490187	-0.254741	-0.092819	-1.365733	-0.690674	-0.435303	0.548584	-0.250106	-0.732979	0.082064	-0.627259
23933		0.756642	3.640464	1.571712	-0.868131	-0.052034	-1.514438	-0.686279	-0.473877	0.548340	-0.269772	-0.732020	0.075207	-0.621058
23934		8.016215	-1.841511	-2.262484	-0.160088	-0.480683	-2.621459	-0.640869	-0.518066	0.557861	-0.290903	-0.737237	0.054062	-0.607400
23935		10.453489	-3.283019	-5.009804	0.756054	-0.311171	-2.831592	-0.600586	-0.547607	0.576416	-0.304929	-0.743737	0.023335	-0.594415
23936		22.561006	6.145442	-9.921896	0.935947	-0.476451	-1.824978	-0.564941	-0.562744	0.603516	-0.309414	-0.751107	0.001239	-0.583181
23937		24.146762	15.799017	-4.506464	0.332708	-0.033376	-1.300956	-0.536377	-0.570801	0.608154	-0.315621	-0.752554	-0.013223	-0.577816
23938		17.655756	17.984307	-0.601626	1.283081	0.451012	-0.379645	-0.541504	-0.551758	0.621826	-0.306075	-0.754179	-0.027818	-0.580309
23939		14.217111	25.109224	-2.477781	0.699682	0.275016	1.285918	-0.564941	-0.530029	0.634277	-0.289888	-0.755167	-0.021854	-0.587546
23940		24.043853	14.850450	2.717169	0.533066	0.231119	2.557562	-0.597656	-0.482422	0.628418	-0.265746	-0.755675	-0.002586	-0.598605
23941		22.507301	-1.169697	2.068009	-0.712008	0.299452	3.010938	-0.645996	-0.444336	0.601562	-0.249627	-0.750573	0.030068	-0.611083
23942		9.992406	-11.335134	-3.012406	-0.853970	0.624629	3.121745	-0.694092	-0.418457	0.586914	-0.233718	-0.741285	0.063934	-0.625928
23943		4.332510	-5.644685	-2.077450	-0.212302	0.991229	2.344929	-0.728760	-0.375977	0.543945	-0.217980	-0.730608	0.084564	-0.641518
23944		0.930666	-0.826236	0.251484	0.839332	0.507968	1.027865	-0.750000	-0.345947	0.549561	-0.202625	-0.727528	0.086190	-0.649783
23945		-1.282624	4.503378	-1.328524	-0.073745	0.053367	0.480359	-0.752441	-0.339111	0.543945	-0.199467	-0.726301	0.091334	-0.651428
23946		-0.225006	1.260137	-1.300160	-0.322840	0.036773	0.860420	-0.756592	-0.330566	0.534912	-0.195448	-0.724092	0.101963	-0.653525
23947		0.029574	0.913861	-0.356317	-0.327409	0.036160	1.040165	-0.770996	-0.316162	0.531982	-0.189985	-0.721527	0.114237	-0.655938
23948		0.502455	-0.154027	0.222313	-0.710306	0.065884	1.001960	-0.781250	-0.306641	0.531494	-0.188271	-0.717711	0.129180	-0.657843
23949		0.845102	-1.432866	1.273476	-0.331959	0.074602	0.750303	-0.789795	-0.298096	0.535400	-0.185189	-0.715005	0.138665	-0.659731
23950		0.292265	-1.785085	1.991561	-0.193274	0.186898	0.341286	-0.796143	-0.301758	0.523193	-0.184412	-0.712360	0.143059	-0.661868
23951		1.489048	-2.214023	1.545148	1.038672	0.303667	-0.500373	-0.786865	-0.288574	0.532959	-0.179845	-0.712994	0.129516	-0.665223
23952		6.450145	15.048802	-5.768950	2.438266	-0.757896	-3.354187	-0.753906	-0.317627	0.570068	-0.184507	-0.729169	0.081079	-0.653985
23953		9.933722	3.423259	-3.128903	0.502304	-0.153218	-2.382113	-0.725342	-0.356934	0.591309	-0.199109	-0.733631	0.055674	-0.647335
23954		23.704463	-16.762264	-14.921255	-0.040385	-0.165439	-1.510317	-0.707275	-0.383301	0.604492	-0.211485	-0.735788	0.042594	-0.641931
23955		39.041248	-9.607650	6.601732	1.606987	0.488826	-2.070635	-0.685791	-0.399902	0.598389	-0.213392	-0.736833	0.009512	-0.641444
23956		7.807546	30.338784	2.621200	2.111233	-0.035266	-1.866088	-0.685303	-0.389648	0.616455	-0.208772	-0.742533	-0.024178	-0.635983
23957		-1.849990	25.925244	-4.918679	-0.509948	-0.048597	0.182505	-0.689453	-0.400879	0.609619	-0.211979	-0.741614	-0.018142	-0.636196
23958		12.593972	6.761386	-3.414522	-0.725964	0.135000	1.361920	-0.695312	-0.389893	0.609619	-0.207744	-0.738755	-0.000058	-0.641158
23959		11.630459	0.275388	-1.835535	0.206455	0.319228	1.280415	-0.701904	-0.368164	0.607666	-0.195482	-0.736618	0.009260	-0.647375
23960		8.397764	3.482031	0.147884	0.206784	0.279374	1.320935	-0.718018	-0.339111	0.604736	-0.182854	-0.734601	0.019054	-0.653118
23961		7.651208	0.360039	-0.825392	0.419873	0.230517	1.312885	-0.734619	-0.312256	0.602783	-0.168254	-0.733250	0.027133	-0.658255
23962		7.225481	-0.905535	-0.456100	0.065016	0.225701	1.052080	-0.742188	-0.288818	0.598145	-0.159027	-0.731095	0.035783	-0.662518
23963		8.233506	-4.731785	1.308589	-0.379145	0.009700	0.685606	-0.741699	-0.283691	0.588623	-0.156767	-0.729909	0.045199	-0.663788
23964		9.803921	-2.417385	1.702981	0.067266	0.034733	0.484401	-0.743164	-0.270752	0.591309	-0.152133	-0.729444	0.049087	-0.665099
23965		11.161177	-1.144173	-1.696687	0.816654	-0.082300	0.166734	-0.751953	-0.257812	0.601074	-0.143211	-0.731520	0.044076	-0.665151
23966		10.322050	3.372333	-0.707890	0.228539	-0.058530	0.136205	-0.747559	-0.253906	0.608643	-0.139932	-0.732313	0.043668	-0.665004
23967		9.855237	1.825293	1.803345	-0.183556	-0.060823	0.174317	-0.753418	-0.248535	0.603516	-0.140104	-0.732380	0.047017	-0.664665
23968		9.746098	1.018252	0.764974	-0.198268	-0.077487	0.219927	-0.744873	-0.257080	0.601318	-0.140011	-0.732510	0.050945	-0.664251
23969		9.629291	1.589009	-1.368416	-0.144206	-0.143124	0.230399	-0.749512	-0.246582	0.601074	-0.139322	-0.733262	0.054650	-0.663272
23970		9.564941	0.726009	-2.164869	-0.170406	-0.111212	0.227895	-0.749023	-0.255127	0.606689	-0.138891	-0.733689	0.058487	-0.662562
23971		9.380781	0.068056	-1.712413	0.010483	-0.101272	0.202261	-0.745850	-0.249756	0.607422	-0.137040	-0.734361	0.060589	-0.662015
23972		9.458759	0.177584	-0.533888	0.026843	-0.117832	0.251932	-0.747314	-0.230957	0.604248	-0.134611	-0.735151	0.063047	-0.661405
23973		9.808882	1.103444	-0.258931	-0.177118	-0.131829	0.215008	-0.748535	-0.239258	0.611084	-0.134322	-0.735729	0.066865	-0.660446
23974		9.851372	0.837109	-1.314595	-0.134582	-0.068574	0.143215	-0.746338	-0.238525	0.610596	-0.134304	-0.735909	0.069574	-0.659970
23975		9.453498	0.480998	-2.882604	0.085517	-0.026950	0.056830	-0.746582	-0.236084	0.609131	-0.133009	-0.736186	0.069606	-0.659919
23976		9.828958	0.032650	-2.121671	0.129079	-0.018313	0.042019	-0.736084	-0.239258	0.617188	-0.131445	-0.736475	0.069136	-0.659960
23977		10.438803	0.747035	-0.953569	0.162254	0.041848	-0.001448	-0.732910	-0.232666	0.617676	-0.129996	-0.736364	0.067906	-0.660498
23978		10.107807	1.457417	-1.392301	-0.133121	0.089421	-0.014954	-0.743164	-0.237793	0.609619	-0.131409	-0.735388	0.068907	-0.661202
23979		9.747285	0.772848	-1.179011	-0.353471	0.117648	-0.039130	-0.743164	-0.235107	0.602783	-0.135074	-0.733821	0.071465	-0.661932
23980		9.951363	0.018297	-1.568443	-0.313995	0.153352	-0.100706	-0.750977	-0.240723	0.600098	-0.138902	-0.732066	0.073056	-0.662909
23981		9.932209	1.218777	-1.222828	-0.316007	0.188382	-0.138785	-0.745605	-0.259033	0.601074	-0.143092	-0.730035	0.074257	-0.664123
23982		9.613390	1.125884	-0.408761	-0.356844	0.206235	-0.136372	-0.754395	-0.263428	0.591064	-0.147664	-0.727764	0.075801	-0.665439
23983		9.586310	0.698963	0.104866	-0.262289	0.150109	-0.147907	-0.752930	-0.260254	0.584961	-0.151410	-0.726125	0.076547	-0.666302
23984		9.882983	-0.577753	-0.753540	0.034563	0.074793	-0.244707	-0.753662	-0.264893	0.590088	-0.153179	-0.725760	0.074070	-0.666575
23985		9.863439	-0.579970	-1.275427	0.130663	0.017197	-0.403445	-0.759033	-0.271240	0.579102	-0.155344	-0.726194	0.069469	-0.666097
23986		9.679901	-0.334358	-0.249959	0.117278	-0.019625	-0.528221	-0.745605	-0.279053	0.587158	-0.158638	-0.726986	0.063938	-0.665009
23987		8.863046	2.032262	-1.239900	0.465371	-0.206683	-0.573527	-0.746338	-0.289795	0.597900	-0.158985	-0.730017	0.055473	-0.662360
23988		8.892687	4.088101	-3.326993	-0.230662	-0.473318	-0.295555	-0.738037	-0.291748	0.600098	-0.163192	-0.733627	0.055837	-0.657299
23989		8.650985	0.470683	-2.412491	-0.325498	-0.411597	0.116514	-0.729004	-0.295410	0.597656	-0.164905	-0.736212	0.060609	-0.653548
23990		8.732405	2.482588	-1.867434	0.342571	-0.359907	0.421108	-0.730469	-0.284668	0.605957	-0.158018	-0.739478	0.062635	-0.651367
23991		9.701939	5.881337	3.214998	-0.215754	0.007963	0.331041	-0.726318	-0.279297	0.612305	-0.157309	-0.738681	0.067644	-0.651942
23992		9.979271	2.623525	6.266850	-0.230175	0.147495	0.257252	-0.727783	-0.281738	0.605713	-0.157435	-0.736766	0.071759	-0.653637
23993		10.363385	3.360809	-1.853527	-0.006943	-0.167356	0.397705	-0.737305	-0.276123	0.600342	-0.154078	-0.737711	0.075951	-0.652897
23994		9.845411	1.509589	-4.066538	-0.751483	-0.106489	0.482160	-0.734619	-0.278320	0.603027	-0.156946	-0.736581	0.086882	-0.652126
23995		9.402368	-0.891476	-1.463108	-0.269243	-0.042569	0.432950	-0.733154	-0.273682	0.604736	-0.155829	-0.735872	0.093288	-0.652309
23996		9.299415	-0.348041	-0.400952	0.096286	-0.040926	0.321958	-0.740479	-0.266602	0.606934	-0.152251	-0.735971	0.095691	-0.652694
23997		10.147565	-0.331285	0.266964	0.098124	-0.059152	0.229145	-0.733154	-0.259277	0.605713	-0.149390	-0.736319	0.097269	-0.652729
23998		10.145757	0.191687	-0.863931	0.243975	-0.059503	0.147127	-0.741211	-0.266602	0.610352	-0.145853	-0.737034	0.096903	-0.652777
23999		9.576991	1.339196	-2.189124	0.047611	-0.057033	0.119508	-0.736328	-0.246582	0.618408	-0.144380	-0.737392	0.097923	-0.652548
24000		9.787391	0.170633	-2.340359	-0.022855	-0.009725	0.096893	-0.740967	-0.253662	0.602295	-0.143759	-0.737274	0.099160	-0.652632
24001		9.777632	1.383050	-1.295544	-0.038792	0.029545	0.106448	-0.740479	-0.251221	0.606689	-0.143283	-0.736779	0.100602	-0.653074
24002		9.761723	0.653494	-0.586179	0.015527	0.011639	0.135261	-0.735840	-0.245850	0.606445	-0.142043	-0.736494	0.101882	-0.653468
24003		9.650431	0.600250	-0.831386	0.100674	-0.010632	0.145350	-0.732910	-0.236572	0.616699	-0.139903	-0.736529	0.102588	-0.653780
24004		9.915865	0.085994	-1.432284	0.162065	-0.007601	0.124507	-0.737793	-0.234619	0.607910	-0.137355	-0.736678	0.102565	-0.654156
24005		9.836782	-0.094176	-1.243245	0.094421	0.023668	0.084485	-0.748535	-0.231689	0.609375	-0.135809	-0.736493	0.102700	-0.654665
24006		9.628695	-0.103496	-1.203494	0.163197	0.030557	0.023021	-0.734619	-0.233643	0.611084	-0.134139	-0.736441	0.101699	-0.655224
24007		9.715693	0.701719	-1.163370	0.074091	0.024026	-0.002687	-0.740723	-0.224365	0.618164	-0.133507	-0.736330	0.101220	-0.655552
24008		9.826094	0.693964	-1.285423	0.036502	0.028962	0.001005	-0.742188	-0.229492	0.611084	-0.133171	-0.736116	0.101038	-0.655889
24009		9.795815	0.408024	-1.282344	0.004046	0.042207	0.008736	-0.742676	-0.228027	0.610596	-0.133105	-0.735722	0.101199	-0.656319
24010		9.454865	0.347102	-0.794190	0.020774	0.051709	-0.002728	-0.740234	-0.228271	0.610107	-0.132989	-0.735293	0.101098	-0.656839
24011		9.593846	0.485982	-0.879803	0.054787	0.038871	-0.018400	-0.741211	-0.229492	0.608643	-0.132675	-0.735047	0.100598	-0.657255
24012		9.718691	0.746169	-1.337997	0.020190	0.032639	-0.020739	-0.738770	-0.229980	0.616943	-0.132695	-0.734795	0.100379	-0.657565
24013		9.779708	0.505782	-1.079247	-0.006849	0.056835	-0.008085	-0.740723	-0.231445	0.603516	-0.132888	-0.734292	0.100452	-0.658077
24014		9.633391	0.699682	-0.844535	-0.011051	0.049722	0.002383	-0.743652	-0.224365	0.611328	-0.133033	-0.733817	0.100682	-0.658543
24015		9.653309	0.303442	-0.896769	0.066016	0.041323	-0.005798	-0.747803	-0.231201	0.602295	-0.132503	-0.733557	0.100182	-0.659015
24016		9.787259	0.586624	-0.974612	0.082150	0.042263	-0.005892	-0.748047	-0.224365	0.607666	-0.131852	-0.733303	0.099580	-0.659519
24017		9.752875	0.863510	-1.007656	0.062474	0.042480	0.014103	-0.743164	-0.222168	0.608398	-0.131198	-0.732997	0.099298	-0.660032
24018		9.661909	0.754258	-0.863692	0.013655	0.021838	0.038047	-0.741455	-0.232910	0.600830	-0.130767	-0.732755	0.099669	-0.660330
24019		9.640092	0.417917	-1.019033	0.019115	0.021713	0.037814	-0.743896	-0.215332	0.590332	-0.130325	-0.732514	0.100042	-0.660629
24020		9.686158	0.306288	-0.868864	0.012533	0.021912	0.024144	-0.751465	-0.210938	0.606934	-0.130010	-0.732274	0.100280	-0.660920
24021		9.747551	0.377880	-0.935816	-0.003725	0.019814	0.008014	-0.743896	-0.216797	0.596191	-0.129957	-0.732057	0.100486	-0.661140
24022		9.766299	0.548908	-1.070643	-0.045282	0.030033	0.001205	-0.750244	-0.224365	0.597168	-0.130378	-0.731689	0.100990	-0.661387
24023		9.741592	0.464051	-0.891407	-0.104339	0.035738	0.001694	-0.750244	-0.222412	0.597656	-0.131360	-0.731173	0.102000	-0.661609
24024		9.755952	0.291585	-0.807696	-0.052161	0.048176	-0.007652	-0.759033	-0.224121	0.602051	-0.131947	-0.730653	0.102458	-0.661995
24025		9.789512	0.409898	-0.955105	-0.020302	0.048140	-0.011366	-0.757324	-0.229248	0.603516	-0.132272	-0.730191	0.102616	-0.662417
24026		9.755857	0.557892	-1.012852	-0.028783	0.050049	-0.004369	-0.746094	-0.220947	0.604492	-0.132632	-0.729691	0.102924	-0.662847
24027		9.780379	0.494709	-0.950777	-0.049147	0.043041	0.000125	-0.747314	-0.229736	0.605713	-0.133111	-0.729221	0.103430	-0.663189
24028		9.715753	0.338312	-0.926846	-0.046875	0.043265	-0.004872	-0.757568	-0.223145	0.595703	-0.133634	-0.728758	0.103902	-0.663519
24029		9.734849	0.345428	-0.774997	-0.021881	0.043875	-0.016978	-0.748535	-0.223145	0.598389	-0.134007	-0.728336	0.104019	-0.663889
24030		9.765882	0.478983	-0.776031	-0.019221	0.038533	-0.018743	-0.755127	-0.228760	0.604980	-0.134366	-0.727973	0.104115	-0.664199
24031		9.715876	0.453358	-0.843833	-0.019145	0.032365	-0.016359	-0.753418	-0.227783	0.588135	-0.134706	-0.727660	0.104255	-0.664452
24032		9.752479	0.401353	-0.769408	-0.039471	0.035788	-0.018724	-0.756104	-0.227051	0.584473	-0.135256	-0.727274	0.104533	-0.664719
24033		9.731959	0.435328	-0.751757	-0.016297	0.035253	-0.020937	-0.750488	-0.229248	0.584229	-0.135608	-0.726930	0.104591	-0.665014
24034		9.701663	0.540613	-0.588133	-0.034238	0.028191	-0.017437	-0.748291	-0.223389	0.590820	-0.136093	-0.726614	0.104855	-0.665218
24035		9.664335	0.513437	-0.644334	0.003696	0.019859	-0.020043	-0.751465	-0.230957	0.592285	-0.136223	-0.726446	0.104771	-0.665389
24036		9.697496	0.469501	-0.818087	0.000782	0.010370	-0.017209	-0.757324	-0.235352	0.594971	-0.136364	-0.726346	0.104777	-0.665468
24037		9.731575	0.530773	-0.800023	-0.017801	0.004813	-0.016625	-0.757812	-0.224854	0.587402	-0.136670	-0.726257	0.104963	-0.665474
24038		9.757905	0.474826	-0.788435	-0.012829	0.015349	-0.015088	-0.748535	-0.238037	0.584961	-0.136900	-0.726083	0.105059	-0.665601
24039		9.711847	0.568222	-0.707440	-0.031653	0.017809	-0.013489	-0.756104	-0.235596	0.593506	-0.137336	-0.725854	0.105381	-0.665710
24040		9.680701	0.393974	-0.775318	-0.006600	0.014624	-0.016979	-0.751221	-0.237793	0.591064	-0.137554	-0.725704	0.105449	-0.665817
24041		9.781656	0.597676	-0.797116	-0.007162	0.008623	-0.017585	-0.757324	-0.230469	0.589111	-0.137783	-0.725605	0.105539	-0.665864
24042		9.739129	0.494077	-0.796262	-0.023765	0.012965	-0.014862	-0.754395	-0.228516	0.584229	-0.138117	-0.725434	0.105747	-0.665948
24043		9.710519	0.409583	-0.791730	-0.013135	0.012074	-0.016088	-0.755859	-0.232422	0.587891	-0.138359	-0.725289	0.105850	-0.666039
24044		9.767876	0.551437	-0.705456	-0.014803	0.009486	-0.017007	-0.757324	-0.228516	0.581299	-0.138631	-0.725166	0.105977	-0.666097
24045		9.750786	0.425533	-0.769374	0.002794	0.003485	-0.014659	-0.755859	-0.238525	0.585449	-0.138702	-0.725114	0.105969	-0.666140
24046		9.724192	0.663275	-0.756151	-0.005570	0.006855	-0.010901	-0.752686	-0.237549	0.577637	-0.138854	-0.725016	0.106100	-0.666194
24047		9.690350	0.473110	-0.787084	-0.011547	0.005600	-0.009685	-0.749756	-0.240479	0.587646	-0.139048	-0.724912	0.106289	-0.666236
24048		9.714694	0.442093	-0.746226	-0.003526	0.003715	-0.015532	-0.753174	-0.235107	0.586670	-0.139224	-0.724858	0.106378	-0.666245
24049		9.753654	0.539170	-0.703456	-0.020134	0.000662	-0.013255	-0.756592	-0.241455	0.581299	-0.139506	-0.724796	0.106605	-0.666217
24050		9.746148	0.483799	-0.703976	-0.008390	-0.000951	-0.014009	-0.753174	-0.231445	0.594238	-0.139705	-0.724758	0.106747	-0.666194
24051		9.714138	0.519699	-0.646790	0.002541	0.000123	-0.014303	-0.758057	-0.239990	0.573730	-0.139773	-0.724752	0.106762	-0.666184
24052		9.684308	0.463294	-0.720397	0.005196	-0.010505	-0.017761	-0.760742	-0.238770	0.579346	-0.139861	-0.724813	0.106762	-0.666099
24053		9.729255	0.531770	-0.767680	0.014806	-0.010816	-0.016728	-0.750000	-0.240479	0.594971	-0.139845	-0.724897	0.106685	-0.666023
24054		9.766685	0.655609	-0.711140	0.002477	-0.010293	-0.008903	-0.751709	-0.239258	0.587646	-0.139887	-0.724970	0.106803	-0.665915
24055		9.794534	0.463086	-0.735021	0.003727	-0.011942	-0.004391	-0.759766	-0.232422	0.580811	-0.139872	-0.725043	0.106944	-0.665816
24056		9.713773	0.429260	-0.776719	0.013508	-0.016078	-0.006878	-0.757080	-0.233887	0.585449	-0.139756	-0.725159	0.106951	-0.665713
24057		9.720149	0.615890	-0.765179	0.007997	-0.016535	-0.008089	-0.761963	-0.231445	0.585693	-0.139707	-0.725277	0.107005	-0.665586
24058		9.715794	0.534264	-0.813266	-0.001236	-0.007736	-0.005067	-0.753174	-0.235840	0.582764	-0.139716	-0.725299	0.107132	-0.665540
24059		9.733752	0.521276	-0.780309	-0.004691	-0.005824	-0.001828	-0.757812	-0.238525	0.590088	-0.139754	-0.725296	0.107340	-0.665502
24060		9.737081	0.458192	-0.740899	-0.000119	-0.011144	-0.004761	-0.755371	-0.237061	0.583252	-0.139773	-0.725354	0.107500	-0.665409
24061		9.756434	0.517408	-0.819694	0.016589	-0.016940	-0.004852	-0.757568	-0.240967	0.588379	-0.139631	-0.725482	0.107525	-0.665295
24062		9.747738	0.496735	-0.805685	-0.008060	-0.012937	-0.005139	-0.750000	-0.237793	0.584961	-0.139733	-0.725538	0.107761	-0.665175
24063		9.738207	0.435981	-0.782428	0.008851	-0.015940	-0.006994	-0.751709	-0.236816	0.584473	-0.139686	-0.725653	0.107838	-0.665046
24064		9.715206	0.542124	-0.754825	0.012046	-0.016533	-0.009602	-0.754395	-0.233887	0.584961	-0.139626	-0.725780	0.107861	-0.664916
24065		9.703347	0.460397	-0.797512	0.013361	-0.015138	-0.010934	-0.756836	-0.236328	0.594482	-0.139555	-0.725899	0.107843	-0.664805
24066		9.745141	0.483471	-0.809880	0.024594	-0.015436	-0.010524	-0.751953	-0.240967	0.584229	-0.139384	-0.726048	0.107746	-0.664694
24067		9.759186	0.564191	-0.816731	0.021434	-0.008890	-0.006200	-0.753174	-0.238525	0.585449	-0.139238	-0.726119	0.107726	-0.664650
24068		9.764290	0.581451	-0.795957	0.019754	-0.009239	0.000406	-0.754150	-0.235840	0.585693	-0.139043	-0.726182	0.107769	-0.664614
24069		9.731516	0.496050	-0.831983	0.015711	-0.012577	0.001724	-0.758789	-0.230469	0.590088	-0.138860	-0.726264	0.107853	-0.664549
24070		9.706427	0.449634	-0.779484	0.012371	-0.011736	0.000250	-0.754150	-0.237549	0.600830	-0.138696	-0.726339	0.107924	-0.664490
24071		9.743002	0.444016	-0.816267	0.013607	-0.018886	-0.004310	-0.755127	-0.227051	0.589355	-0.138580	-0.726497	0.107995	-0.664330
24072		9.717231	0.400303	-0.854660	0.007063	-0.008985	-0.010072	-0.764160	-0.233887	0.586182	-0.138545	-0.726556	0.108003	-0.664272
24073		9.732717	0.512212	-0.780342	0.011313	-0.007544	-0.013426	-0.746094	-0.234619	0.590820	-0.138523	-0.726598	0.107962	-0.664237
24074		9.747245	0.487773	-0.798813	0.012941	-0.010892	-0.014224	-0.751709	-0.232178	0.588867	-0.138503	-0.726696	0.107930	-0.664139
24075		9.734755	0.522997	-0.827382	0.013866	-0.017077	-0.012148	-0.748535	-0.236084	0.589844	-0.138435	-0.726837	0.107902	-0.664004
24076		9.713992	0.545728	-0.837156	0.008438	-0.012355	-0.010313	-0.749268	-0.232666	0.588623	-0.138426	-0.726928	0.107949	-0.663898
24077		9.753536	0.507638	-0.918442	0.008834	-0.009890	-0.006631	-0.751221	-0.231934	0.590820	-0.138372	-0.726993	0.108004	-0.663829
24078		9.782415	0.529446	-0.839393	-0.006711	-0.005617	-0.004721	-0.746826	-0.241211	0.591309	-0.138444	-0.726995	0.108194	-0.663782
24079		9.689753	0.477024	-0.803828	-0.003235	-0.000907	-0.006224	-0.751709	-0.234863	0.594238	-0.138545	-0.726966	0.108380	-0.663761
24080		9.707940	0.505941	-0.869625	-0.003530	-0.003530	-0.007183	-0.756592	-0.230225	0.586670	-0.138621	-0.726963	0.108529	-0.663725
24081		9.716906	0.499967	-0.800946	-0.015826	-0.003279	-0.006713	-0.754639	-0.234863	0.592285	-0.138784	-0.726921	0.108755	-0.663700
24082		9.745148	0.376679	-0.813977	-0.008749	-0.001620	-0.014815	-0.757324	-0.228027	0.598633	-0.138971	-0.726897	0.108869	-0.663668
24083		9.767506	0.452644	-0.838723	-0.008058	0.003230	-0.017574	-0.753906	-0.235107	0.587402	-0.139147	-0.726848	0.108910	-0.663678
24084		9.758477	0.532276	-0.809049	-0.023025	0.000775	-0.015791	-0.755371	-0.234863	0.593506	-0.139476	-0.726774	0.109129	-0.663654
24085		9.709289	0.457171	-0.799993	-0.034671	0.002612	-0.019631	-0.755615	-0.237549	0.591309	-0.139938	-0.726679	0.109401	-0.663616
24086		9.732636	0.516816	-0.839502	-0.029522	0.005244	-0.020491	-0.751221	-0.240967	0.595947	-0.140373	-0.726568	0.109627	-0.663608
24087		9.722141	0.535746	-0.788599	-0.035374	0.001121	-0.016684	-0.755127	-0.228027	0.585693	-0.140837	-0.726488	0.109962	-0.663543
24088		9.758204	0.601751	-0.812979	-0.008052	0.001477	-0.010286	-0.753662	-0.239258	0.590088	-0.140940	-0.726429	0.110056	-0.663570
24089		9.732694	0.577524	-0.845535	-0.012086	-0.001653	-0.001565	-0.751221	-0.235840	0.584229	-0.141052	-0.726381	0.110323	-0.663554
24090		9.726247	0.480032	-0.850789	-0.008448	-0.000536	0.000828	-0.750244	-0.234619	0.591553	-0.141100	-0.726322	0.110564	-0.663568
24091		9.729470	0.513046	-0.798381	-0.013587	-0.005168	0.001566	-0.749756	-0.230225	0.584717	-0.141175	-0.726306	0.110858	-0.663521
24092		9.749847	0.483305	-0.794829	-0.014746	-0.006365	-0.000377	-0.752197	-0.237061	0.585205	-0.141257	-0.726291	0.111125	-0.663475
24093		9.766060	0.419034	-0.830001	0.004602	0.000645	-0.001227	-0.759033	-0.237793	0.583984	-0.141210	-0.726248	0.111242	-0.663512
24094		9.739506	0.509868	-0.848718	0.006474	0.000675	-0.002390	-0.749268	-0.237549	0.579834	-0.141156	-0.726199	0.111330	-0.663563
24095		9.729798	0.456224	-0.807326	0.008358	-0.001971	-0.003711	-0.751465	-0.231689	0.593262	-0.141100	-0.726183	0.111407	-0.663580
24096		9.724606	0.421135	-0.833083	0.011174	0.001605	-0.008256	-0.750977	-0.237305	0.592529	-0.141026	-0.726172	0.111379	-0.663612
24097		9.742986	0.498906	-0.801972	-0.007331	-0.001695	-0.013509	-0.757324	-0.235352	0.590820	-0.141187	-0.726159	0.111493	-0.663572
24098		9.736763	0.464331	-0.814212	-0.008141	-0.001695	-0.013205	-0.749268	-0.239990	0.594482	-0.141339	-0.726135	0.111599	-0.663549
24099		9.706514	0.522427	-0.782559	-0.002353	-0.005202	-0.012807	-0.748779	-0.238037	0.593506	-0.141454	-0.726165	0.111697	-0.663475
24100		9.759829	0.493341	-0.756417	0.007219	-0.006722	-0.013254	-0.753174	-0.242432	0.586426	-0.141475	-0.726225	0.111703	-0.663404
24101		9.791801	0.504203	-0.823518	0.008936	0.003064	-0.009183	-0.749023	-0.232910	0.586670	-0.141482	-0.726179	0.111733	-0.663447
24102		9.736525	0.515167	-0.825749	0.000959	0.000201	-0.003581	-0.754639	-0.235352	0.581787	-0.141467	-0.726146	0.111841	-0.663469
24103		9.703334	0.439380	-0.844667	0.015100	-0.003926	-0.006816	-0.752441	-0.236084	0.591064	-0.141356	-0.726159	0.111817	-0.663482
24104		9.721201	0.466281	-0.806629	0.014131	-0.003002	-0.010556	-0.747803	-0.242188	0.588379	-0.141287	-0.726188	0.111770	-0.663473
24105		9.758241	0.433838	-0.843818	0.023431	-0.001196	-0.010252	-0.755127	-0.232178	0.596680	-0.141169	-0.726216	0.111686	-0.663481
24106		9.776332	0.521152	-0.811908	0.017849	0.001082	-0.012646	-0.750977	-0.247314	0.584961	-0.141066	-0.726230	0.111559	-0.663510
24107		9.718426	0.508703	-0.776266	0.009283	-0.004349	-0.008809	-0.756348	-0.231201	0.588135	-0.141089	-0.726243	0.111638	-0.663478
24108		9.708388	0.419412	-0.830730	0.005434	-0.004466	-0.016606	-0.753174	-0.236816	0.591553	-0.141123	-0.726267	0.111583	-0.663452
24109		9.712515	0.577872	-0.805991	-0.003091	-0.000920	-0.016901	-0.747314	-0.240723	0.582764	-0.141271	-0.726256	0.111624	-0.663426
24110		9.741888	0.436408	-0.820632	0.003500	0.004872	-0.014899	-0.751953	-0.240479	0.593750	-0.141378	-0.726195	0.111646	-0.663466
24111		9.737543	0.484384	-0.863620	0.020409	0.003316	-0.016719	-0.755615	-0.242188	0.589111	-0.141333	-0.726196	0.111504	-0.663499
24112		9.711282	0.508450	-0.785977	0.003981	0.001000	-0.017603	-0.756592	-0.237061	0.586670	-0.141451	-0.726172	0.111502	-0.663501
24113		9.712479	0.475925	-0.804800	0.009896	-0.005552	-0.022033	-0.754395	-0.236816	0.586914	-0.141515	-0.726216	0.111391	-0.663458
24114		9.723189	0.535978	-0.771041	0.004220	-0.004236	-0.019828	-0.752197	-0.231445	0.590576	-0.141613	-0.726239	0.111345	-0.663419
24115		9.744498	0.512373	-0.780237	0.005590	0.001683	-0.018173	-0.753174	-0.240234	0.587891	-0.141663	-0.726227	0.111261	-0.663436
24116		9.746232	0.570049	-0.815030	-0.004547	0.003867	-0.017939	-0.754395	-0.242676	0.589111	-0.141854	-0.726167	0.111309	-0.663453
24117		9.719076	0.485041	-0.812466	-0.004432	0.002361	-0.015294	-0.757568	-0.237305	0.583252	-0.142029	-0.726116	0.111392	-0.663457
24118		9.725749	0.518941	-0.815071	0.003725	0.000984	-0.017048	-0.758545	-0.241455	0.591797	-0.142113	-0.726079	0.111361	-0.663484
24119		9.746939	0.454678	-0.814803	0.002887	-0.001610	-0.018260	-0.757324	-0.245850	0.588623	-0.142227	-0.726079	0.111349	-0.663462
24120		9.752768	0.477385	-0.806046	0.016115	-0.003961	-0.016430	-0.748535	-0.238770	0.587402	-0.142228	-0.726113	0.111275	-0.663437
24121		9.737620	0.589190	-0.809619	0.013945	-0.004613	-0.016112	-0.759033	-0.241455	0.587158	-0.142215	-0.726162	0.111193	-0.663400
24122		9.718604	0.465593	-0.819601	0.011492	-0.001950	-0.015047	-0.757812	-0.241943	0.583252	-0.142225	-0.726164	0.111139	-0.663405
24123		9.732318	0.509650	-0.828417	0.017448	-0.000625	-0.016292	-0.755615	-0.242188	0.585693	-0.142199	-0.726161	0.111028	-0.663432
24124		9.764662	0.490409	-0.794710	0.017720	-0.002599	-0.016961	-0.760498	-0.238770	0.588867	-0.142176	-0.726184	0.110916	-0.663431
24125		9.724951	0.537383	-0.835045	0.024750	-0.002572	-0.019142	-0.753906	-0.242920	0.587891	-0.142082	-0.726223	0.110698	-0.663445
24126		9.711575	0.552652	-0.849228	0.008898	-0.001041	-0.018180	-0.753174	-0.244629	0.575195	-0.142156	-0.726226	0.110652	-0.663433
24127		9.720741	0.589188	-0.789207	-0.004627	0.000890	-0.013454	-0.748047	-0.243408	0.597900	-0.142335	-0.726154	0.110773	-0.663453
24128		9.721850	0.533820	-0.795344	0.003151	0.002567	-0.009826	-0.761475	-0.237793	0.587646	-0.142396	-0.726138	0.110848	-0.663445
24129		9.777754	0.538035	-0.805357	0.011801	-0.001770	-0.006840	-0.759766	-0.237061	0.584961	-0.142310	-0.726127	0.110837	-0.663478
24130		9.743769	0.489802	-0.807042	0.005244	-0.003662	-0.007243	-0.751221	-0.239502	0.594238	-0.142284	-0.726118	0.110879	-0.663486
24131		9.730496	0.462579	-0.811596	0.018132	0.001801	-0.011808	-0.749512	-0.235596	0.587402	-0.142202	-0.726127	0.110786	-0.663510
24132		9.734248	0.580971	-0.790868	0.006080	0.002648	-0.011850	-0.750732	-0.240967	0.588623	-0.142214	-0.726096	0.110771	-0.663543
24133		9.691402	0.482083	-0.853591	0.004074	0.000848	-0.014882	-0.754883	-0.242676	0.588623	-0.142298	-0.726080	0.110782	-0.663541
24134		9.720289	0.459366	-0.868841	-0.002984	-0.001999	-0.021611	-0.760986	-0.239014	0.594727	-0.142504	-0.726076	0.110800	-0.663498
24135		9.753767	0.472647	-0.754519	-0.006655	0.000201	-0.023812	-0.753418	-0.233643	0.589355	-0.142730	-0.726056	0.110789	-0.663473
24136		9.740098	0.539400	-0.776057	0.017400	0.002551	-0.023504	-0.757812	-0.230713	0.589355	-0.142713	-0.726063	0.110550	-0.663509
24137		9.732472	0.543726	-0.769701	0.027857	-0.000296	-0.022965	-0.755615	-0.235596	0.586914	-0.142571	-0.726106	0.110209	-0.663550
24138		9.740058	0.560826	-0.790067	0.027444	-0.007709	-0.022261	-0.746094	-0.244385	0.583984	-0.142451	-0.726203	0.109929	-0.663516
24139		9.725736	0.605207	-0.802555	0.017528	-0.007253	-0.016659	-0.750977	-0.238770	0.585449	-0.142441	-0.726274	0.109852	-0.663452
24140		9.709812	0.606856	-0.882059	-0.001203	-0.005951	-0.012314	-0.753174	-0.243408	0.583252	-0.142526	-0.726294	0.109923	-0.663401
24141		9.692544	0.383552	-0.874684	-0.003231	-0.002710	-0.021089	-0.755859	-0.243164	0.585205	-0.142735	-0.726282	0.109955	-0.663363
24142		9.738378	0.416255	-0.744344	-0.006357	-0.004690	-0.032020	-0.753662	-0.229980	0.582031	-0.143053	-0.726297	0.109909	-0.663286
24143		9.772153	0.547174	-0.778328	0.015024	-0.003898	-0.037726	-0.759766	-0.246094	0.588867	-0.143142	-0.726355	0.109543	-0.663264
24144		9.717679	0.607558	-0.818837	0.012694	-0.003418	-0.034054	-0.763672	-0.242188	0.585449	-0.143312	-0.726396	0.109327	-0.663218
24145		9.696002	0.644404	-0.825170	0.021629	-0.005082	-0.030112	-0.751709	-0.243652	0.587158	-0.143339	-0.726448	0.109044	-0.663202
24146		9.741695	0.640211	-0.894343	0.014013	-0.003115	-0.028070	-0.755371	-0.239990	0.585693	-0.143437	-0.726492	0.108859	-0.663163
24147		9.757479	0.659021	-0.829364	-0.005185	0.002587	-0.019633	-0.753418	-0.248535	0.585938	-0.143620	-0.726434	0.108869	-0.663185
24148		9.698201	0.613842	-0.754214	-0.000028	0.003493	-0.013218	-0.752930	-0.239014	0.583008	-0.143759	-0.726370	0.108952	-0.663212
24149		9.699438	0.630857	-0.883780	0.003338	0.005295	-0.010243	-0.757324	-0.244385	0.588623	-0.143785	-0.726292	0.108965	-0.663290
24150		9.665176	0.581823	-0.869778	-0.015482	0.002101	-0.010232	-0.752930	-0.246094	0.589355	-0.144003	-0.726210	0.109168	-0.663298
24151		9.758883	0.470267	-0.778210	-0.002070	0.004363	-0.016102	-0.758057	-0.241943	0.588623	-0.144163	-0.726152	0.109216	-0.663319
24152		9.776656	0.602819	-0.782116	-0.000661	0.008202	-0.013215	-0.751709	-0.236572	0.586426	-0.144259	-0.726052	0.109236	-0.663404
24153		9.742608	0.605770	-0.789413	-0.000586	0.006781	-0.011926	-0.748779	-0.245605	0.578369	-0.144312	-0.725973	0.109236	-0.663479
24154		9.709755	0.600056	-0.811894	-0.003177	0.004621	-0.009206	-0.751221	-0.247070	0.580566	-0.144434	-0.725883	0.109365	-0.663530
24155		9.709583	0.550778	-0.788816	0.002310	0.003254	-0.009490	-0.757812	-0.247070	0.584229	-0.144511	-0.725816	0.109452	-0.663572
24156		9.737175	0.605346	-0.808228	0.009370	0.004589	-0.010237	-0.749756	-0.252686	0.590576	-0.144523	-0.725749	0.109461	-0.663642
24157		9.722143	0.615283	-0.793406	0.005882	0.004506	-0.008466	-0.758301	-0.249756	0.588135	-0.144590	-0.725704	0.109559	-0.663660
24158		9.707052	0.573362	-0.756298	-0.002272	0.005132	-0.006752	-0.750977	-0.235596	0.588623	-0.144693	-0.725615	0.109711	-0.663709
24159		9.744144	0.539688	-0.777361	0.007717	0.006574	-0.009520	-0.749756	-0.240234	0.591309	-0.144636	-0.725562	0.109649	-0.663790
24160		9.734130	0.618361	-0.760925	0.007748	0.007828	-0.008086	-0.743408	-0.241455	0.587891	-0.144600	-0.725504	0.109633	-0.663864
24161		9.737069	0.563010	-0.779592	0.011507	0.004231	-0.004590	-0.745117	-0.241699	0.588135	-0.144514	-0.725481	0.109642	-0.663906
24162		9.724141	0.565369	-0.793797	0.007929	0.000385	-0.007121	-0.750977	-0.247559	0.581299	-0.144476	-0.725484	0.109666	-0.663907
24163		9.729643	0.564705	-0.772520	0.012843	0.002973	-0.006076	-0.753662	-0.247559	0.587402	-0.144434	-0.725439	0.109702	-0.663959
24164		9.743576	0.535857	-0.759874	0.011341	0.007748	-0.007135	-0.751709	-0.242432	0.588135	-0.144413	-0.725365	0.109724	-0.664041
24165		9.757281	0.334240	-0.773004	0.047287	0.005620	-0.019827	-0.756348	-0.242920	0.581543	-0.144134	-0.725401	0.109299	-0.664133
24166		9.848026	0.621932	-0.805906	0.051439	0.001837	-0.034955	-0.755615	-0.249756	0.584717	-0.143948	-0.725467	0.108720	-0.664196
24167		9.913895	0.370737	-0.541864	-0.011430	0.019605	-0.045614	-0.756104	-0.251953	0.587646	-0.144492	-0.725292	0.108586	-0.664291
24168		9.794844	0.243745	-0.454530	-0.004147	0.026877	-0.066033	-0.758545	-0.238770	0.590088	-0.145154	-0.725106	0.108199	-0.664413
24169		9.824657	0.422835	-0.658030	-0.020075	0.028577	-0.081219	-0.744385	-0.249023	0.586914	-0.145980	-0.724909	0.107687	-0.664531
24170		9.665751	0.573907	-0.828369	-0.021972	0.027092	-0.088888	-0.749756	-0.246338	0.584473	-0.146961	-0.724747	0.107208	-0.664568
24171		9.602375	0.708200	-1.069618	-0.004658	0.040131	-0.092954	-0.752197	-0.253174	0.581543	-0.147801	-0.724500	0.106485	-0.664768
24172		9.598069	1.036920	-1.267512	-0.052758	0.058142	-0.078784	-0.756104	-0.251709	0.584717	-0.149019	-0.723980	0.106296	-0.665092
24173		9.701984	1.257876	-1.259950	-0.132409	0.082994	-0.045645	-0.757812	-0.253662	0.574219	-0.150681	-0.723069	0.106984	-0.665599
24174		9.747824	1.305175	-1.008787	-0.198865	0.102695	-0.004807	-0.762451	-0.250977	0.572754	-0.152632	-0.721785	0.108558	-0.666292
24175		9.686547	1.132745	-0.944663	-0.248640	0.119806	0.036104	-0.764893	-0.258057	0.568359	-0.154667	-0.720203	0.110833	-0.667160
24176		9.700044	0.765221	-0.765094	-0.275508	0.124211	0.057714	-0.757568	-0.256104	0.566650	-0.156801	-0.718488	0.113548	-0.668054
24177		9.721075	0.210344	-0.536849	-0.243929	0.125419	0.046141	-0.757812	-0.257812	0.562256	-0.158717	-0.716862	0.115860	-0.668950
24178		9.725913	0.014123	-0.464246	-0.205631	0.108689	0.002593	-0.760986	-0.261719	0.564453	-0.160625	-0.715510	0.117492	-0.669657
24179		9.749330	-0.254603	-0.347776	-0.184466	0.073307	-0.068050	-0.759766	-0.276367	0.555420	-0.162882	-0.714609	0.118385	-0.669917
24180		9.829218	-0.329590	0.198685	-0.154070	0.005216	-0.158851	-0.769531	-0.273438	0.553467	-0.165618	-0.714447	0.118449	-0.669408
24181		9.806478	-0.259644	0.446053	-0.084068	-0.047080	-0.251599	-0.761230	-0.279053	0.565674	-0.168359	-0.714976	0.117147	-0.668386
24182		10.172566	0.082674	0.093147	-0.043528	-0.104151	-0.327616	-0.758057	-0.291748	0.562256	-0.171270	-0.716220	0.114922	-0.666700
24183		10.355208	0.283145	-0.047822	0.019252	-0.150296	-0.390435	-0.752441	-0.292725	0.567139	-0.174124	-0.718036	0.111764	-0.664540
24184		10.262422	0.590662	0.388787	0.104558	-0.180842	-0.458453	-0.752930	-0.308105	0.563721	-0.176682	-0.720374	0.107304	-0.662065
24185		10.214988	0.815865	0.230500	0.225403	-0.149968	-0.491105	-0.748779	-0.306396	0.573730	-0.178525	-0.722695	0.101554	-0.659946
24186		9.589758	2.240409	-0.137692	0.295784	-0.170362	-0.484574	-0.743164	-0.303711	0.575684	-0.179575	-0.725313	0.095253	-0.657723
24187		9.020760	3.888362	-0.767697	-0.024878	-0.224971	-0.386074	-0.743652	-0.312744	0.574707	-0.182602	-0.727506	0.092550	-0.654848
24188		8.890649	5.059760	-0.636661	-0.623489	-0.213975	-0.277008	-0.737305	-0.330078	0.568848	-0.190197	-0.728045	0.095723	-0.651623
24189		8.830560	3.079953	-0.108760	-0.951579	-0.130346	-0.146828	-0.738037	-0.345703	0.570557	-0.199831	-0.726872	0.102569	-0.649003
24190		8.481432	2.278115	0.400125	-0.611391	-0.039455	-0.044135	-0.730957	-0.349609	0.572754	-0.205608	-0.725620	0.107313	-0.647832
24191		8.522137	2.127310	0.275694	-0.061858	0.015402	0.043028	-0.744629	-0.362549	0.569092	-0.205708	-0.725237	0.108177	-0.648084
24192		8.183530	2.967990	-0.261465	0.155358	0.084409	0.184762	-0.738281	-0.348389	0.566162	-0.202873	-0.724612	0.108497	-0.649622
24193		8.299936	5.105230	-1.006840	-0.152935	0.064484	0.376976	-0.741943	-0.345703	0.560303	-0.201193	-0.723109	0.113050	-0.651041
24194		8.535257	1.194502	-2.977734	-0.317717	-0.035449	0.772016	-0.743164	-0.327393	0.567627	-0.197658	-0.721389	0.122775	-0.652270
24195		9.727041	1.842290	-6.235649	-0.570851	-0.316614	0.792029	-0.753418	-0.322021	0.564941	-0.195695	-0.721258	0.135313	-0.650523
24196		12.708360	-2.331104	0.152828	-0.811874	-0.130924	0.833194	-0.750732	-0.319580	0.565186	-0.195868	-0.718791	0.149755	-0.650037
24197		10.450699	0.457084	2.930196	-0.033214	-0.208864	0.738128	-0.755615	-0.307373	0.570068	-0.189644	-0.718967	0.157174	-0.649937
24198		9.503928	0.384426	-0.183951	-0.082839	-0.298893	0.648365	-0.753906	-0.308350	0.572998	-0.184405	-0.719868	0.164389	-0.648661
24199		9.817078	-1.755974	-2.699631	-0.222988	-0.282462	0.571452	-0.750244	-0.292969	0.587158	-0.181168	-0.720407	0.172083	-0.646978
24200		10.011920	0.666952	-1.851480	-0.133853	-0.257869	0.531873	-0.757080	-0.291748	0.578369	-0.177394	-0.721046	0.178521	-0.645566
24201		10.070867	-1.003867	-1.438638	-0.257416	-0.192298	0.478409	-0.746826	-0.279297	0.581299	-0.175403	-0.720886	0.185460	-0.644331
24202		9.828021	-1.162501	-1.690969	-0.163907	-0.160541	0.359373	-0.755127	-0.275391	0.596680	-0.173538	-0.720962	0.190424	-0.643301
24203		10.080035	-1.421501	-1.687948	-0.295088	-0.106908	0.249256	-0.756592	-0.273193	0.585449	-0.173817	-0.720598	0.195274	-0.642179
24204		9.908075	-1.558966	-1.498608	-0.354875	-0.071663	0.113477	-0.749023	-0.279297	0.588379	-0.175843	-0.720083	0.199377	-0.640943
24205		9.792845	-1.692145	-1.113083	-0.355677	-0.076188	-0.022103	-0.753174	-0.276123	0.593018	-0.178950	-0.719963	0.202246	-0.639317
24206		9.712111	-0.661600	-1.147687	-0.273601	-0.082442	-0.127909	-0.752197	-0.289551	0.576660	-0.182066	-0.720342	0.203459	-0.637623
24207		9.271342	-0.967110	-1.461196	-0.161721	-0.077585	-0.213627	-0.744629	-0.293945	0.581543	-0.184987	-0.721069	0.203147	-0.636059
24208		9.675070	-0.415082	-1.603202	-0.070359	-0.063348	-0.260610	-0.745361	-0.307129	0.587891	-0.187457	-0.722040	0.201597	-0.634725
24209		9.640280	0.745720	-1.383855	-0.164964	-0.052764	-0.250764	-0.751465	-0.296631	0.581543	-0.190754	-0.722683	0.200867	-0.633241
24210		9.522117	-0.051906	-0.655244	-0.146057	-0.083449	-0.249193	-0.738770	-0.312988	0.581055	-0.193703	-0.723554	0.200061	-0.631604
24211		9.658375	-0.129132	-1.211399	-0.045644	-0.091810	-0.276530	-0.743652	-0.313232	0.581299	-0.196002	-0.724815	0.198252	-0.630018
24212		9.721274	0.573748	-1.755559	-0.031188	-0.080927	-0.272794	-0.737549	-0.317383	0.584229	-0.198138	-0.725980	0.196346	-0.628604
24213		9.637019	0.441333	-1.856070	-0.002504	-0.052733	-0.261859	-0.730713	-0.333740	0.586914	-0.199978	-0.726976	0.194214	-0.627531
24214		9.873373	-0.203868	-1.564693	0.089145	-0.053260	-0.294751	-0.739990	-0.333740	0.587402	-0.201307	-0.728293	0.191087	-0.626538
24215		10.408994	-0.671705	-1.989074	-0.012965	-0.029718	-0.393994	-0.735352	-0.342285	0.585693	-0.204379	-0.729350	0.187832	-0.625298
24216		10.518703	-1.500207	-1.739521	-0.159591	-0.041862	-0.592285	-0.729736	-0.351807	0.598877	-0.210319	-0.730557	0.183964	-0.623064
24217		10.649305	-2.142012	-0.598003	-0.478842	-0.122325	-0.887146	-0.728271	-0.368408	0.597168	-0.221176	-0.732211	0.179964	-0.618514
24218		11.617083	-1.939713	-0.447906	-0.900946	-0.273512	-1.121000	-0.709717	-0.398438	0.576416	-0.237273	-0.734192	0.177472	-0.610874
24219		12.500566	-0.775803	1.066027	-0.952673	-0.308554	-1.277476	-0.693359	-0.440186	0.569336	-0.254942	-0.736307	0.174106	-0.602116
24220		13.078329	-0.653399	0.323385	-0.521825	-0.333487	-1.318517	-0.680908	-0.462158	0.572021	-0.268856	-0.739790	0.167188	-0.593697
24221		13.875873	-0.104944	-0.701444	0.140992	-0.228380	-1.296685	-0.666504	-0.485352	0.578613	-0.276560	-0.744457	0.155124	-0.587567
24222		13.680363	2.312989	-0.564021	0.515787	-0.136945	-1.416241	-0.658691	-0.500000	0.586182	-0.281772	-0.749754	0.138850	-0.582403
24223		12.800964	6.763752	-2.268000	0.491332	-0.264326	-1.833351	-0.634766	-0.521729	0.588623	-0.289922	-0.756288	0.119225	-0.574246
24224		11.322458	10.185591	-3.661568	-0.176095	-0.576599	-2.165203	-0.597900	-0.548828	0.600098	-0.306129	-0.762661	0.102269	-0.560513
24225		10.845562	9.042577	-3.639610	-1.140586	-0.828126	-2.373727	-0.571777	-0.602783	0.591797	-0.332351	-0.766636	0.090892	-0.541803
24226		10.492658	6.199191	-2.370147	-1.277585	-0.744399	-2.582546	-0.517090	-0.641113	0.578125	-0.360969	-0.768733	0.077964	-0.522181
24227		9.292221	6.435288	-1.749891	-0.879971	-0.709364	-2.711641	-0.474609	-0.680176	0.565674	-0.386143	-0.771479	0.060919	-0.501998
24228		7.599868	6.261104	-1.522643	-0.642218	-0.711346	-2.662289	-0.427246	-0.720703	0.556641	-0.408210	-0.774352	0.042777	-0.481574
24229		6.291208	5.353808	-1.405756	-0.480048	-0.751182	-2.402373	-0.377686	-0.746826	0.550537	-0.426667	-0.777276	0.026328	-0.461632
24230		5.651024	5.394353	-1.010802	-0.402435	-0.724818	-2.061303	-0.337158	-0.772217	0.543213	-0.442056	-0.779655	0.012616	-0.443357
24231		5.195969	4.920398	-0.753391	-0.426107	-0.540962	-1.636094	-0.306885	-0.787354	0.544189	-0.455072	-0.780329	0.002152	-0.428943
24232		4.394762	3.932025	-0.388522	-0.349965	-0.292368	-1.106742	-0.285645	-0.796631	0.526123	-0.464352	-0.779813	-0.004974	-0.419814
24233		4.140661	3.751621	-0.448047	-0.176009	-0.078229	-0.558833	-0.272949	-0.802734	0.533691	-0.468986	-0.779110	-0.008916	-0.415886
24234		4.102598	3.994642	-0.478413	-0.165782	0.174149	0.028621	-0.272949	-0.802979	0.519775	-0.470423	-0.777195	-0.008670	-0.417846
24235		3.991042	4.103205	-0.755669	-0.432102	0.454724	0.597210	-0.297607	-0.809570	0.511230	-0.471417	-0.772259	-0.003158	-0.425877
24236		3.785990	3.492010	-0.599034	-0.640146	0.678490	1.074317	-0.333984	-0.805664	0.497070	-0.471768	-0.764754	0.006748	-0.438794
24237		4.012584	4.103923	-0.659094	-0.534393	0.823963	1.499887	-0.373291	-0.804443	0.479248	-0.468590	-0.756722	0.019281	-0.455438
24238		4.280711	4.077433	-0.814835	-0.595158	0.983884	1.801117	-0.412842	-0.804443	0.456543	-0.464024	-0.746884	0.034059	-0.475063
24239		4.615421	4.042399	-0.699805	-0.329110	1.024430	1.879143	-0.459717	-0.792480	0.447021	-0.456191	-0.737770	0.047725	-0.495286
24240		5.726172	4.851111	-1.441316	0.079763	1.020853	1.824098	-0.512451	-0.768311	0.437012	-0.444600	-0.730513	0.058339	-0.515052
24241		6.759228	6.092989	-1.805090	0.362527	0.987294	1.656544	-0.549561	-0.743652	0.427490	-0.431194	-0.724691	0.065752	-0.533452
24242		7.396625	6.323022	-2.221602	0.472089	0.893413	1.280928	-0.585449	-0.723633	0.427490	-0.419002	-0.720022	0.069504	-0.548794
24243		7.609086	6.415511	-2.406416	0.635149	0.737686	0.884805	-0.605713	-0.713867	0.423340	-0.407780	-0.717371	0.069362	-0.560610
24244		8.001764	5.844114	-1.723877	0.597617	0.599155	0.600804	-0.626465	-0.702881	0.432373	-0.398674	-0.715588	0.067628	-0.569579
24245		8.097776	5.307772	-1.268723	0.652660	0.464199	0.377942	-0.641113	-0.686523	0.435303	-0.390490	-0.715124	0.064169	-0.576192
24246		8.548647	5.280947	-1.481503	0.858275	0.326191	0.191655	-0.635742	-0.679688	0.447754	-0.381649	-0.716714	0.058230	-0.580753
24247		9.020885	5.939817	-1.915951	0.797969	0.175228	0.077439	-0.641602	-0.669678	0.474854	-0.374021	-0.719110	0.052418	-0.583301
24248		7.984728	5.081740	-1.594354	0.431858	0.064522	0.063171	-0.642578	-0.663330	0.473633	-0.369672	-0.720566	0.049641	-0.584519
24249		6.930872	3.998154	-1.012000	0.304417	-0.032022	0.090407	-0.650635	-0.657227	0.474609	-0.366206	-0.722106	0.048489	-0.584898
24250		6.403986	4.085277	-0.708017	0.457421	-0.094120	0.139129	-0.649170	-0.647217	0.491943	-0.360971	-0.724749	0.046958	-0.585007
24251		5.851911	4.545221	-0.806199	0.433790	-0.156865	0.211721	-0.653564	-0.640381	0.492188	-0.355347	-0.727677	0.046513	-0.584852
24252		6.080493	6.098663	0.088538	0.240278	-0.288409	0.288031	-0.647949	-0.629883	0.503662	-0.350857	-0.730632	0.048779	-0.583692
24253		12.267671	8.891249	-2.728459	-0.527458	-0.408861	-0.096125	-0.645264	-0.639648	0.504150	-0.356067	-0.731296	0.053630	-0.579263
24254		16.309039	-0.676745	0.742448	-0.444162	-0.113917	-0.297006	-0.642334	-0.658936	0.502686	-0.362149	-0.730288	0.054720	-0.576657
24255		13.625044	3.457307	-0.813852	0.901889	-0.183505	-0.314649	-0.633301	-0.642578	0.516357	-0.355994	-0.735816	0.046290	-0.574195
24256		6.111379	6.184010	-1.383108	0.200889	-0.197304	-0.228285	-0.625488	-0.645996	0.522949	-0.355628	-0.738213	0.043752	-0.571538
24257		4.910952	5.904662	-1.571065	-0.117702	-0.238701	-0.222724	-0.623779	-0.658203	0.522217	-0.358133	-0.739473	0.043717	-0.568339
24258		9.116184	4.707594	-1.115840	0.016601	-0.108364	-0.218727	-0.620117	-0.654541	0.527344	-0.359450	-0.740395	0.042189	-0.566420
24259		10.643886	4.598333	-2.151415	0.297779	-0.058366	-0.153620	-0.615967	-0.644531	0.525879	-0.357726	-0.742182	0.039049	-0.565397
24260		7.756967	6.533768	-1.474255	-0.061681	-0.006738	-0.039399	-0.615723	-0.649414	0.532227	-0.358551	-0.741935	0.039284	-0.565182
24261		8.057413	4.567624	-0.849785	0.053121	0.066441	-0.001827	-0.613770	-0.650391	0.532471	-0.358062	-0.741669	0.038700	-0.565881
24262		9.472004	5.009462	-1.461012	0.328461	0.047726	0.008990	-0.624023	-0.643555	0.533203	-0.354933	-0.742755	0.036352	-0.566583
24263		8.567559	4.948944	-0.951011	0.246684	0.072782	0.001084	-0.618164	-0.643311	0.533447	-0.352644	-0.743293	0.034421	-0.567427
24264		8.461464	5.000429	-0.939559	0.259872	0.009415	0.013456	-0.620361	-0.648926	0.543701	-0.350114	-0.744325	0.032790	-0.567737
24265		8.896082	4.304411	-1.462136	0.232931	0.003582	-0.013992	-0.618896	-0.643799	0.547607	-0.348010	-0.745286	0.031102	-0.567865
24266		8.690943	4.521852	-1.559803	0.150946	0.030023	-0.061090	-0.620117	-0.628174	0.545166	-0.347011	-0.745717	0.029444	-0.567998
24267		8.495740	4.348193	-1.259444	0.068023	0.041856	-0.100767	-0.619629	-0.635010	0.542969	-0.347085	-0.745716	0.027972	-0.568029
24268		8.382405	4.283023	-0.690965	0.052809	0.013947	-0.147028	-0.614746	-0.649170	0.545410	-0.347618	-0.745861	0.026299	-0.567592
24269		8.665409	4.733190	-0.332162	-0.019557	-0.049878	-0.174482	-0.610596	-0.647705	0.554932	-0.348989	-0.746152	0.025149	-0.566421
24270		8.265455	4.708999	-0.579942	-0.031509	-0.109628	-0.205465	-0.608398	-0.643799	0.551270	-0.350663	-0.746818	0.024049	-0.564553
24271		8.434689	5.185754	-1.097356	-0.099671	-0.159088	-0.207255	-0.604736	-0.648926	0.557373	-0.352967	-0.747527	0.023625	-0.562192
24272		8.576169	5.179929	-1.741547	-0.130242	-0.155522	-0.204218	-0.604492	-0.651123	0.544434	-0.355529	-0.748066	0.023425	-0.559864
24273		8.866493	5.792051	-2.076675	-0.033938	-0.107150	-0.163487	-0.591797	-0.660156	0.544434	-0.356936	-0.748675	0.022740	-0.558180
24274		8.125501	5.709410	-1.851968	-0.001618	-0.035206	-0.087534	-0.595215	-0.653320	0.546631	-0.357530	-0.748903	0.022219	-0.557515
24275		8.377026	6.309372	-1.922721	-0.002813	0.003749	0.016972	-0.595215	-0.660889	0.561523	-0.357418	-0.748824	0.022508	-0.557681
24276		8.936627	5.269846	-1.781977	-0.055243	0.115508	0.076117	-0.597656	-0.655029	0.546875	-0.357395	-0.747716	0.023191	-0.559153
24277		8.632976	4.469859	-1.634201	-0.005857	0.171360	0.074559	-0.597412	-0.653320	0.545166	-0.356955	-0.746434	0.023288	-0.561139
24278		8.584841	4.284832	-1.049781	0.016591	0.180357	0.016484	-0.606934	-0.661621	0.538086	-0.356697	-0.745203	0.022629	-0.562963
24279		8.879514	4.302194	-0.581886	0.069371	0.168031	-0.035329	-0.597412	-0.659180	0.541748	-0.356323	-0.744304	0.021193	-0.564443
24280		9.494177	4.759935	-0.828578	0.041660	0.095300	-0.080209	-0.606934	-0.659912	0.544434	-0.356491	-0.743804	0.019845	-0.565045
24281		11.106226	4.722968	-1.014225	0.039052	0.099673	-0.159160	-0.609131	-0.656982	0.545654	-0.357237	-0.743279	0.017761	-0.565334
24282		11.386949	3.862302	-0.992769	0.200584	0.093253	-0.203214	-0.605225	-0.653809	0.541260	-0.356786	-0.743523	0.014155	-0.565400
24283		9.824810	4.402050	-0.945635	0.643356	0.174952	-0.285705	-0.600098	-0.650879	0.548096	-0.352821	-0.745143	0.006321	-0.565896
24284		6.722359	5.332587	0.107914	0.712486	0.231465	-0.310692	-0.590576	-0.645996	0.554199	-0.348362	-0.746604	-0.002479	-0.566764
24285		5.588241	5.626121	-0.222938	0.725952	0.293403	-0.364899	-0.594482	-0.641846	0.563232	-0.344106	-0.747601	-0.012174	-0.567922
24286		5.249836	5.256702	-2.472923	0.831442	0.272785	-0.408116	-0.589844	-0.637451	0.568115	-0.339128	-0.749094	-0.022941	-0.568615
24287		5.348888	6.709594	-2.560722	0.325284	0.099461	-0.370784	-0.591309	-0.636719	0.568604	-0.338659	-0.749617	-0.029010	-0.567928
24288		5.595829	5.007136	-1.532622	-0.201820	0.116093	-0.316077	-0.590332	-0.641602	0.568848	-0.342723	-0.747788	-0.030903	-0.567802
24289		5.175139	3.926033	-0.527320	0.158674	0.120498	-0.206499	-0.589111	-0.643799	0.572510	-0.342632	-0.747500	-0.034352	-0.568037
24290		5.089773	4.544341	-0.726497	0.446554	0.127859	-0.022357	-0.587646	-0.639648	0.576660	-0.338532	-0.748456	-0.038158	-0.568994
24291		5.733543	5.799298	-1.058537	0.304389	0.126041	0.197676	-0.593018	-0.633545	0.583740	-0.334188	-0.748905	-0.038890	-0.570917
24292		9.930903	8.703547	-2.899201	-0.098985	0.031819	0.105399	-0.596924	-0.629150	0.582275	-0.334300	-0.748286	-0.037242	-0.571773
24293		11.512133	3.705563	-1.348768	-0.298294	-0.025219	-0.049573	-0.597168	-0.636475	0.570801	-0.337404	-0.747163	-0.035388	-0.571536
24294		11.058190	4.066745	-0.308602	0.120113	-0.172047	0.069569	-0.585449	-0.630615	0.571777	-0.335833	-0.748900	-0.034753	-0.570225
24295		9.419477	6.437162	-0.195069	0.084984	-0.156329	-0.042722	-0.592041	-0.633789	0.574951	-0.335384	-0.750324	-0.034976	-0.568602
24296		7.213769	4.215919	0.349237	0.141004	-0.124536	-0.050788	-0.589355	-0.629395	0.576904	-0.334451	-0.751748	-0.035807	-0.567217
24297		6.721704	5.689829	-1.254320	0.292569	-0.113092	-0.059338	-0.587891	-0.629883	0.600098	-0.332146	-0.753712	-0.037842	-0.565832
24298		7.287975	5.150412	-2.216803	0.204965	-0.114840	-0.050205	-0.589844	-0.621582	0.594971	-0.330578	-0.755319	-0.039192	-0.564513
24299		8.471404	5.261241	-2.546829	0.143740	-0.183692	-0.019887	-0.588135	-0.629395	0.604736	-0.329425	-0.757169	-0.039514	-0.562684
24300		9.564239	4.943455	-1.418695	0.102010	-0.159241	-0.046937	-0.582520	-0.625244	0.597412	-0.328843	-0.758657	-0.039898	-0.560991
24301		8.758219	4.608575	-0.756417	0.350278	-0.028810	-0.095504	-0.572754	-0.623291	0.613525	-0.326178	-0.760217	-0.043014	-0.560204
24302		7.267207	6.191952	-1.961131	0.461984	-0.071866	-0.072419	-0.572998	-0.611328	0.619141	-0.322289	-0.762525	-0.046533	-0.559035
24303		7.523878	5.529108	-1.815914	0.177580	-0.088494	-0.016564	-0.577881	-0.608887	0.624756	-0.320722	-0.763821	-0.047471	-0.558088
24304		8.091422	5.577513	-1.840450	0.285401	-0.085626	0.026160	-0.571289	-0.599609	0.626709	-0.317838	-0.765547	-0.048745	-0.557262
24305		8.549616	6.076263	-1.763070	0.284778	-0.070764	0.091509	-0.572266	-0.601562	0.625244	-0.314492	-0.767196	-0.049448	-0.556830
24306		7.951833	6.325462	-1.770941	0.265665	-0.055096	0.147683	-0.567383	-0.593750	0.640625	-0.310926	-0.768684	-0.049540	-0.556772
24307		8.205960	6.005067	-1.509047	0.224800	-0.084247	0.217177	-0.576416	-0.592285	0.637939	-0.307264	-0.770246	-0.048594	-0.556730
24308		8.601671	6.030800	-1.654786	0.197069	-0.173862	0.287858	-0.574951	-0.587402	0.639648	-0.303443	-0.772352	-0.046406	-0.556094
24309		8.137662	6.281123	-1.694993	0.136459	-0.237813	0.376853	-0.580811	-0.576904	0.656494	-0.299617	-0.774702	-0.042697	-0.555197
24310		8.133336	5.403080	-2.585203	0.198906	-0.285173	0.441017	-0.580811	-0.570801	0.656006	-0.294750	-0.777614	-0.038631	-0.554027
24311		8.408308	5.791979	-2.835965	0.218850	-0.290366	0.511942	-0.585205	-0.561279	0.659912	-0.289186	-0.780627	-0.033989	-0.553026
24312		8.415982	4.771808	-3.080811	0.133865	-0.174385	0.556677	-0.585449	-0.558105	0.666260	-0.284075	-0.782503	-0.028742	-0.553321
24313		8.102030	5.123780	-2.968275	0.279636	-0.118771	0.601234	-0.593750	-0.535889	0.670654	-0.277191	-0.784478	-0.024264	-0.554229
24314		8.522209	4.806947	-2.764618	0.229023	-0.062906	0.648169	-0.605225	-0.515869	0.668701	-0.270441	-0.785848	-0.019169	-0.555822
24315		8.320815	4.578996	-3.140507	0.350654	-0.107950	0.692793	-0.604980	-0.512207	0.682617	-0.262173	-0.787884	-0.014326	-0.557045
24316		8.346190	3.751022	-3.215218	0.424793	-0.039370	0.736199	-0.613281	-0.490967	0.686035	-0.252833	-0.789611	-0.009796	-0.559012
24317		8.499955	3.955018	-2.409125	0.532946	0.041445	0.719230	-0.620361	-0.472412	0.691406	-0.242503	-0.791018	-0.006441	-0.561642
24318		9.037497	3.928591	-1.699575	0.507151	0.102817	0.690315	-0.634033	-0.455811	0.695068	-0.232598	-0.791817	-0.003377	-0.564724
24319		9.049774	3.417835	-1.399907	0.544578	0.086579	0.664872	-0.638672	-0.432861	0.692627	-0.222475	-0.792745	-0.000780	-0.567504
24320		9.010971	3.339825	-1.891366	0.585733	0.080642	0.678617	-0.647949	-0.414551	0.697266	-0.211820	-0.793731	0.001678	-0.570194
24321		8.774856	4.059348	-1.958816	0.399346	0.062257	0.686314	-0.661865	-0.403320	0.701172	-0.202935	-0.794263	0.005589	-0.572653
24322		8.807080	4.019271	-2.001497	0.187628	0.040918	0.750182	-0.662109	-0.389160	0.697266	-0.195672	-0.794329	0.011700	-0.574993
24323		9.243433	2.859044	-1.949778	0.234338	0.016587	0.784925	-0.676270	-0.366211	0.702393	-0.187672	-0.794599	0.017872	-0.577124
24324		8.799536	3.389633	-2.869940	0.370638	-0.014618	0.807525	-0.674072	-0.349854	0.708740	-0.178127	-0.795316	0.023357	-0.578963
24325		8.924741	3.300212	-3.367267	0.092652	0.049511	0.879750	-0.680664	-0.338867	0.707031	-0.170820	-0.794829	0.031425	-0.581446
24326		8.844659	2.616286	-3.324605	0.134623	0.082542	0.923695	-0.696289	-0.322510	0.702393	-0.162772	-0.794071	0.039554	-0.584288
24327		8.606705	3.133108	-2.817924	0.061843	0.087425	1.003639	-0.697266	-0.301270	0.707520	-0.154834	-0.792970	0.048982	-0.587218
24328		9.173436	2.069465	-2.169640	0.058869	0.070876	1.059914	-0.712158	-0.282471	0.700195	-0.146482	-0.791816	0.059016	-0.589989
24329		9.312967	1.298040	-2.279821	-0.034846	0.050628	1.076392	-0.722656	-0.273193	0.690186	-0.138887	-0.790484	0.069923	-0.592415
24330		9.225809	0.986660	-2.736216	0.081221	0.036015	1.044309	-0.725586	-0.261719	0.698730	-0.130346	-0.789348	0.079667	-0.594636
24331		8.813466	1.155989	-2.363823	-0.106207	0.047011	1.026779	-0.741211	-0.229492	0.699951	-0.123793	-0.787704	0.090624	-0.596645
24332		8.721342	-0.422182	-1.871985	-0.025462	0.025173	1.002109	-0.742432	-0.213135	0.696289	-0.116564	-0.786250	0.100730	-0.598396
24333		8.984738	-0.613612	-2.542966	0.165808	-0.013038	0.896312	-0.750000	-0.201416	0.692139	-0.108182	-0.785377	0.108412	-0.599771
24334		9.113068	-3.277908	-3.111079	-0.007979	-0.008239	0.675829	-0.743408	-0.191650	0.696045	-0.103154	-0.784452	0.115220	-0.600598
24335		8.884508	-4.289905	-2.761281	0.004402	-0.003037	0.302103	-0.744629	-0.189697	0.692383	-0.100832	-0.784002	0.118293	-0.600982
24336		9.158034	-3.513971	-2.094497	-0.139153	-0.099269	-0.083386	-0.741699	-0.192627	0.692871	-0.102675	-0.784653	0.118808	-0.599718
24337		9.621047	-2.640877	-2.259965	-0.081820	-0.108864	-0.399891	-0.746582	-0.197021	0.701172	-0.106312	-0.785905	0.115813	-0.598029
24338		9.493184	-0.875166	-2.214616	-0.113089	-0.172164	-0.569925	-0.732178	-0.215332	0.700439	-0.111428	-0.787802	0.111467	-0.595422
24339		9.573695	0.978944	-3.201052	0.152497	-0.138810	-0.575848	-0.728271	-0.215088	0.706543	-0.114018	-0.789783	0.105044	-0.593472
24340		9.178427	2.022725	-3.153917	0.114517	-0.054718	-0.454256	-0.729492	-0.218994	0.710693	-0.116180	-0.790894	0.099969	-0.592448
24341		9.448833	2.572455	-2.330125	0.161175	-0.058804	-0.301711	-0.724365	-0.229248	0.705566	-0.116739	-0.791894	0.096052	-0.591650
24342		9.308042	2.058438	-3.046405	0.203686	-0.070963	-0.178479	-0.722900	-0.229248	0.703369	-0.115956	-0.792887	0.093056	-0.590952
24343		9.534208	0.660225	-3.195671	0.002767	-0.044390	-0.128413	-0.710449	-0.232178	0.708252	-0.116805	-0.793333	0.091973	-0.590356
24344		9.411326	0.299398	-2.200121	0.034232	-0.075542	-0.156551	-0.716309	-0.237061	0.713135	-0.117533	-0.794081	0.090448	-0.589441
24345		9.447583	1.226070	-2.878226	0.089645	-0.080043	-0.162614	-0.722412	-0.228516	0.718018	-0.117752	-0.794946	0.088464	-0.588531
24346		9.202083	0.457445	-2.956838	-0.007928	-0.057623	-0.183593	-0.709961	-0.235840	0.713379	-0.119111	-0.795523	0.086946	-0.587704
24347		9.319029	-1.013869	-2.226233	-0.092564	-0.081439	-0.282813	-0.712646	-0.239258	0.717285	-0.122017	-0.796249	0.085103	-0.586393
24348		9.267163	0.558825	-2.479755	-0.079618	-0.084325	-0.399517	-0.710938	-0.247070	0.717285	-0.125642	-0.797123	0.082010	-0.584879
24349		9.192903	-0.390371	-2.966670	0.009001	-0.098641	-0.468289	-0.704834	-0.251465	0.720947	-0.128868	-0.798288	0.077604	-0.583186
24350		9.173065	-1.016257	-3.378960	0.043469	-0.108315	-0.592107	-0.698975	-0.265137	0.725342	-0.132635	-0.799665	0.071727	-0.581206
24351		8.965841	1.072604	-2.881788	0.060756	-0.101431	-0.714429	-0.687744	-0.261719	0.719238	-0.137118	-0.801075	0.064496	-0.579066
24352		9.502972	-0.674309	-1.776017	-0.266384	-0.078446	-0.813872	-0.691895	-0.297363	0.724121	-0.145592	-0.801764	0.058582	-0.576668
24353		9.487047	2.537859	-0.520655	-0.405015	-0.061853	-0.873866	-0.682617	-0.311279	0.720947	-0.155879	-0.802022	0.053030	-0.574152
24354		9.124002	1.911692	-2.432836	-1.308938	-0.008497	-0.861094	-0.674805	-0.349365	0.711182	-0.175125	-0.799917	0.053967	-0.571447
24355		8.401001	0.630438	-4.467563	-0.367723	-0.122738	-0.951580	-0.666504	-0.360352	0.711182	-0.185483	-0.800531	0.047512	-0.567881
24356		7.344989	4.828712	-3.652487	-0.239633	-0.193456	-0.933582	-0.652588	-0.382568	0.720215	-0.194358	-0.801812	0.040487	-0.563634
24357		8.950233	2.958555	-2.396359	-0.596707	-0.095549	-0.833098	-0.642578	-0.398926	0.712891	-0.206123	-0.801362	0.036731	-0.560343
24358		9.368043	3.687837	-3.415022	-0.208567	-0.179461	-0.802371	-0.639160	-0.422363	0.720947	-0.213720	-0.802375	0.030777	-0.556391
24359		9.361042	1.594843	-2.962131	-0.178130	-0.082261	-0.839025	-0.626953	-0.432861	0.712646	-0.221280	-0.802719	0.023977	-0.553265
24360		8.181921	2.910323	-3.342649	0.062243	-0.120111	-0.901048	-0.611328	-0.444580	0.718506	-0.226814	-0.803912	0.014995	-0.549596
24361		7.183971	6.026766	-3.807797	0.176012	-0.117515	-0.788177	-0.603027	-0.444580	0.719482	-0.230405	-0.805299	0.006356	-0.546229
24362		10.291899	3.512555	-2.963141	-0.400215	0.067454	-0.663072	-0.598389	-0.467041	0.714600	-0.238926	-0.803676	0.002358	-0.544990
24363		9.394272	2.863897	-2.438933	0.086381	0.032560	-0.796807	-0.588867	-0.478271	0.712158	-0.243451	-0.803671	-0.006185	-0.542961
24364		5.014614	3.956012	-2.937041	0.231197	-0.046701	-0.792347	-0.587646	-0.486816	0.721680	-0.246476	-0.804563	-0.015414	-0.540084
24365		8.849541	9.546081	-4.232915	-0.088004	-0.184476	-0.406178	-0.570068	-0.488525	0.726074	-0.250112	-0.805422	-0.018186	-0.537037
24366		10.534514	1.945407	-2.285273	-0.148143	0.162279	-0.435406	-0.579834	-0.496826	0.719727	-0.254457	-0.803735	-0.021962	-0.537383
24367		8.374821	5.436576	-2.817081	0.254338	0.092746	-0.469256	-0.568115	-0.500244	0.721191	-0.254999	-0.803750	-0.028538	-0.536793
24368		8.169334	3.637526	-2.436646	-0.124185	0.152381	-0.511077	-0.568115	-0.508789	0.711914	-0.259596	-0.802109	-0.033184	-0.536777
24369		6.283898	6.235626	-3.447949	0.072643	0.012006	-0.382806	-0.559326	-0.510986	0.719971	-0.261411	-0.802074	-0.037402	-0.535670
24370		9.583427	6.076255	-3.076688	-0.183243	0.051794	-0.203849	-0.555664	-0.510742	0.711182	-0.264566	-0.801007	-0.038258	-0.535657
24371		8.509267	3.859726	-2.758210	-0.143607	0.122779	-0.210905	-0.557129	-0.521729	0.708008	-0.267335	-0.799583	-0.039685	-0.536307
24372		7.953132	3.881996	-2.397518	0.071029	0.112166	-0.281270	-0.568604	-0.518066	0.711914	-0.268434	-0.798901	-0.043211	-0.536501
24373		7.592972	4.520079	-2.698472	-0.016753	0.105860	-0.309671	-0.552979	-0.531250	0.706543	-0.270598	-0.797940	-0.046411	-0.536577
24374		8.091928	5.886380	-3.171077	-0.064987	0.032521	-0.225748	-0.551758	-0.528320	0.702637	-0.272722	-0.797347	-0.048201	-0.536226
24375		8.670404	4.489611	-2.362172	-0.151295	0.107420	-0.232987	-0.550049	-0.539062	0.707520	-0.275705	-0.795944	-0.049744	-0.536643
24376		8.275867	4.251592	-2.540430	-0.051777	0.077836	-0.279576	-0.548584	-0.538574	0.704590	-0.278025	-0.795043	-0.052316	-0.536536
24377		7.089932	4.823198	-2.708324	-0.037040	0.043659	-0.311142	-0.552002	-0.546875	0.696289	-0.280417	-0.794391	-0.055193	-0.535969
24378		8.372764	5.710713	-2.978513	-0.148938	0.006183	-0.251375	-0.548828	-0.548828	0.692139	-0.283556	-0.793628	-0.056575	-0.535303
24379		8.607368	4.655628	-2.364866	-0.155993	0.039224	-0.271843	-0.546387	-0.553223	0.698486	-0.286873	-0.792594	-0.058234	-0.534891
24380		6.917925	4.460919	-2.404122	-0.011116	0.037822	-0.302955	-0.538818	-0.564697	0.690918	-0.288957	-0.792054	-0.061167	-0.534240
24381		8.460241	5.561105	-2.642034	-0.098072	0.008932	-0.301505	-0.540527	-0.564697	0.701904	-0.291914	-0.791384	-0.063394	-0.533366
24382		8.307320	4.968801	-2.312427	-0.072860	0.030839	-0.333817	-0.529785	-0.570557	0.697266	-0.294812	-0.790621	-0.066194	-0.532563
24383		7.584068	5.599876	-2.401207	-0.075207	0.008264	-0.320026	-0.528564	-0.565430	0.696777	-0.297642	-0.789996	-0.068773	-0.531588
24384		7.714485	6.812377	-2.979314	-0.071607	-0.014765	-0.240189	-0.530029	-0.581543	0.689453	-0.299916	-0.789596	-0.070509	-0.530675
24385		8.413608	6.230667	-2.829436	-0.091946	0.060395	-0.145241	-0.523193	-0.586182	0.686035	-0.301715	-0.788700	-0.071429	-0.530865
24386		7.318316	6.466378	-2.865301	0.018219	0.092162	-0.045298	-0.531982	-0.574951	0.689697	-0.301734	-0.788096	-0.072218	-0.531644
24387		6.514663	6.433081	-2.828445	-0.063335	0.082325	0.079121	-0.520752	-0.581055	0.685303	-0.301736	-0.787360	-0.071209	-0.532869
24388		8.516316	5.723160	-1.911976	-0.122914	0.083101	0.144369	-0.528809	-0.587402	0.677246	-0.301873	-0.786446	-0.069187	-0.534404
24389		8.101294	5.188704	-1.695397	0.026224	0.060925	0.126886	-0.533447	-0.578369	0.675537	-0.300697	-0.786225	-0.068222	-0.535516
24390		7.587997	4.807993	-1.997878	-0.037765	0.006319	0.084407	-0.542236	-0.582764	0.682861	-0.300476	-0.786089	-0.067046	-0.535987
24391		7.801123	4.762531	-2.407991	-0.107188	-0.051413	0.036301	-0.540771	-0.581299	0.681885	-0.301307	-0.786038	-0.065661	-0.535768
24392		8.394086	4.410820	-2.682823	-0.114319	-0.084125	-0.040142	-0.532227	-0.579590	0.680908	-0.302746	-0.786114	-0.064855	-0.534943
24393		7.862275	4.307701	-3.211058	0.061032	-0.173912	-0.118366	-0.532959	-0.587402	0.683838	-0.303055	-0.787387	-0.065649	-0.532794
24394		7.112037	5.576009	-2.974988	0.029874	-0.141027	-0.121039	-0.525635	-0.578125	0.683350	-0.303662	-0.788317	-0.066377	-0.530980
24395		8.508151	5.202531	-2.421033	-0.098043	-0.045979	-0.120352	-0.531738	-0.591064	0.685303	-0.305443	-0.788128	-0.066616	-0.530209
24396		8.256179	5.187021	-2.267650	0.009119	-0.054297	-0.134374	-0.525146	-0.583496	0.691650	-0.306269	-0.788388	-0.067664	-0.529212
24397		7.480314	5.331350	-1.830263	-0.028943	-0.093414	-0.147246	-0.519043	-0.590576	0.684814	-0.307584	-0.788748	-0.068443	-0.527810
24398		6.783497	5.736746	-1.609114	0.002977	-0.104504	-0.142930	-0.505859	-0.586426	0.689209	-0.308568	-0.789304	-0.069342	-0.526286
24399		7.674989	5.514411	-2.160462	0.031642	-0.095908	-0.137404	-0.510254	-0.593262	0.687500	-0.309205	-0.789913	-0.070438	-0.524850
24400		7.746068	5.245766	-2.750072	0.070312	-0.159565	-0.138827	-0.499756	-0.594238	0.695312	-0.309528	-0.791083	-0.071548	-0.522743
24401		7.117339	5.831235	-2.085914	-0.079236	-0.184608	-0.104152	-0.499512	-0.597168	0.690674	-0.311122	-0.791865	-0.071244	-0.520651
24402		6.985115	5.327867	-1.712753	0.041370	-0.114356	-0.106824	-0.500000	-0.602783	0.695557	-0.311479	-0.792650	-0.072018	-0.519135
24403		6.953086	5.513198	-2.720636	0.215115	-0.077745	-0.068676	-0.498047	-0.590332	0.701660	-0.309847	-0.793904	-0.073663	-0.517963
24404		7.814618	6.359010	-3.195564	0.198348	-0.100227	-0.008261	-0.503906	-0.593262	0.710938	-0.308000	-0.795287	-0.074528	-0.516817
24405		7.973193	5.543811	-3.056663	0.250711	-0.078194	0.032943	-0.505859	-0.584229	0.705078	-0.305345	-0.796762	-0.075402	-0.515994
24406		7.414536	5.978592	-2.749294	0.327904	-0.074543	0.069062	-0.504883	-0.582275	0.714844	-0.301684	-0.798530	-0.076420	-0.515264
24407		7.454455	6.051394	-2.612176	0.252054	-0.061816	0.093821	-0.495117	-0.577881	0.710938	-0.298604	-0.799942	-0.076754	-0.514818
24408		8.181825	5.687382	-2.384098	0.161446	-0.079417	0.110686	-0.496826	-0.574219	0.719238	-0.296336	-0.801137	-0.076271	-0.514341
24409		8.328372	6.120523	-2.694604	0.113642	-0.134683	0.128262	-0.502441	-0.573730	0.724609	-0.294484	-0.802522	-0.075102	-0.513418
24410		7.617704	6.209750	-3.061607	-0.006012	-0.104996	0.172475	-0.496338	-0.568848	0.721436	-0.293518	-0.803310	-0.072829	-0.513065
24411		8.161719	6.579012	-3.121639	-0.043478	-0.098198	0.248669	-0.499512	-0.567139	0.723633	-0.292431	-0.803979	-0.069578	-0.513089
24412		7.865552	7.030551	-2.789057	-0.309479	-0.004544	0.346576	-0.508789	-0.566162	0.718750	-0.293301	-0.803141	-0.063982	-0.514632
24413		7.729673	6.740609	-2.663276	-0.558794	-0.003680	0.466347	-0.508301	-0.568359	0.714844	-0.295883	-0.801429	-0.055582	-0.516792
24414		7.754618	6.493814	-2.687249	-0.560346	-0.030910	0.590606	-0.517578	-0.578857	0.698242	-0.297665	-0.799899	-0.045838	-0.519092
24415		8.023892	6.095642	-2.906040	-0.557907	-0.082259	0.703113	-0.525635	-0.578125	0.694580	-0.298700	-0.798679	-0.034768	-0.521231
24416		7.627940	5.777171	-3.150212	-0.417367	-0.102139	0.777419	-0.531006	-0.572998	0.684082	-0.297813	-0.798044	-0.023804	-0.523323
24417		7.304909	6.008275	-3.286866	-0.386239	-0.142555	0.880246	-0.543701	-0.575195	0.687012	-0.295917	-0.797710	-0.011862	-0.525311
24418		7.759062	5.014508	-3.804221	-0.224449	-0.137113	0.976510	-0.556396	-0.560791	0.687500	-0.291729	-0.797829	-0.000046	-0.527602
24419		7.654654	4.596379	-3.899467	0.029605	-0.124502	1.013469	-0.566406	-0.549072	0.689209	-0.284710	-0.798662	0.010407	-0.530068
24420		7.441048	3.745630	-4.810225	0.358288	-0.110629	1.031707	-0.584473	-0.531738	0.685547	-0.274243	-0.800429	0.018817	-0.532682
24421		8.775471	4.323329	-3.484848	0.417469	0.008179	1.037345	-0.592041	-0.513184	0.698486	-0.263139	-0.801447	0.026517	-0.536412
24422		8.421960	3.141160	-2.384709	0.243964	0.180376	0.998935	-0.610596	-0.499512	0.687500	-0.254034	-0.800610	0.034404	-0.541579
24423		8.237193	5.002515	-1.797296	0.131773	0.172951	1.034139	-0.614746	-0.481445	0.690186	-0.245787	-0.799302	0.043460	-0.546641
24424		9.001919	3.281846	-1.580806	-0.122748	0.175260	1.056012	-0.637451	-0.465820	0.690918	-0.239876	-0.797048	0.054421	-0.551554
24425		8.983950	2.825066	-2.493483	-0.353513	0.175186	1.034993	-0.649170	-0.464600	0.683594	-0.236352	-0.793965	0.066741	-0.556149
24426		8.576737	2.610186	-3.275991	-0.547343	0.190605	1.020731	-0.670898	-0.453857	0.669434	-0.234817	-0.790050	0.080209	-0.560579
24427		7.891200	2.344671	-3.940398	0.032482	0.097436	1.007974	-0.689941	-0.438721	0.668213	-0.227498	-0.788351	0.089743	-0.564530
24428		8.918317	1.670432	-3.114493	0.167564	0.074276	0.989485	-0.692383	-0.421387	0.672852	-0.218911	-0.787095	0.098190	-0.568259
24429		8.710419	0.315214	-2.950585	0.534344	0.104818	0.897663	-0.697021	-0.391113	0.670410	-0.207368	-0.786609	0.103028	-0.572390
24430		8.971920	1.987845	-2.293307	0.548413	0.103072	0.836305	-0.702148	-0.374268	0.667236	-0.196094	-0.786118	0.107164	-0.576265
24431		9.136101	1.126654	-2.130275	0.431343	0.126236	0.779543	-0.717285	-0.352295	0.679932	-0.186390	-0.785134	0.111521	-0.579988
24432		9.029101	1.477331	-2.391999	0.381460	0.094339	0.738125	-0.722656	-0.338135	0.679443	-0.177404	-0.784231	0.115891	-0.583163
24433		8.773352	-0.471705	-2.694959	0.430153	0.090370	0.661483	-0.720459	-0.324219	0.671631	-0.168480	-0.783491	0.119158	-0.586138
24434		9.123915	-0.065572	-1.781304	0.367197	0.056906	0.512447	-0.725098	-0.309814	0.682129	-0.161208	-0.783019	0.121501	-0.588329
24435		9.930749	-1.801160	-1.189610	0.428730	0.000334	0.323085	-0.723633	-0.279297	0.682373	-0.154629	-0.783332	0.121646	-0.589646
24436		9.969434	-0.901173	-1.395815	0.483579	-0.031054	0.149575	-0.733643	-0.272949	0.687744	-0.148728	-0.784214	0.119739	-0.590383
24437		9.583105	-0.298779	-2.069881	0.422544	-0.067313	-0.001868	-0.730225	-0.267822	0.694824	-0.144486	-0.785447	0.116869	-0.590372
24438		9.553400	0.485304	-2.009935	-0.094511	-0.056201	-0.109198	-0.735352	-0.276123	0.682129	-0.146128	-0.785808	0.116743	-0.589512
24439		9.988724	-0.141861	-2.355906	-0.132891	-0.080955	-0.176791	-0.729736	-0.282959	0.691162	-0.148614	-0.786372	0.116290	-0.588225
24440		9.253745	0.821973	-3.305445	0.144118	-0.054872	-0.187150	-0.723877	-0.276123	0.697754	-0.148489	-0.787269	0.113650	-0.587574
24441		9.045612	3.134783	-2.931350	0.054160	-0.046823	-0.096556	-0.719727	-0.289551	0.691406	-0.148588	-0.787808	0.112540	-0.587039
24442		9.650417	2.349222	-2.081620	-0.297112	-0.037915	0.018921	-0.723633	-0.289551	0.682129	-0.151320	-0.787459	0.115134	-0.586306
24443		9.363229	-0.299130	-3.513071	-0.249566	-0.027806	0.033606	-0.718018	-0.289795	0.682129	-0.153488	-0.787096	0.117497	-0.585761
24444		9.070592	1.117818	-2.993006	-0.004271	-0.043161	-0.017607	-0.721191	-0.299072	0.690918	-0.153591	-0.787387	0.117589	-0.585324
24445		9.194084	0.565775	-2.732545	-0.042737	-0.015950	-0.055437	-0.723389	-0.296387	0.692627	-0.154394	-0.787460	0.117544	-0.585024
24446		9.455157	0.738106	-2.808182	0.058519	-0.011038	-0.067047	-0.718262	-0.297363	0.689941	-0.154288	-0.787709	0.116632	-0.584899
24447		9.312757	1.278583	-2.656683	0.055971	-0.003140	-0.062100	-0.720703	-0.296631	0.688965	-0.154185	-0.787887	0.115774	-0.584857
24448		9.223179	1.037265	-2.371977	0.068318	0.002465	-0.069297	-0.722656	-0.292969	0.686523	-0.154020	-0.788058	0.114743	-0.584873
24449		9.548595	0.830218	-2.381053	-0.116959	-0.008222	-0.081705	-0.725586	-0.289795	0.687744	-0.155753	-0.787967	0.114962	-0.584494
24450		9.276104	0.380557	-2.904274	0.011822	-0.025118	-0.122333	-0.722900	-0.291504	0.694336	-0.156485	-0.788307	0.113867	-0.584053
24451		9.203385	1.137235	-2.758090	0.010862	-0.033449	-0.146463	-0.720703	-0.305908	0.697998	-0.157389	-0.788739	0.112558	-0.583481
24452		9.407314	0.860575	-2.248056	-0.005563	-0.028501	-0.160308	-0.718506	-0.303223	0.697754	-0.158571	-0.789118	0.111231	-0.582902
24453		9.559202	0.745464	-2.311339	-0.108230	-0.028044	-0.193545	-0.716797	-0.311768	0.689697	-0.161002	-0.789333	0.110319	-0.582118
24454		9.518915	1.226337	-1.720076	-0.311403	-0.008291	-0.239690	-0.716797	-0.316650	0.684326	-0.165804	-0.789044	0.110395	-0.581147
24455		9.755730	0.844212	-1.700419	-1.021989	0.057551	-0.267959	-0.711914	-0.342529	0.682373	-0.177890	-0.786764	0.115203	-0.579729
24456		9.067649	-1.078385	-3.815852	-0.200010	-0.050348	-0.405959	-0.718018	-0.352783	0.690674	-0.182720	-0.787212	0.112926	-0.578065
24457		9.081652	0.091867	-3.163009	-0.198119	-0.053198	-0.532189	-0.704346	-0.360352	0.680664	-0.188429	-0.787831	0.109400	-0.576063
24458		8.732418	1.101207	-2.064682	-0.031176	-0.047897	-0.648625	-0.698486	-0.373535	0.682861	-0.193328	-0.788919	0.103512	-0.574035
24459		8.375963	3.286086	-2.385822	-0.209310	-0.040188	-0.639790	-0.694092	-0.385010	0.681641	-0.199918	-0.789458	0.098964	-0.571835
24460		9.585479	0.752068	-2.854779	-0.096323	0.010784	-0.596660	-0.687744	-0.393311	0.677246	-0.205132	-0.789814	0.093893	-0.570350
24461		9.218135	1.153246	-2.848489	0.186715	0.021869	-0.680065	-0.684326	-0.404541	0.672852	-0.208145	-0.790862	0.085948	-0.569057
24462		8.742601	3.988582	-1.962312	-0.046621	-0.077077	-0.698645	-0.675537	-0.416748	0.685791	-0.213480	-0.791966	0.079742	-0.566443
24463		8.625147	1.908830	-2.423264	-0.083027	-0.180680	-0.771030	-0.668457	-0.424805	0.686035	-0.219558	-0.793715	0.073329	-0.562525
24464		9.168280	1.338503	-2.947318	-0.175764	-0.153162	-0.802745	-0.652832	-0.448486	0.684326	-0.226775	-0.794964	0.067165	-0.558654
24465		7.938954	4.717046	-3.372180	0.101536	-0.157874	-0.785803	-0.642578	-0.453369	0.684082	-0.231104	-0.796935	0.059257	-0.554954
24466		8.487025	3.162646	-3.651999	0.075836	-0.096323	-0.700438	-0.638428	-0.455322	0.687744	-0.235114	-0.798273	0.052183	-0.552049
24467		10.388069	0.929915	-2.679665	0.063944	-0.072663	-0.859349	-0.627930	-0.465088	0.689941	-0.240320	-0.799442	0.043516	-0.548858
24468		7.717512	2.947077	-2.841841	0.237156	0.018412	-0.894333	-0.618896	-0.472656	0.697510	-0.244051	-0.800428	0.033034	-0.546500
24469		8.141290	6.828221	-2.160033	-0.136898	-0.034872	-0.688356	-0.608154	-0.484131	0.698486	-0.250062	-0.800472	0.027315	-0.544029
24470		8.537252	4.229077	-3.045634	-0.023046	-0.133911	-0.624822	-0.595947	-0.492676	0.696533	-0.254446	-0.801470	0.021747	-0.540767
24471		10.171153	3.479733	-2.748460	-0.041650	-0.066658	-0.667326	-0.589111	-0.513184	0.699463	-0.259310	-0.801913	0.015666	-0.538004
24472		8.165692	4.526789	-2.699614	0.048706	-0.092892	-0.710831	-0.573486	-0.514404	0.698975	-0.263550	-0.802773	0.008648	-0.534810
24473		7.776919	3.471137	-2.462660	-0.051590	-0.054143	-0.696375	-0.574219	-0.529541	0.708252	-0.268674	-0.802983	0.002299	-0.532004
24474		8.791649	5.190320	-3.119963	-0.130006	-0.114658	-0.625043	-0.559814	-0.534180	0.696777	-0.274084	-0.803273	-0.002616	-0.528794
24475		8.118445	4.445098	-2.812812	-0.031422	-0.084668	-0.612052	-0.551514	-0.536133	0.706543	-0.278406	-0.803652	-0.008144	-0.525896
24476		7.080095	4.422515	-2.830312	-0.134275	-0.072857	-0.566694	-0.551270	-0.552246	0.709473	-0.283424	-0.803560	-0.012619	-0.523262
24477		8.409940	5.315476	-3.991434	-0.092991	-0.093950	-0.479301	-0.538574	-0.561523	0.703857	-0.287463	-0.803727	-0.016387	-0.520692
24478		8.524092	4.457054	-3.437329	0.130248	0.016052	-0.502150	-0.532715	-0.561279	0.708252	-0.289393	-0.803944	-0.022208	-0.519069
24479		8.332079	4.805389	-2.898536	0.069787	0.086757	-0.508756	-0.528809	-0.570557	0.703369	-0.291941	-0.803450	-0.027959	-0.518128
24480		6.407390	5.451411	-2.987606	0.204021	0.033613	-0.452995	-0.518066	-0.561279	0.700928	-0.292793	-0.803779	-0.033815	-0.516787
24481		8.560083	5.267183	-3.077073	0.073471	0.033268	-0.360526	-0.518066	-0.569092	0.704346	-0.294348	-0.803648	-0.037904	-0.515823
24482		8.681487	5.066781	-3.083398	0.224635	0.079627	-0.398820	-0.512939	-0.568604	0.717285	-0.294603	-0.803735	-0.043520	-0.515097
24483		6.673489	5.562347	-3.418969	0.148730	0.105643	-0.385583	-0.509766	-0.572754	0.713135	-0.295499	-0.803359	-0.048628	-0.514714
24484		7.895959	6.165865	-3.227849	0.049445	0.107964	-0.287291	-0.512207	-0.567871	0.705811	-0.296755	-0.802644	-0.052116	-0.514765
24485		8.730137	5.595655	-2.580742	0.100087	0.158936	-0.257952	-0.508301	-0.584473	0.710938	-0.297287	-0.801796	-0.055811	-0.515392
24486		7.022991	5.258636	-2.827254	0.087715	0.149824	-0.238737	-0.504883	-0.581055	0.713379	-0.297823	-0.800963	-0.059196	-0.515999
24487		7.118951	5.805769	-2.644981	0.034793	0.103325	-0.182073	-0.508301	-0.579590	0.710449	-0.298553	-0.800268	-0.061504	-0.516386
24488		8.463388	6.169205	-2.877585	0.017169	0.085864	-0.109579	-0.503906	-0.583252	0.710449	-0.299003	-0.799671	-0.062908	-0.516881
24489		7.962809	5.899255	-3.469542	0.041487	0.077668	-0.090812	-0.503662	-0.576904	0.705566	-0.299085	-0.799230	-0.064267	-0.517349
24490		6.881936	3.541596	-2.971558	0.059036	0.055542	-0.118379	-0.504639	-0.575684	0.707031	-0.299185	-0.798973	-0.065935	-0.517478
24491		7.669619	5.554818	-2.460046	0.291605	0.065075	-0.155380	-0.506836	-0.575439	0.708740	-0.297188	-0.799486	-0.069511	-0.517367
24492		8.278506	5.592690	-2.246200	0.122821	0.086213	-0.173504	-0.497314	-0.569092	0.713867	-0.296989	-0.799211	-0.072234	-0.517535
24493		7.035321	4.940391	-2.153054	-0.016946	0.065048	-0.186383	-0.509766	-0.574951	0.713379	-0.298269	-0.798536	-0.074127	-0.517573
24494		7.803266	6.235160	-2.701502	-0.018635	-0.008896	-0.154650	-0.503906	-0.580078	0.711426	-0.299444	-0.798358	-0.075394	-0.516985
24495		8.235065	5.316393	-2.673421	-0.025468	0.066708	-0.178027	-0.500244	-0.575195	0.713135	-0.300767	-0.797641	-0.077132	-0.517067
24496		7.119217	5.910977	-2.837255	-0.062083	0.077409	-0.160054	-0.503174	-0.586182	0.709473	-0.302309	-0.796729	-0.078520	-0.517365
24497		7.681284	5.987729	-2.983033	-0.212195	0.090255	-0.111434	-0.506348	-0.584229	0.708496	-0.305035	-0.795209	-0.078475	-0.518109
24498		8.044961	5.663788	-2.686960	-0.106314	0.115109	-0.112165	-0.490967	-0.586914	0.700439	-0.306685	-0.793925	-0.079221	-0.518990
